# Input file       =  1199911133.099623_cleaned.dat
# Candidate        =  PSR_0332+5434
# Telescope        =  AR
# Epoch_topo       =  58131.860556708598
# Epoch_bary       =  N/A
# T_sample         =  0.002
# Data Folded      =  7340032
# Data Avg         =  1.59516991591434 
# Data StdDev      =  9.62026788448387 
# Profile Bins     =  1024
# Profile Avg      =  11434.1646944372 
# Profile StdDev   =  814.490763781305 
# Reduced chi-sqr  =  0.845
# Prob(Noise)      <  1   (~0.0 sigma)
# P_topo (ms)      =  714.566123365759  +/- 1.72e-05
# P'_topo (s/s)    =  -0                +/- 9.1e-12
# P''_topo (s/s^2) =  0                 +/- 4.02e-15
# P_bary (ms)      =  N/A
# P'_bary (s/s)    =  N/A
# P''_bary (s/s^2) =  N/A
# P_orb (s)        =  N/A
# asin(i)/c (s)    =  N/A
# eccentricity     =  N/A
# w (rad)          =  N/A
# T_peri           =  N/A
######################################################
   0  11147.11
   1  11011.82
   2  10996.16
   3  10963.81
   4  11142.77
   5  11484.4
   6  11749.56
   7  11562.71
   8  11279.55
   9  11259.46
  10  11325.53
  11  11338.16
  12  11395.57
  13  11379
  14  11581.18
  15  11889.51
  16  12088.1
  17  12063.66
  18  11710.51
  19  11449.97
  20  11176.9
  21  11156.56
  22  11046.42
  23  11098.22
  24  11460.15
  25  11809.94
  26  12149.74
  27  11947.55
  28  11518.28
  29  11164.17
  30  11084.81
  31  11258.22
  32  11460.84
  33  11740.86
  34  11971.75
  35  12100.02
  36  12238.4
  37  11991.76
  38  11734.33
  39  11615.82
  40  11855.06
  41  11661.41
  42  11552.19
  43  11768.84
  44  12106.45
  45  12289.41
  46  11966.57
  47  11810.55
  48  11682.92
  49  11266.02
  50  10612.78
  51  10458.75
  52  10839.31
  53  11506.54
  54  11789.77
  55  11965.99
  56  11896.18
  57  11706.01
  58  11348.74
  59  11151.73
  60  11099.82
  61  11388.71
  62  11497.73
  63  11470.9
  64  11599.46
  65  11716.01
  66  11616.17
  67  11564.62
  68  11428.68
  69  11350.62
  70  11382.73
  71  11575.67
  72  11836.89
  73  11838.86
  74  11721.02
  75  11696.49
  76  11525.56
  77  11605.5
  78  11080.35
  79  10474.86
  80  10392.43
  81  10791.43
  82  11585.41
  83  11991.08
  84  11970.93
  85  11783.98
  86  11388.55
  87  11158.48
  88  10979.71
  89  10916.67
  90  11405.27
  91  11723.69
  92  11644.72
  93  11656.86
  94  11657.11
  95  11648.61
  96  11215.06
  97  11256.11
  98  11451.53
  99  11453.56
 100  11394.12
 101  11640.43
 102  11789.61
 103  11575.64
 104  11157.21
 105  11102.87
 106  11171.2
 107  11145.87
 108  11206.97
 109  11502.74
 110  11784.45
 111  11511.91
 112  11432.79
 113  11394.44
 114  11275.98
 115  11051.99
 116  10950.45
 117  11115.85
 118  11345.1
 119  11554.7
 120  11703.18
 121  11915.68
 122  12106.59
 123  12060.34
 124  11660.93
 125  11523.28
 126  11564.67
 127  11537.51
 128  11513.58
 129  11442.28
 130  11624.32
 131  11724.76
 132  11778
 133  11705.46
 134  11657.15
 135  11300.22
 136  10824.59
 137  10889
 138  11469.75
 139  11863.25
 140  12024.2
 141  11885.13
 142  11710.56
 143  11072.24
 144  10582.59
 145  10760.49
 146  11208.3
 147  11642.66
 148  11708.16
 149  11813.86
 150  11782.85
 151  11625.85
 152  11628.41
 153  11461.31
 154  11268.98
 155  11125.12
 156  11175.5
 157  10860.36
 158  10746.64
 159  11092.56
 160  11674.18
 161  11854.85
 162  11494.01
 163  11298.01
 164  10732.46
 165  10328.06
 166  10631.76
 167  11177.65
 168  11568.59
 169  11452.63
 170  11626.7
 171  11445.21
 172  11226.11
 173  11045.69
 174  11420.52
 175  11499.97
 176  11898.91
 177  12255.49
 178  12129.61
 179  11928.27
 180  11598.16
 181  11630.56
 182  11633.79
 183  11627.99
 184  11402.79
 185  11140.48
 186  10890.24
 187  11053.06
 188  11395.46
 189  11525.75
 190  11460.47
 191  10853.9
 192  10257.14
 193  9930.814
 194  10244.05
 195  11095.45
 196  11487.11
 197  11694.17
 198  11701.24
 199  11875.7
 200  11527.19
 201  11129.1
 202  10954.79
 203  11056.42
 204  11385.41
 205  11600.92
 206  11840.63
 207  11524.29
 208  11380.07
 209  11281.51
 210  11545.65
 211  11550.35
 212  11443.87
 213  11326.18
 214  11214.71
 215  11622.55
 216  11530.95
 217  11738.47
 218  11660.28
 219  11737.08
 220  11724.51
 221  11276.98
 222  10718.82
 223  10503.04
 224  10965.74
 225  11633.83
 226  11669.73
 227  11489.16
 228  11164.66
 229  10885
 230  10862.57
 231  11000.27
 232  11122.44
 233  11484.7
 234  12020.26
 235  12118.56
 236  11783.18
 237  11517.88
 238  11423.44
 239  11498.89
 240  11199.83
 241  11345.28
 242  11341.65
 243  11251.9
 244  11501.57
 245  11941.61
 246  12254.6
 247  12088.68
 248  11882.51
 249  11758.67
 250  11280.43
 251  11014.78
 252  11558.29
 253  11881.32
 254  12146.09
 255  12208.96
 256  11984.1
 257  11712.76
 258  11305.91
 259  11084.98
 260  11020.35
 261  10879.06
 262  11367.43
 263  11793.69
 264  11936.76
 265  12041.12
 266  11636.18
 267  11382.96
 268  11008.51
 269  11009.16
 270  10876.08
 271  10679.76
 272  10672.05
 273  11128.72
 274  11440.73
 275  11674.94
 276  11370.71
 277  11100.99
 278  10875.63
 279  10663.75
 280  10691.28
 281  10968.64
 282  11380.88
 283  11494.07
 284  11544.08
 285  11346.33
 286  11014.58
 287  10893.67
 288  11020.66
 289  11159.99
 290  11075.65
 291  11429.38
 292  11855.15
 293  12059.42
 294  11923.94
 295  11492.52
 296  11147.64
 297  10900.94
 298  11037.26
 299  11053.26
 300  11063.73
 301  11237.2
 302  11568.75
 303  11885.64
 304  11795.13
 305  11728.39
 306  11463.05
 307  11154.89
 308  10873.14
 309  10948.36
 310  11222.12
 311  11496.42
 312  11329.87
 313  11163.63
 314  11351.54
 315  11342.97
 316  11101.22
 317  11062.62
 318  11171.89
 319  11664.46
 320  11964.64
 321  12072.12
 322  12168.19
 323  12008.42
 324  11732.38
 325  11221.13
 326  10833.82
 327  11040.64
 328  11108.28
 329  11236.56
 330  11522.75
 331  11935.51
 332  12031.85
 333  11919.56
 334  11559.57
 335  11358.35
 336  11158.28
 337  10964.67
 338  11052.04
 339  11285.96
 340  11690.34
 341  11975.92
 342  11565.87
 343  11140.44
 344  10710.04
 345  10421.61
 346  10867.85
 347  11077.71
 348  11224.08
 349  11353.01
 350  11389.27
 351  11530.13
 352  11375.03
 353  11542.29
 354  11388.68
 355  10933.61
 356  10572.3
 357  10537.54
 358  10644.43
 359  11148.65
 360  11484.39
 361  11421.62
 362  11535.93
 363  11593.24
 364  11822.68
 365  11448.69
 366  11243.63
 367  11390.04
 368  11722.15
 369  11759.49
 370  11822.55
 371  11798.95
 372  11485.63
 373  10874.16
 374  10828.65
 375  11092.56
 376  11364.3
 377  11489.59
 378  11776.17
 379  11896.54
 380  11837.84
 381  11700.08
 382  11488.33
 383  11367.91
 384  11231.19
 385  11216.15
 386  11128.69
 387  11338.34
 388  11869.12
 389  12122.55
 390  11871.41
 391  11319.3
 392  11019.87
 393  10648.58
 394  10558.27
 395  10750.88
 396  11135.44
 397  11419.34
 398  11717.35
 399  11507.75
 400  11368.87
 401  10901.33
 402  10879.28
 403  10680.9
 404  10321.89
 405  10478.87
 406  10997.39
 407  11599.62
 408  11877.04
 409  11793.66
 410  11636.78
 411  11339.86
 412  11245.09
 413  11231.07
 414  11206
 415  11085.27
 416  11155.14
 417  11521.82
 418  11775.56
 419  11830.86
 420  11735.51
 421  11723.76
 422  11192.89
 423  10686.13
 424  10539.6
 425  10994.84
 426  11598.29
 427  12134.29
 428  12028.04
 429  11511.21
 430  11027.56
 431  10858.1
 432  10798.12
 433  10875.34
 434  10947.13
 435  11363.17
 436  11480.43
 437  11675.98
 438  11628.15
 439  11588.01
 440  11418.78
 441  10994.49
 442  10611.88
 443  10697.07
 444  11275.12
 445  12035.72
 446  12412.44
 447  12242.45
 448  12025.4
 449  11697.81
 450  11237.03
 451  10581.87
 452  10329.89
 453  10462.9
 454  10825.25
 455  11141.67
 456  11696.44
 457  12009.11
 458  11975.79
 459  11756.92
 460  11561.54
 461  11484.74
 462  11473.66
 463  11207.72
 464  11125.64
 465  11311
 466  11638.53
 467  11830.07
 468  11752.48
 469  11383.48
 470  11064.06
 471  10654.59
 472  10673.57
 473  10928.05
 474  11543.77
 475  11827.07
 476  11774.56
 477  11359.11
 478  11060.17
 479  10614.09
 480  10081.61
 481  10258.49
 482  10843.68
 483  11416.77
 484  11609.37
 485  11764.14
 486  11773.11
 487  11398.99
 488  11034.74
 489  11023.51
 490  10871.54
 491  10838.8
 492  10733.91
 493  10862.56
 494  11190.42
 495  11507.87
 496  11777.22
 497  11851.78
 498  11819.14
 499  11668.55
 500  11385.24
 501  11058.09
 502  11298.25
 503  11632.04
 504  11934.43
 505  11847.23
 506  11607.46
 507  11528.43
 508  11037.49
 509  10792.51
 510  10972.98
 511  11550.5
 512  11986.99
 513  12233.09
 514  12196.67
 515  11995.98
 516  11509.66
 517  11163.03
 518  11038.35
 519  11070.26
 520  11211.17
 521  11358.18
 522  11282.18
 523  11606.02
 524  11769.48
 525  11987.42
 526  11820.95
 527  11656.11
 528  11488.89
 529  11532.77
 530  11835.57
 531  12171.51
 532  12346.18
 533  12304.1
 534  12222.75
 535  12005.41
 536  11482.41
 537  10801.64
 538  10783.44
 539  11331.25
 540  11718.88
 541  11619.15
 542  11627.88
 543  11783.05
 544  11495.81
 545  11397.17
 546  11231.54
 547  11161.89
 548  11164.64
 549  11398.22
 550  11608.79
 551  11783.91
 552  12111.88
 553  12167.54
 554  11975.92
 555  11605.76
 556  11559.04
 557  11366.98
 558  11335.16
 559  11566.37
 560  11724.14
 561  12050.67
 562  11982.37
 563  12027.1
 564  11807.64
 565  11662.88
 566  11188.67
 567  11205.03
 568  11339.37
 569  11934.06
 570  12122.38
 571  12294.81
 572  12076.13
 573  11745.97
 574  11482.99
 575  11149.06
 576  11004.63
 577  11258.23
 578  11524.48
 579  11671.66
 580  11724.9
 581  11946.47
 582  11990.09
 583  11839.67
 584  11545.51
 585  11295.96
 586  11019.41
 587  10966.57
 588  11420.2
 589  11857.13
 590  11893.45
 591  11563.38
 592  11313.07
 593  11348.5
 594  10944.8
 595  10727.54
 596  11017.93
 597  11643.03
 598  11930.88
 599  11965.17
 600  11871.01
 601  11866.5
 602  11485.74
 603  11349.4
 604  11242.42
 605  11171.29
 606  11296.45
 607  11615.48
 608  11997.48
 609  12175.7
 610  12311.05
 611  12340.1
 612  12335.07
 613  12290.6
 614  12213.81
 615  11896.63
 616  11637.93
 617  12070.64
 618  12408.65
 619  12635.93
 620  12208.49
 621  11672.2
 622  11047.24
 623  10750.94
 624  11088.77
 625  11242.93
 626  11543.32
 627  11438.78
 628  11934
 629  12123.53
 630  11673.87
 631  10960.86
 632  10525.75
 633  10587.44
 634  10617.88
 635  10707.5
 636  11083.2
 637  11277.25
 638  11691.67
 639  11757.3
 640  11610.36
 641  11249.63
 642  11390.96
 643  11285.72
 644  11116.62
 645  11053.98
 646  11389.14
 647  11915.74
 648  12147.11
 649  12327.57
 650  12220.43
 651  11460.32
 652  10853.49
 653  10959.53
 654  11302.12
 655  11874.84
 656  11826.81
 657  11971.8
 658  11663.69
 659  11442.18
 660  11122.15
 661  10934.06
 662  10792.99
 663  11029.21
 664  11096.75
 665  11307.48
 666  11559.65
 667  11912.57
 668  11773.09
 669  11809.32
 670  11552.48
 671  11517.65
 672  11185.05
 673  10895.4
 674  11122.99
 675  11499.76
 676  11897.94
 677  11850.92
 678  11655.17
 679  11537.51
 680  10998.18
 681  10739.88
 682  10898.29
 683  11240.21
 684  11648.14
 685  11872.48
 686  11897.63
 687  11542.38
 688  11218.97
 689  10955.99
 690  10931.68
 691  11146.34
 692  11481.31
 693  11953.98
 694  11989.54
 695  12151.34
 696  12013.98
 697  12165.68
 698  11976.84
 699  11899.76
 700  11540.05
 701  11126.79
 702  10979.4
 703  11272.39
 704  11700.44
 705  11719.71
 706  11577.77
 707  11647.14
 708  11456.58
 709  10993.73
 710  10858.83
 711  11234.91
 712  11559.51
 713  11336.87
 714  11524.62
 715  11625.77
 716  11612.19
 717  11275.48
 718  11107.18
 719  11210
 720  11336.08
 721  11424.31
 722  11283.2
 723  11179.45
 724  11152.26
 725  11351.24
 726  11522.83
 727  11609.06
 728  11563
 729  11316
 730  11116.15
 731  11148.67
 732  11453.49
 733  12030.89
 734  12288.38
 735  11994.31
 736  11900.3
 737  11294.89
 738  11097.63
 739  10985.74
 740  11282.56
 741  11548.57
 742  11667.42
 743  11922.94
 744  11994.97
 745  11662.11
 746  11343.64
 747  11198.13
 748  11011.85
 749  11163.94
 750  11332.02
 751  11529.27
 752  11795.12
 753  12083.18
 754  12183.97
 755  11617.33
 756  11071.56
 757  11136.1
 758  11010.38
 759  10829.02
 760  10815.99
 761  11314.97
 762  11900.12
 763  11779.79
 764  11804.73
 765  11460.87
 766  11179.02
 767  10810.33
 768  11130.5
 769  11365.77
 770  11478.05
 771  11753.62
 772  12083.97
 773  12088.49
 774  11484.13
 775  11231.8
 776  11381.51
 777  11561.63
 778  11626.06
 779  11537.58
 780  11431.08
 781  11461.29
 782  11689.83
 783  11854.95
 784  11606.68
 785  11361.21
 786  11333.6
 787  11074.82
 788  10992.21
 789  11050.41
 790  11626.13
 791  11682.33
 792  11690.65
 793  11667.66
 794  11396.95
 795  10910.04
 796  10826.87
 797  11001.46
 798  11220.69
 799  11387.5
 800  11403.13
 801  11473.79
 802  11131.06
 803  11044.55
 804  11069.96
 805  11130.26
 806  11210.47
 807  11314.54
 808  11905.03
 809  12076.97
 810  12068
 811  11827.51
 812  12057.91
 813  11927.92
 814  11910.96
 815  11546.5
 816  11015.98
 817  11063.12
 818  11422.06
 819  12048.02
 820  12065.62
 821  12110.82
 822  11934.45
 823  11323.24
 824  11134.49
 825  11129.77
 826  11633.88
 827  11932.96
 828  12147.59
 829  11983.42
 830  11765.82
 831  11641.22
 832  11736.98
 833  11650.44
 834  11376.41
 835  11362.33
 836  11666.44
 837  11758.75
 838  11776.46
 839  11783
 840  11803.42
 841  11703.12
 842  11458.04
 843  11354.93
 844  11108.27
 845  11070.04
 846  11310.13
 847  11392.23
 848  11555.04
 849  11461.57
 850  11658.43
 851  11342.44
 852  10466.93
 853  10233.86
 854  10804.61
 855  11608.37
 856  11636.15
 857  11809.41
 858  11671.45
 859  11836.77
 860  11417.7
 861  11483.83
 862  11623.55
 863  11727.34
 864  11636.73
 865  11461.91
 866  11513.86
 867  11740.3
 868  12013.78
 869  12072.57
 870  12024.59
 871  11829.56
 872  11523.9
 873  11493.23
 874  11558.66
 875  11878.14
 876  11804.97
 877  11591.29
 878  11579.43
 879  11649.59
 880  11016.79
 881  10668.15
 882  10798.47
 883  11223.71
 884  11402.35
 885  11518.38
 886  11558.26
 887  11389.43
 888  11190.45
 889  11109.47
 890  11088.95
 891  11103.74
 892  11314.67
 893  11188.59
 894  11256.71
 895  11430.29
 896  11648.27
 897  11856.92
 898  11753.88
 899  11752.24
 900  11593.21
 901  11499.09
 902  11136.49
 903  11357.41
 904  11577.26
 905  12025.21
 906  12081.82
 907  12029.41
 908  11906.54
 909  11295.88
 910  11035.65
 911  10711.61
 912  10994.9
 913  11188.24
 914  11520.07
 915  11382.29
 916  11404.62
 917  11201.25
 918  10969.64
 919  10886.99
 920  10904.1
 921  11190.75
 922  11151.08
 923  11279.06
 924  11424.63
 925  11545.25
 926  11552.55
 927  11523.36
 928  11543.24
 929  11601.52
 930  11296.31
 931  11002.7
 932  10862.58
 933  11138.17
 934  11324.05
 935  11491.08
 936  11447.27
 937  11215.78
 938  10979.73
 939  10854.62
 940  11180.4
 941  11127.54
 942  11109.71
 943  11254.84
 944  11310.16
 945  11164.63
 946  11106.84
 947  11049.97
 948  11262.57
 949  11248.23
 950  11381.23
 951  11484.36
 952  11312.66
 953  11131.63
 954  11175.65
 955  11351.74
 956  11504.88
 957  11451.65
 958  11309.48
 959  11191.32
 960  10980.43
 961  11235.93
 962  11514.17
 963  11570.21
 964  11557.08
 965  11539.32
 966  11322.67
 967  10785.57
 968  10735
 969  11190.89
 970  11693.81
 971  11978.9
 972  12057.12
 973  11983.5
 974  11910.52
 975  11588.37
 976  11354.23
 977  11154.31
 978  11263.25
 979  11345.53
 980  11514.31
 981  11663.07
 982  11967.53
 983  12001.88
 984  12203.84
 985  11961.72
 986  11878.26
 987  11328.72
 988  10983.95
 989  11078.99
 990  11198.52
 991  11455.85
 992  11496.96
 993  11874.75
 994  11824.92
 995  11311.34
 996  10544.05
 997  10273.06
 998  10517.07
 999  11192.39
1000  11573.15
1001  11707.46
1002  11830.43
1003  12003.9
1004  11896.14
1005  11474.41
1006  10980.74
1007  10975.28
1008  11267.21
1009  11355.8
1010  11508.94
1011  11485.95
1012  11446.4
1013  10941.62
1014  10761.38
1015  10806.57
1016  10736.87
1017  10540.08
1018  10923.24
1019  11580.32
1020  12059.04
1021  12030.54
1022  11864.66
1023  11595.43
