# Input file       =  1199982936.105925_cleaned.dat
# Candidate        =  PSR_0332+5434
# Telescope        =  AR
# Epoch_topo       =  58132.691610022281
# Epoch_bary       =  N/A
# T_sample         =  0.002
# Data Folded      =  7340032
# Data Avg         =  0.0511820499820702
# Data StdDev      =  0.999886487972926
# Profile Bins     =  512
# Profile Avg      =  733.74150590798  
# Profile StdDev   =  119.719445237099 
# Reduced chi-sqr  =  1.228
# Prob(Noise)      <  0.00032   (~3.4 sigma)
# P_topo (ms)      =  714.566373562054  +/- 0.000177
# P'_topo (s/s)    =  -0                +/- 9.36e-11
# P''_topo (s/s^2) =  0                 +/- 4.13e-14
# P_bary (ms)      =  N/A
# P'_bary (s/s)    =  N/A
# P''_bary (s/s^2) =  N/A
# P_orb (s)        =  N/A
# asin(i)/c (s)    =  N/A
# eccentricity     =  N/A
# w (rad)          =  N/A
# T_peri           =  N/A
######################################################
   0  748.0652
   1  703.0882
   2  649.0785
   3  594.582
   4  779.5153
   5  855.4562
   6  682.9473
   7  703.3174
   8  750.8306
   9  732.9403
  10  755.0382
  11  769.6846
  12  784.3426
  13  780.6548
  14  680.5482
  15  623.4141
  16  631.2595
  17  771.93
  18  836.4711
  19  782.759
  20  608.7436
  21  549.7308
  22  582.86
  23  606.5326
  24  607.945
  25  743.4368
  26  825.4526
  27  752.1363
  28  783.2839
  29  751.861
  30  735.9608
  31  670.328
  32  720.9263
  33  692.8602
  34  675.5892
  35  795.0216
  36  767.4351
  37  682.6978
  38  525.6473
  39  598.7283
  40  617.4523
  41  588.6152
  42  744.1855
  43  775.4787
  44  793.5701
  45  799.3346
  46  820.1896
  47  871.8329
  48  726.1775
  49  654.7606
  50  642.1867
  51  676.4673
  52  753.7768
  53  762.0939
  54  752.3046
  55  707.4162
  56  710.9438
  57  712.6222
  58  721.2514
  59  670.8442
  60  686.7843
  61  756.1336
  62  772.0232
  63  793.2404
  64  825.59
  65  791.8029
  66  793.8922
  67  813.3685
  68  837.7995
  69  811.1031
  70  764.2207
  71  749.1375
  72  753.4022
  73  711.3979
  74  597.3602
  75  583.1092
  76  733.6512
  77  688.8048
  78  613.6595
  79  654.4207
  80  838.891
  81  830.9084
  82  713.82
  83  740.9083
  84  727.5044
  85  684.0035
  86  669.7769
  87  601.3823
  88  762.1495
  89  722.6143
  90  680.3011
  91  680.6347
  92  740.2356
  93  882.0634
  94  752.2907
  95  747.6479
  96  758.0031
  97  752.1031
  98  733.4562
  99  696.4696
 100  752.1713
 101  757.0905
 102  741.7341
 103  672.9152
 104  664.1724
 105  603.79
 106  674.4509
 107  558.8326
 108  647.6432
 109  740.4519
 110  698.7918
 111  737.3013
 112  619.2054
 113  536.2162
 114  724.5845
 115  694.4957
 116  581.0185
 117  589.6661
 118  643.4099
 119  742.0719
 120  713.6233
 121  674.3367
 122  596.873
 123  723.3153
 124  714.4873
 125  718.1229
 126  632.6971
 127  695.3906
 128  719.5647
 129  651.6641
 130  656.1139
 131  721.4091
 132  661.1765
 133  731.3032
 134  756.7397
 135  727.6979
 136  811.2991
 137  787.1959
 138  741.2464
 139  752.9843
 140  673.6725
 141  515.4043
 142  575.6936
 143  749.6315
 144  721.609
 145  786.2857
 146  652.2667
 147  731.5033
 148  701.2216
 149  523.8351
 150  589.6633
 151  760.7598
 152  742.681
 153  674.7803
 154  559.8052
 155  752.3805
 156  785.5656
 157  626.9028
 158  559.181
 159  655.0687
 160  639.1347
 161  765.2968
 162  856.4595
 163  772.0991
 164  697.8294
 165  598.4395
 166  695.3047
 167  762.968
 168  731.8848
 169  616.0007
 170  610.5501
 171  585.6888
 172  603.2476
 173  574.4781
 174  592.2905
 175  658.5615
 176  609.4517
 177  667.8745
 178  619.5961
 179  588.3766
 180  677.8435
 181  810.0707
 182  768.4305
 183  735.2713
 184  748.2684
 185  759.1948
 186  696.3427
 187  599.5919
 188  722.6388
 189  713.3762
 190  802.1298
 191  826.3593
 192  681.4928
 193  762.8693
 194  737.6933
 195  636.6603
 196  556.9333
 197  616.5302
 198  640.8895
 199  694.7633
 200  734.2437
 201  769.7678
 202  618.1416
 203  614.8674
 204  696.784
 205  648.8898
 206  690.4803
 207  762.0266
 208  809.7554
 209  716.9694
 210  688.1447
 211  596.5381
 212  550.1481
 213  700.6666
 214  669.2651
 215  570.4748
 216  652.5082
 217  734.2922
 218  726.1583
 219  712.3123
 220  683.8651
 221  642.238
 222  632.0062
 223  616.5314
 224  651.6483
 225  742.8636
 226  722.9545
 227  752.0145
 228  752.7996
 229  750.5309
 230  816.3622
 231  841.011
 232  880.9139
 233  778.0737
 234  732.2071
 235  787.8364
 236  806.0762
 237  774.9393
 238  710.6564
 239  646.043
 240  704.5994
 241  625.6641
 242  658.8188
 243  678.8841
 244  700.1518
 245  697.5136
 246  685.465
 247  672.0598
 248  747.1561
 249  761.0985
 250  677.1292
 251  750.4115
 252  803.6163
 253  705.5203
 254  646.5391
 255  727.424
 256  642.6012
 257  619.5218
 258  756.0324
 259  725.8268
 260  741.2161
 261  856.528
 262  956.6552
 263  779.0903
 264  733.8469
 265  769.6287
 266  689.7639
 267  568.8958
 268  669.2855
 269  794.8098
 270  712.1599
 271  752.1256
 272  792.1721
 273  728.6695
 274  687.2627
 275  721.5481
 276  741.0287
 277  601.0879
 278  712.6321
 279  795.5186
 280  762.563
 281  672.8588
 282  649.0172
 283  752.2255
 284  793.1249
 285  746.2675
 286  676.965
 287  696.9601
 288  738.3868
 289  640.259
 290  744.8983
 291  864.7706
 292  789.4877
 293  734.2672
 294  801.153
 295  736.7993
 296  821.2661
 297  868.2969
 298  796.512
 299  702.5596
 300  645.7776
 301  728.8517
 302  715.5717
 303  799.2551
 304  681.4374
 305  650.0365
 306  659.9089
 307  697.9407
 308  784.8442
 309  768.1693
 310  702.8708
 311  789.8092
 312  832.6366
 313  661.9579
 314  678.4827
 315  939.4587
 316  938.7019
 317  843.7399
 318  704.9112
 319  693.9788
 320  690.9379
 321  596.6719
 322  699.1754
 323  793.3782
 324  795.0004
 325  863.683
 326  806.4266
 327  784.8632
 328  775.012
 329  780.3851
 330  801.8435
 331  840.9917
 332  791.1213
 333  765.292
 334  744.1852
 335  714.6295
 336  813.147
 337  859.6213
 338  836.5511
 339  837.0155
 340  828.6549
 341  804.9828
 342  844.2126
 343  747.7452
 344  768.692
 345  781.8527
 346  775.3201
 347  777.9385
 348  822.7792
 349  737.5909
 350  699.8132
 351  748.2587
 352  808.4422
 353  820.215
 354  836.6868
 355  856.0868
 356  850.9814
 357  820.5988
 358  868.4875
 359  820.0518
 360  793.6348
 361  829.8547
 362  821.6585
 363  856.744
 364  879.5951
 365  787.5461
 366  829.5672
 367  738.3733
 368  722.517
 369  761.6606
 370  824.6807
 371  700.7559
 372  688.4954
 373  775.1115
 374  843.9506
 375  814.8645
 376  897.3392
 377  817.4602
 378  712.6078
 379  654.6324
 380  711.8637
 381  699.9596
 382  729.4139
 383  801.2618
 384  860.8239
 385  669.2067
 386  677.3824
 387  777.5939
 388  722.7167
 389  664.1882
 390  754.2754
 391  866.562
 392  864.0344
 393  758.2263
 394  775.8297
 395  751.8508
 396  688.4528
 397  662.8033
 398  596.4987
 399  684.9632
 400  727.3127
 401  811.6268
 402  761.1775
 403  727.6843
 404  695.4633
 405  850.053
 406  899.0808
 407  1005.343
 408  1160.677
 409  1248.464
 410  1345.933
 411  1348.557
 412  1289.434
 413  1043.881
 414  833.7996
 415  739.9387
 416  766.0056
 417  680.7357
 418  671.0711
 419  640.863
 420  622.206
 421  820.3451
 422  834.5464
 423  725.9714
 424  710.9034
 425  790.7383
 426  677.6464
 427  649.6653
 428  727.9999
 429  673.4321
 430  662.1437
 431  671.0878
 432  784.5957
 433  743.8173
 434  689.7327
 435  693.3472
 436  728.8053
 437  672.8115
 438  651.3711
 439  732.0815
 440  836.7411
 441  735.9585
 442  669.5872
 443  704.882
 444  720.9131
 445  616.1729
 446  663.0089
 447  679.8797
 448  609.2568
 449  565.8561
 450  724.0978
 451  762.1219
 452  749.8839
 453  721.379
 454  704.1381
 455  722.8047
 456  765.1726
 457  858.189
 458  753.6911
 459  684.7189
 460  725.0399
 461  758.6452
 462  670.1887
 463  632.6093
 464  776.6793
 465  801.9048
 466  804.0308
 467  722.0251
 468  719.5291
 469  653.6415
 470  660.0703
 471  730.8802
 472  803.0856
 473  766.9019
 474  731.4653
 475  738.403
 476  762.1716
 477  813.8796
 478  829.7861
 479  878.4944
 480  954.5869
 481  895.9017
 482  811.1044
 483  735.2272
 484  665.3176
 485  739.4058
 486  800.6575
 487  794.8444
 488  696.8322
 489  656.7266
 490  627.6165
 491  716.8283
 492  786.9271
 493  802.0823
 494  808.9819
 495  715.3782
 496  752.5484
 497  781.8143
 498  846.0622
 499  771.4309
 500  762.996
 501  750.5251
 502  805.7895
 503  725.5558
 504  653.0605
 505  614.4653
 506  656.6653
 507  720.8661
 508  821.8456
 509  826.7936
 510  793.6772
 511  706.9601
