# Input file       =  1199723963.108346_cleaned.dat
# Candidate        =  PSR_0332+5434
# Telescope        =  AR
# Epoch_topo       =  58129.694237365118
# Epoch_bary       =  N/A
# T_sample         =  0.002
# Data Folded      =  7340032
# Data Avg         =  0.533574340601002
# Data StdDev      =  5.74754158248703 
# Profile Bins     =  512
# Profile Avg      =  7649.22665026585 
# Profile StdDev   =  688.170605372896 
# Reduced chi-sqr  =  0.544
# Prob(Noise)      <  1   (~0.0 sigma)
# P_topo (ms)      =  714.564238960847  +/- 0.000942
# P'_topo (s/s)    =  -0                +/- 4.97e-10
# P''_topo (s/s^2) =  0                 +/- 2.19e-13
# P_bary (ms)      =  N/A
# P'_bary (s/s)    =  N/A
# P''_bary (s/s^2) =  N/A
# P_orb (s)        =  N/A
# asin(i)/c (s)    =  N/A
# eccentricity     =  N/A
# w (rad)          =  N/A
# T_peri           =  N/A
######################################################
   0  7693.333
   1  7774.329
   2  7670.502
   3  7294.302
   4  7206.497
   5  6874.431
   6  7479.757
   7  7560.017
   8  7563.75
   9  6945.328
  10  7394.666
  11  7493.193
  12  7840.135
  13  7704.693
  14  8012.303
  15  7660.943
  16  7346.834
  17  7695.972
  18  7647.159
  19  7476.11
  20  7403.35
  21  7150.81
  22  7183.136
  23  6848.809
  24  7310.232
  25  7451.385
  26  7631.394
  27  7782.66
  28  7356.745
  29  7156.275
  30  7444.51
  31  7582.375
  32  7625.174
  33  7863.409
  34  7293.021
  35  7363.17
  36  7504.531
  37  7385.012
  38  7222.956
  39  7460.01
  40  7394.947
  41  7545.644
  42  7132.491
  43  7489.854
  44  7458.956
  45  7586.294
  46  7713.056
  47  7689.837
  48  7378.264
  49  7850.41
  50  7962.926
  51  7761.945
  52  6999.721
  53  7549.068
  54  7477.768
  55  7562.305
  56  7659.101
  57  7434.767
  58  6956.963
  59  7318.412
  60  8009.274
  61  7603.914
  62  7781.341
  63  7792.229
  64  7113.073
  65  7379.132
  66  7170.318
  67  7127.521
  68  7503.143
  69  7710.401
  70  7711.695
  71  7533.712
  72  7547.507
  73  7510.146
  74  7508.843
  75  7417.268
  76  7348.849
  77  7450.375
  78  7820.319
  79  7213.324
  80  7445.099
  81  7263.296
  82  7202.015
  83  7346.35
  84  7689.067
  85  7339.004
  86  7634.887
  87  7563.297
  88  7601.011
  89  7731.523
  90  7546.764
  91  7521.667
  92  7528.87
  93  7255.174
  94  7520.495
  95  7047.583
  96  7571.678
  97  7350.206
  98  7488.291
  99  7514.772
 100  7338.177
 101  7239.282
 102  7100.299
 103  6939.609
 104  7142.039
 105  6974.2
 106  7384.44
 107  7648.107
 108  7328.165
 109  6836.069
 110  7185.437
 111  7501.38
 112  7860.144
 113  7445.757
 114  7378.791
 115  8010.11
 116  7501.945
 117  7094.885
 118  7094.485
 119  7347.247
 120  7473.208
 121  7818.681
 122  7459.057
 123  7753.542
 124  7470.247
 125  7565.59
 126  7841.337
 127  7313.174
 128  7669.784
 129  7330.005
 130  7228.582
 131  7433.609
 132  7302.847
 133  7855.071
 134  7678.284
 135  7615.588
 136  7767.252
 137  7426.704
 138  7352.351
 139  7580.396
 140  7335.411
 141  7470.395
 142  7978.952
 143  8211.996
 144  7786.448
 145  7283.315
 146  7739.553
 147  7971.936
 148  7604.44
 149  7695.478
 150  7581.245
 151  7850.087
 152  7976.233
 153  7954.484
 154  8292.788
 155  8117.882
 156  7455.808
 157  7063.591
 158  7000.609
 159  7243.02
 160  7361.133
 161  7762.729
 162  7748.641
 163  7707.183
 164  7626.815
 165  7547.889
 166  7676.804
 167  7792.726
 168  8019.825
 169  7461.571
 170  7902.102
 171  7447.799
 172  7948.046
 173  7906.99
 174  7655.415
 175  7665.774
 176  7720.869
 177  7140.105
 178  7643.004
 179  7383.903
 180  7531.633
 181  7195.646
 182  7446.631
 183  8095.268
 184  8063.231
 185  7958.394
 186  8089.49
 187  7556.812
 188  7857.578
 189  7471.744
 190  7363.608
 191  7678.708
 192  8099.816
 193  7839.992
 194  7209.644
 195  7282.949
 196  7450.985
 197  7658.38
 198  7809.901
 199  8043.772
 200  7968.354
 201  8283.962
 202  7486.135
 203  7189.079
 204  7475.139
 205  7578.647
 206  7750.261
 207  8175.931
 208  7984.33
 209  7759.196
 210  7426.48
 211  7632.437
 212  7435.186
 213  7950.006
 214  7562.241
 215  7135.369
 216  7219.467
 217  7300.437
 218  7496.208
 219  7930.977
 220  7710.064
 221  7497.389
 222  7578.312
 223  7822.119
 224  7087.193
 225  7517.342
 226  7438.026
 227  7301.116
 228  7594.202
 229  7697.67
 230  7766.909
 231  8080.679
 232  8158.833
 233  7935.104
 234  7320.833
 235  7515.125
 236  7205.058
 237  7560.777
 238  7886.799
 239  8021.446
 240  7947.834
 241  7609.907
 242  7426.095
 243  7315.199
 244  7697.944
 245  7577.549
 246  7933.212
 247  8087.914
 248  7944.876
 249  7425.456
 250  7429.934
 251  7352.222
 252  7941.227
 253  7866.939
 254  7812.228
 255  7754.492
 256  8290.467
 257  7324.438
 258  7376.883
 259  7316.424
 260  8337.712
 261  8239.742
 262  8076.792
 263  7615.705
 264  7570.973
 265  7411.375
 266  7451.086
 267  7758.649
 268  8235.266
 269  7593.509
 270  7387.569
 271  7520.676
 272  8477.623
 273  8188.746
 274  8242.133
 275  7958.5
 276  7544.674
 277  7534.82
 278  7638.289
 279  7295.528
 280  7649.054
 281  7128.556
 282  7008.152
 283  7510.05
 284  7603.423
 285  7848.519
 286  7963.786
 287  7381.69
 288  8196.073
 289  8423.887
 290  8576.371
 291  7973.378
 292  7848.961
 293  7965.021
 294  7282.086
 295  7787.165
 296  7915.444
 297  8016.326
 298  7656.357
 299  7461.669
 300  7443.644
 301  8601.14
 302  8466.002
 303  8643.696
 304  8269.747
 305  8582.619
 306  8094.787
 307  7803.607
 308  7615.057
 309  8110.452
 310  8455.024
 311  8487.181
 312  8241.917
 313  8377.931
 314  8496.385
 315  8257.4
 316  8079.779
 317  7722.388
 318  7573.333
 319  7363.547
 320  7233.134
 321  7644.57
 322  7399.844
 323  7177.097
 324  7125.129
 325  7493.384
 326  7659.187
 327  7543.172
 328  7514.51
 329  7391.463
 330  7653.15
 331  7568.812
 332  7263.175
 333  7742.945
 334  7646.645
 335  7542.387
 336  7929.786
 337  7745.316
 338  7754.148
 339  7535.041
 340  7617.863
 341  7288.031
 342  7372.351
 343  7765.089
 344  7940.897
 345  7986.251
 346  8281.509
 347  7922.911
 348  7997.601
 349  7278.788
 350  7674.605
 351  7552.169
 352  7759.986
 353  7842.643
 354  8365.484
 355  8371.464
 356  8157.852
 357  7869.013
 358  7739.636
 359  7435.89
 360  7155.021
 361  7379.462
 362  7599.839
 363  7564.799
 364  7455.034
 365  7648.927
 366  7847.894
 367  7640.129
 368  7613.718
 369  7582.632
 370  7392.675
 371  7713.751
 372  8144.884
 373  8220.824
 374  7860.541
 375  8389.291
 376  7800.547
 377  7601.273
 378  7480.548
 379  7557.768
 380  7902.371
 381  8424.973
 382  7905.018
 383  7973.048
 384  8226.394
 385  8374.61
 386  8249.342
 387  7836.429
 388  7942.77
 389  8381.766
 390  8449.439
 391  8263.893
 392  7709.631
 393  7969.224
 394  7761.033
 395  8092.947
 396  8143.555
 397  8179.669
 398  8090.746
 399  8125.028
 400  8026.395
 401  8091.43
 402  7741.568
 403  7866.356
 404  7807.927
 405  7628.479
 406  7604.987
 407  7731.806
 408  7842.342
 409  7938.41
 410  7623.607
 411  7630.276
 412  7684.045
 413  7653.221
 414  7696.953
 415  7756.396
 416  7713.651
 417  7376.101
 418  7484.419
 419  6847.888
 420  6845.037
 421  7079.351
 422  7506.24
 423  7228.609
 424  7637.314
 425  7091.01
 426  7055.786
 427  6945.767
 428  7212.491
 429  7543.058
 430  7283.372
 431  7198.295
 432  7188.626
 433  7101.011
 434  7279.37
 435  7470.721
 436  7771.247
 437  7628.12
 438  7585.854
 439  7593.123
 440  7800.031
 441  8143.394
 442  7827.702
 443  7956.195
 444  7985.861
 445  7671.759
 446  7594.882
 447  7295.225
 448  7281.93
 449  7354.036
 450  7937.791
 451  7705.314
 452  7610.221
 453  7508.714
 454  7463.893
 455  7398.23
 456  7626.68
 457  7408.3
 458  7209.894
 459  6727.751
 460  7106.107
 461  7315.415
 462  7227.393
 463  7501.898
 464  7164.129
 465  7093.307
 466  7621.825
 467  7789.323
 468  7305.925
 469  7608.019
 470  7484.884
 471  7544.192
 472  7265.523
 473  7795.05
 474  7117.189
 475  7559.522
 476  7520.573
 477  7258.906
 478  7175.06
 479  7731.727
 480  7932.452
 481  8457.097
 482  8137.689
 483  7944.06
 484  7607.698
 485  7311.297
 486  7491.784
 487  8078.699
 488  7775.117
 489  7773.633
 490  7356.203
 491  7480.277
 492  7576.855
 493  7461.638
 494  7595.376
 495  8056.2
 496  7983.43
 497  7846.765
 498  8019.077
 499  8562.056
 500  8587.282
 501  8351.837
 502  9055.623
 503  9149.93
 504  9012.448
 505  8636.236
 506  7813.091
 507  7894.689
 508  7810.121
 509  7653.207
 510  7988.518
 511  7645.37
