# Input file       =  1199825015.109469_cleaned.dat
# Candidate        =  PSR_0332+5434
# Telescope        =  AR
# Epoch_topo       =  58130.863820711449
# Epoch_bary       =  N/A
# T_sample         =  0.002
# Data Folded      =  7340032
# Data Avg         =  0.0430412795389474
# Data StdDev      =  1.000236211636   
# Profile Bins     =  512
# Profile Avg      =  617.031010799566 
# Profile StdDev   =  119.761318713171 
# Reduced chi-sqr  =  0.946
# Prob(Noise)      <  0.804   (~0.0 sigma)
# P_topo (ms)      =  714.565419434918  +/- 8.21e-05
# P'_topo (s/s)    =  -0                +/- 4.33e-11
# P''_topo (s/s^2) =  0                 +/- 1.91e-14
# P_bary (ms)      =  N/A
# P'_bary (s/s)    =  N/A
# P''_bary (s/s^2) =  N/A
# P_orb (s)        =  N/A
# asin(i)/c (s)    =  N/A
# eccentricity     =  N/A
# w (rad)          =  N/A
# T_peri           =  N/A
######################################################
   0  676.3777
   1  683.3284
   2  683.7675
   3  616.9576
   4  582.2687
   5  608.2322
   6  632.6604
   7  695.5638
   8  755.5428
   9  637.3812
  10  610.9059
  11  588.2443
  12  609.6711
  13  634.3048
  14  561.1335
  15  545.5294
  16  451.6391
  17  563.8891
  18  645.4587
  19  551.2722
  20  538.3741
  21  585.0927
  22  650.1527
  23  717.4916
  24  543.0557
  25  550.9807
  26  571.2797
  27  663.2026
  28  597.3584
  29  644.6699
  30  461.1933
  31  493.7401
  32  531.8287
  33  598.5657
  34  694.5194
  35  656.9638
  36  660.7484
  37  710.2823
  38  728.9813
  39  590.8621
  40  561.4877
  41  635.5244
  42  830.0665
  43  745.222
  44  708.2404
  45  560.0161
  46  569.9424
  47  719.1456
  48  732.2582
  49  591.4475
  50  700.9293
  51  681.8389
  52  659.1162
  53  632.3582
  54  583.1181
  55  661.2122
  56  591.7148
  57  466.5956
  58  619.4492
  59  662.3472
  60  639.799
  61  645.73
  62  659.8027
  63  601.1368
  64  551.636
  65  627.423
  66  648.4385
  67  525.6117
  68  481.7661
  69  446.6334
  70  531.0929
  71  628.8545
  72  663.8925
  73  591.8489
  74  584.4149
  75  652.0493
  76  651.3869
  77  604.8017
  78  553.5542
  79  541.1402
  80  608.0303
  81  684.6903
  82  554.0161
  83  558.1484
  84  603.6426
  85  608.205
  86  736.8362
  87  565.3895
  88  481.5406
  89  542.9196
  90  556.3308
  91  523.1027
  92  505.7633
  93  569.3588
  94  656.2215
  95  552.7201
  96  556.3925
  97  588.8301
  98  681.4117
  99  633.8118
 100  543.0385
 101  643.2602
 102  626.7902
 103  665.7228
 104  721.755
 105  655.085
 106  594.4616
 107  590.4061
 108  640.0038
 109  657.3646
 110  625.7197
 111  605.3337
 112  575.2141
 113  546.9565
 114  636.0269
 115  716.1577
 116  673.7401
 117  659.473
 118  713.2145
 119  568.5673
 120  460.3415
 121  475.3785
 122  627.9296
 123  596.8076
 124  622.9828
 125  616.07
 126  577.0102
 127  616.2877
 128  678.3271
 129  664.6785
 130  599.02
 131  577.139
 132  551.6916
 133  625.5343
 134  730.6431
 135  737.8533
 136  708.3113
 137  798.2761
 138  761.3023
 139  595.5531
 140  589.7203
 141  688.8417
 142  670.063
 143  592.6317
 144  652.3008
 145  463.6097
 146  415.9406
 147  501.5124
 148  661.9921
 149  645.7184
 150  634.6718
 151  763.2903
 152  726.3416
 153  591.0421
 154  547.8207
 155  607.2386
 156  526.8582
 157  515.1052
 158  608.4479
 159  583.1047
 160  464.9998
 161  376.1481
 162  573.0424
 163  593.1218
 164  501.1956
 165  540.9856
 166  600.094
 167  538.6617
 168  526.9648
 169  638.9435
 170  677.0086
 171  709.6614
 172  716.0125
 173  735.1082
 174  674.7943
 175  602.6136
 176  619.1038
 177  553.5858
 178  549.3582
 179  522.8353
 180  613.4407
 181  652.1799
 182  612.8919
 183  626.2996
 184  685.1479
 185  676.0764
 186  596.9968
 187  640.411
 188  543.8745
 189  610.0305
 190  582.7473
 191  622.972
 192  625.4641
 193  676.4714
 194  694.1962
 195  525.3962
 196  548.9614
 197  597.8237
 198  604.5675
 199  627.5041
 200  585.3958
 201  704.131
 202  646.6187
 203  545.4533
 204  554.541
 205  603.7897
 206  541.5322
 207  598.0765
 208  700.886
 209  725.5212
 210  578.3234
 211  500.3665
 212  580.2365
 213  599.5643
 214  633.1867
 215  671.967
 216  654.4454
 217  713.7578
 218  577.5131
 219  557.7463
 220  559.3382
 221  614.6655
 222  654.8075
 223  612.2369
 224  589.753
 225  611.3699
 226  534.613
 227  562.3411
 228  651.6101
 229  668.9365
 230  725.8709
 231  759.8746
 232  826.4186
 233  781.5842
 234  887.3372
 235  934.7963
 236  1049.355
 237  1081.899
 238  990.8899
 239  831.1451
 240  712.3369
 241  731.0196
 242  700.6595
 243  696.472
 244  833.4943
 245  711.5483
 246  743.1093
 247  682.7115
 248  611.5096
 249  559.8664
 250  510.063
 251  636.3125
 252  624.5443
 253  680.2787
 254  664.3084
 255  593.0611
 256  609.592
 257  674.5317
 258  676.5022
 259  621.527
 260  582.5015
 261  525.3796
 262  563.4631
 263  681.8564
 264  680.9201
 265  638.1116
 266  687.698
 267  680.8314
 268  711.4846
 269  709.306
 270  675.14
 271  599.0444
 272  597.0128
 273  693.9479
 274  648.118
 275  665.1739
 276  695.7867
 277  742.9794
 278  617.9993
 279  711.8458
 280  819.8665
 281  796.0173
 282  705.8885
 283  687.9444
 284  714.5628
 285  624.3776
 286  574.3964
 287  615.6172
 288  572.5402
 289  632.2532
 290  556.4266
 291  597.3462
 292  608.9038
 293  611.277
 294  696.5945
 295  703.7153
 296  570.4651
 297  531.9218
 298  567.9168
 299  627.8544
 300  559.79
 301  632.2419
 302  661.2108
 303  633.9148
 304  617.325
 305  629.2309
 306  602.7723
 307  555.0241
 308  706.1818
 309  754.0045
 310  744.5506
 311  622.4111
 312  578.5266
 313  554.0872
 314  570.4384
 315  602.8073
 316  714.1652
 317  639.9167
 318  592.0255
 319  741.7718
 320  672.3013
 321  566.2892
 322  613.4708
 323  629.5504
 324  647.0807
 325  585.2328
 326  614.7141
 327  549.4766
 328  587.3651
 329  506.7442
 330  584.7852
 331  515.4033
 332  504.1267
 333  539.3008
 334  568.1707
 335  593.6362
 336  548.3827
 337  652.555
 338  651.887
 339  638.6388
 340  585.7924
 341  470.9448
 342  458.8438
 343  446.9132
 344  540.8947
 345  520.0212
 346  536.9951
 347  691.7806
 348  587.9638
 349  579.6754
 350  592.5014
 351  484.9632
 352  374.4459
 353  609.9217
 354  529.5386
 355  610.3015
 356  626.4907
 357  589.2937
 358  594.0117
 359  613.9277
 360  599.3018
 361  586.9675
 362  620.0322
 363  647.3301
 364  608.1296
 365  592.1784
 366  633.6068
 367  550.5819
 368  607.9532
 369  628.9766
 370  567.4592
 371  552.1566
 372  638.5892
 373  679.9916
 374  681.6846
 375  650.9091
 376  643.1852
 377  566.2928
 378  532.1477
 379  494.1152
 380  582.4485
 381  757.7281
 382  751.023
 383  605.0464
 384  567.1554
 385  623.144
 386  581.9103
 387  429.9402
 388  416.5647
 389  489.981
 390  601.9946
 391  685.5264
 392  562.3817
 393  509.5935
 394  540.8473
 395  665.4999
 396  735.9966
 397  673.0869
 398  644.2087
 399  522.9407
 400  517.2136
 401  503.4041
 402  604.9348
 403  589.4159
 404  698.5286
 405  674.9746
 406  579.1861
 407  610.7705
 408  638.1177
 409  612.8292
 410  540.1549
 411  582.2998
 412  732.5329
 413  686.5995
 414  613.9305
 415  645.2079
 416  734.4197
 417  642.2117
 418  501.6017
 419  619.1329
 420  698.4531
 421  557.6418
 422  606.1119
 423  589.2247
 424  640.9857
 425  649.159
 426  623.4716
 427  599.8683
 428  493.9361
 429  400.4713
 430  526.3448
 431  596.9396
 432  524.0359
 433  467.4196
 434  577.946
 435  459.6143
 436  477.4377
 437  507.9537
 438  541.2874
 439  492.6568
 440  507.0081
 441  566.2838
 442  597.5421
 443  584.9525
 444  622.4634
 445  637.7466
 446  471.2981
 447  479.4583
 448  569.5309
 449  594.9151
 450  556.908
 451  427.3904
 452  622.4985
 453  668.6674
 454  562.085
 455  515.9203
 456  603.1802
 457  688.2573
 458  602.8345
 459  542.1622
 460  567.3546
 461  567.8809
 462  611.988
 463  769.7663
 464  696.0298
 465  622.1895
 466  630.6666
 467  666.2227
 468  665.3488
 469  580.6749
 470  513.7985
 471  536.4636
 472  507.0551
 473  623.8288
 474  589.7795
 475  580.8831
 476  625.487
 477  575.9743
 478  506.9052
 479  505.2964
 480  594.8265
 481  634.3434
 482  730.5696
 483  686.9069
 484  740.6
 485  604.598
 486  593.4321
 487  624.5461
 488  711.4977
 489  640.4375
 490  757.7375
 491  673.3218
 492  700.0275
 493  665.3902
 494  649.5427
 495  729.9449
 496  643.4643
 497  592.3145
 498  644.5842
 499  740.0219
 500  655.105
 501  563.6763
 502  709.4518
 503  643.465
 504  603.2559
 505  662.6269
 506  752.8886
 507  632.9592
 508  566.0616
 509  469.6317
 510  601.3973
 511  645.7142
