# Input file       =  1199652744.097252_cleaned.dat
# Candidate        =  PSR_0332+5434
# Telescope        =  AR
# Epoch_topo       =  58128.869943255231
# Epoch_bary       =  N/A
# T_sample         =  0.002
# Data Folded      =  7340032
# Data Avg         =  2.06091501763564 
# Data StdDev      =  16.854282348321  
# Profile Bins     =  1024
# Profile Avg      =  14772.6280001166 
# Profile StdDev   =  1426.95166784394 
# Reduced chi-sqr  =  0.598
# Prob(Noise)      <  1   (~0.0 sigma)
# P_topo (ms)      =  714.563969746634  +/- 2.07e-05
# P'_topo (s/s)    =  -0                +/- 1.09e-11
# P''_topo (s/s^2) =  0                 +/- 4.81e-15
# P_bary (ms)      =  N/A
# P'_bary (s/s)    =  N/A
# P''_bary (s/s^2) =  N/A
# P_orb (s)        =  N/A
# asin(i)/c (s)    =  N/A
# eccentricity     =  N/A
# w (rad)          =  N/A
# T_peri           =  N/A
######################################################
   0  13850.19
   1  13855.16
   2  14525.88
   3  15092.83
   4  14996.73
   5  14559.71
   6  14454.34
   7  14644.6
   8  14496.17
   9  14305.37
  10  14721.25
  11  14723.02
  12  14264.29
  13  14160.61
  14  14420.44
  15  14219.87
  16  14292.5
  17  14260.92
  18  14730.69
  19  14170.47
  20  13780.84
  21  13357.89
  22  13199.12
  23  13915.18
  24  14529.46
  25  15137.07
  26  14797.08
  27  14248.99
  28  14518.45
  29  14788.92
  30  14897.65
  31  14909.73
  32  15039.48
  33  14581.45
  34  14003.62
  35  14004.35
  36  14502.42
  37  14618.46
  38  14527.83
  39  14470.97
  40  13948.79
  41  13393.93
  42  13459.31
  43  13578.5
  44  14464.77
  45  14897.24
  46  15313.71
  47  15208.28
  48  14925.64
  49  14680.38
  50  14642.77
  51  14473.09
  52  14692.61
  53  14758.72
  54  14782.18
  55  14771.74
  56  14564.73
  57  14809.75
  58  14597.62
  59  14530.49
  60  14722.65
  61  14580.87
  62  14503.68
  63  14588.27
  64  13983.43
  65  13696.89
  66  13075.16
  67  13559.54
  68  14010.86
  69  13868.95
  70  13714.99
  71  13707.09
  72  13125.19
  73  13364.11
  74  13748.26
  75  14633.82
  76  14911.71
  77  14366.36
  78  14139.72
  79  13704.14
  80  13378.08
  81  14220.25
  82  14792.77
  83  15043
  84  14552.89
  85  14384.89
  86  14527.34
  87  14289.71
  88  14386.19
  89  14810.71
  90  14112.84
  91  14085.5
  92  14134.31
  93  14385.75
  94  14180.01
  95  14600.77
  96  15316.19
  97  15212.69
  98  14426.99
  99  13666.23
 100  13168.15
 101  13238.52
 102  13613.94
 103  14517.15
 104  15398.56
 105  15017.9
 106  14078.71
 107  13748.28
 108  13755.84
 109  14406.05
 110  14821.5
 111  14956.98
 112  14655.88
 113  14263.6
 114  14294.34
 115  14243.27
 116  14222.61
 117  15014.77
 118  15233.53
 119  14659.52
 120  14357.6
 121  13951.01
 122  13756
 123  13818.82
 124  14655.71
 125  15606.2
 126  15386.33
 127  14903.02
 128  14736.84
 129  14334.92
 130  14483.46
 131  14387.69
 132  14367.62
 133  14763.21
 134  14191.71
 135  14286.39
 136  14047.76
 137  14066.97
 138  15028.53
 139  15216.23
 140  15474.44
 141  15279.05
 142  15301.42
 143  15028.72
 144  14504
 145  14695.25
 146  15297.99
 147  14997.78
 148  14217.11
 149  14060.23
 150  13803.58
 151  14166.41
 152  14164.31
 153  14761.17
 154  14784.54
 155  14071.09
 156  13959.68
 157  14582.4
 158  14650.93
 159  15327.37
 160  15465.72
 161  15719.58
 162  15401.56
 163  14531.65
 164  13824.78
 165  13210.92
 166  13433.46
 167  14481.49
 168  15026.53
 169  15256.92
 170  14828.73
 171  14604.49
 172  14555.74
 173  14227.48
 174  14451.04
 175  14840.84
 176  14860.57
 177  15241.44
 178  15432.51
 179  14781.59
 180  14644.45
 181  14674.06
 182  15212.36
 183  14695.63
 184  14193.97
 185  14201.94
 186  13999.87
 187  14269.35
 188  14739.55
 189  15445.13
 190  15964.03
 191  15291.19
 192  15069.56
 193  15057.47
 194  14747.12
 195  14483.12
 196  15132.17
 197  15859.14
 198  16265.32
 199  15098.41
 200  15044.93
 201  14381.84
 202  14642.41
 203  15359.66
 204  15521.43
 205  14892.49
 206  14405.88
 207  14116.07
 208  14340.1
 209  13980.56
 210  14582.65
 211  15052.74
 212  14892.55
 213  14226.79
 214  14096.57
 215  14035.29
 216  14407.56
 217  14288.27
 218  14524.65
 219  15149.27
 220  15311.08
 221  15436.82
 222  14761.38
 223  14141.33
 224  14653.49
 225  15359.84
 226  15689.8
 227  15371.35
 228  14625.17
 229  14489.12
 230  14040.68
 231  14113.85
 232  14860.63
 233  14905.95
 234  14823.14
 235  14554.85
 236  14207.88
 237  14069.74
 238  14299.45
 239  15194.83
 240  15475.57
 241  14720.77
 242  14323.69
 243  14450.97
 244  13972.08
 245  14377.5
 246  15183.13
 247  15817.78
 248  15591.75
 249  14881.51
 250  15030.18
 251  14572.07
 252  14575.48
 253  15034.12
 254  15604.35
 255  15515.35
 256  14960.9
 257  14533.99
 258  14197.68
 259  13946.26
 260  14342.32
 261  15110.94
 262  15268.51
 263  14678.88
 264  14214.67
 265  13920.41
 266  14107.45
 267  14562.88
 268  15519.29
 269  15383.64
 270  15086.04
 271  14969.16
 272  14838.28
 273  14364.17
 274  14702.86
 275  14769.01
 276  15192.93
 277  14956.26
 278  14929.34
 279  14487.83
 280  13835.5
 281  14303.02
 282  14899.36
 283  15128.02
 284  15116.52
 285  14781.23
 286  15110.75
 287  14851.59
 288  15336.37
 289  16147.86
 290  16111.2
 291  15528.62
 292  15199.3
 293  14921.32
 294  15104.48
 295  15055.27
 296  14885.84
 297  14614.42
 298  14482.35
 299  14175.95
 300  14650.91
 301  14282.67
 302  14877
 303  15065.49
 304  15420.26
 305  15888.21
 306  14810.35
 307  14684.27
 308  14326.78
 309  14428.94
 310  14573.92
 311  14823.22
 312  14957.43
 313  15089.55
 314  14630.88
 315  14112.88
 316  13922.77
 317  14559.56
 318  15455.12
 319  15333.76
 320  15194.43
 321  15296.25
 322  14743.81
 323  14207.77
 324  13615.19
 325  14580.95
 326  14948.85
 327  14260.74
 328  13762.41
 329  14171.7
 330  14976.78
 331  14951.37
 332  14972.54
 333  14986.55
 334  15179.99
 335  14796.86
 336  15392.75
 337  15503.07
 338  15758.7
 339  15990.8
 340  15518.08
 341  15571.31
 342  14960.52
 343  14929.25
 344  15132.97
 345  15396.72
 346  15351.32
 347  15487.87
 348  14959
 349  14897.12
 350  14452.1
 351  14010.95
 352  13745.43
 353  13714.42
 354  14662.83
 355  14657.54
 356  14268.8
 357  14120.7
 358  14241.5
 359  14812.57
 360  15581.6
 361  16009.33
 362  16008.14
 363  15515.05
 364  15198.05
 365  15178.64
 366  14793.76
 367  14821.18
 368  15216.03
 369  15458.53
 370  15513.01
 371  15160.54
 372  14796.28
 373  14581.87
 374  14845.17
 375  15542.77
 376  15397.5
 377  14703.41
 378  14658.84
 379  14435.48
 380  14332.13
 381  14144.02
 382  14467.7
 383  15139.92
 384  14889.14
 385  14789.28
 386  14680.45
 387  14138.81
 388  14403.18
 389  14981.25
 390  15808.62
 391  15897.07
 392  15346.27
 393  15391.22
 394  14659.27
 395  14091.54
 396  14400.02
 397  14551.48
 398  14595.31
 399  14310.21
 400  14046.47
 401  13839.15
 402  13631.38
 403  13785.28
 404  14337.48
 405  13669.67
 406  13467.98
 407  13739.79
 408  13419.62
 409  13391.58
 410  12899.44
 411  13783.43
 412  14660.83
 413  14507.02
 414  14090.52
 415  13626.65
 416  13540.57
 417  14020.16
 418  14130.99
 419  14616.72
 420  14967.58
 421  14817.16
 422  14802.2
 423  14095.54
 424  13992.12
 425  14249.68
 426  14645.43
 427  15177.56
 428  15591.51
 429  15281.58
 430  15308.7
 431  14989.3
 432  15557.03
 433  15825.65
 434  15169.34
 435  14614.4
 436  14230.65
 437  14557.35
 438  14971.44
 439  15206.79
 440  15846.67
 441  15722.25
 442  15394.44
 443  15054.1
 444  14843.11
 445  14709.92
 446  14676.59
 447  14948.99
 448  15088.01
 449  15052.39
 450  14413.82
 451  14305.64
 452  13644.28
 453  14325.51
 454  14895.64
 455  15194.17
 456  15153.1
 457  14518.52
 458  14555.5
 459  14744.55
 460  14699.96
 461  15179.64
 462  14970.81
 463  14741.02
 464  14083.73
 465  13690.63
 466  14143.71
 467  14502.62
 468  15073.5
 469  15702.44
 470  15370.83
 471  14920.97
 472  14853.34
 473  14807.69
 474  14996.5
 475  15235.23
 476  15608.97
 477  15933.39
 478  14592.73
 479  14438.64
 480  14087.54
 481  14378.83
 482  15137.8
 483  15555.36
 484  15428.09
 485  14808.37
 486  14051.2
 487  14028.88
 488  14003.26
 489  14295.96
 490  14873.35
 491  15062.95
 492  14923.13
 493  14855.1
 494  13964.48
 495  13899.14
 496  13553.1
 497  14171.07
 498  14328.54
 499  13435.57
 500  13456.37
 501  13683.26
 502  13727.53
 503  14202.88
 504  14475.59
 505  15018.75
 506  14647.75
 507  14179.24
 508  14505.76
 509  14656.93
 510  14835.3
 511  15191.32
 512  15116.59
 513  15541.34
 514  14879.55
 515  14550.17
 516  14079.4
 517  14181.92
 518  14512.19
 519  14916.01
 520  14515.3
 521  14083.41
 522  14261.81
 523  14576.22
 524  14617.99
 525  14385.04
 526  15237.56
 527  15581.66
 528  14572.49
 529  13921.17
 530  14201.21
 531  14691.38
 532  15444.15
 533  15523.88
 534  15819.35
 535  15278.3
 536  15407.98
 537  15472.21
 538  14982.01
 539  15028.14
 540  15449.38
 541  15558.89
 542  15682.45
 543  15089.76
 544  15614.45
 545  15846.26
 546  15949.73
 547  16355.89
 548  15951.43
 549  15484.01
 550  15068.6
 551  14779.76
 552  14893.32
 553  14893.1
 554  15203.8
 555  15505.02
 556  14962
 557  14629.33
 558  14482.63
 559  13815.87
 560  14408.97
 561  15119.24
 562  16032.83
 563  16111.07
 564  15482.33
 565  15265.14
 566  14537.05
 567  14573.36
 568  15027.83
 569  15380.54
 570  15457.2
 571  15947.55
 572  16032.72
 573  15920.66
 574  15391.96
 575  15334.75
 576  15597.39
 577  15287.87
 578  15213.25
 579  15040.85
 580  14437.34
 581  14996.78
 582  15152.91
 583  15626.32
 584  15715.88
 585  15104.95
 586  14941.33
 587  14631.22
 588  14665.05
 589  15502.61
 590  15749.48
 591  15645.95
 592  14966.04
 593  14584.01
 594  15117.69
 595  15158.24
 596  15121.27
 597  15444.04
 598  14860.16
 599  15235.72
 600  15058.63
 601  14958.2
 602  14551.14
 603  14685.01
 604  15636.73
 605  16187.84
 606  15529.74
 607  14920
 608  14555.68
 609  14709.45
 610  15234.8
 611  15429.31
 612  16099.29
 613  15884.39
 614  15439.29
 615  15298.32
 616  14664.14
 617  14872.26
 618  15061.85
 619  15384.78
 620  15872.14
 621  15728.79
 622  15736.34
 623  14905.45
 624  14287.25
 625  15352.32
 626  15898.96
 627  15943.05
 628  15211.74
 629  14985.21
 630  15194.51
 631  15192.45
 632  15327.72
 633  16330.74
 634  15880.95
 635  15210.29
 636  14829.62
 637  14791.64
 638  15007.27
 639  14525.04
 640  14737.73
 641  14795.94
 642  14146.04
 643  13897.41
 644  13727.88
 645  13384.44
 646  13304.25
 647  13519.9
 648  14204.03
 649  15237.43
 650  15019.43
 651  15086.77
 652  14773.84
 653  15034.53
 654  15707.47
 655  15558.83
 656  14895.55
 657  14609.48
 658  14571.45
 659  14881.85
 660  14716.77
 661  15186.1
 662  16029.71
 663  15612.72
 664  15026.06
 665  14862.25
 666  14444.06
 667  14362.14
 668  14504.78
 669  15305.07
 670  15233.58
 671  14405.52
 672  13462.77
 673  13052.73
 674  12776.93
 675  13715.24
 676  14278.17
 677  15148.28
 678  14725.77
 679  14308.69
 680  14031.63
 681  14633.46
 682  14916.21
 683  15556.82
 684  15015.01
 685  15406.12
 686  14985.79
 687  14562.08
 688  13562.35
 689  13608.67
 690  14411.71
 691  15150.11
 692  14673.31
 693  15248.19
 694  15236.44
 695  14600.18
 696  14273.11
 697  14388.29
 698  15512.41
 699  15418.58
 700  15107.07
 701  14753.41
 702  14214.04
 703  14612.92
 704  15080.07
 705  15418.55
 706  15449.21
 707  15233.58
 708  14893.35
 709  14245.58
 710  13774.73
 711  14371.11
 712  15113.05
 713  15221.7
 714  15415.05
 715  14825.02
 716  14435.38
 717  13802.9
 718  14313.29
 719  15333.9
 720  15534.68
 721  15477.88
 722  15355.75
 723  14585.53
 724  14274.55
 725  14250.75
 726  15033.1
 727  14941.6
 728  14434.78
 729  13973.76
 730  14009.54
 731  13709.6
 732  14293.88
 733  14671.4
 734  15949.61
 735  15838.21
 736  15333.37
 737  14842.63
 738  14901
 739  14688.68
 740  15083.78
 741  15436.35
 742  15638.29
 743  15324.03
 744  14669.39
 745  14675.13
 746  14930.62
 747  15434.46
 748  15634.93
 749  15347.85
 750  15234.85
 751  15424.95
 752  14931.94
 753  15109.76
 754  14580.64
 755  14836.04
 756  14501.34
 757  13861.75
 758  13801.38
 759  14217.81
 760  14720
 761  15409.78
 762  15777.84
 763  16064.42
 764  15748.36
 765  15222.88
 766  15281.79
 767  14895.38
 768  14988.05
 769  15604.92
 770  15230
 771  15190.51
 772  14621.45
 773  15060.83
 774  15138.88
 775  15175.5
 776  15498.71
 777  16087.29
 778  15769.55
 779  15429.72
 780  14960.43
 781  15027.2
 782  15173.22
 783  15349.04
 784  15932.15
 785  15467.9
 786  15038.59
 787  14766.74
 788  14323.84
 789  14305.9
 790  15170.49
 791  15924.12
 792  16501.63
 793  15762.23
 794  15902.61
 795  15152.2
 796  14576.22
 797  14389.83
 798  15104.57
 799  15556.94
 800  15764.53
 801  15287.81
 802  15164.02
 803  14571.12
 804  14693.32
 805  15450.44
 806  15614.48
 807  15250.26
 808  15223.82
 809  14783.6
 810  14587.25
 811  14349.86
 812  14734.76
 813  15087.68
 814  15041.05
 815  15039.47
 816  14852
 817  14531.39
 818  15131.06
 819  15755.4
 820  16233.56
 821  15936.47
 822  15131.96
 823  14751.91
 824  14604.09
 825  14384.95
 826  14881.04
 827  15214.56
 828  15044.25
 829  14538.92
 830  13889.69
 831  14595.25
 832  14560.54
 833  14603.84
 834  14538.66
 835  14265.88
 836  14210.62
 837  13940.69
 838  13678.63
 839  14428.81
 840  14864.28
 841  15202.71
 842  15022.74
 843  14690.75
 844  14688.6
 845  14389.07
 846  14878.26
 847  15486.55
 848  16198.02
 849  16179.25
 850  15512.95
 851  14606.37
 852  14687.81
 853  14851.12
 854  14868.53
 855  14749.92
 856  14292.91
 857  14071.31
 858  14225.31
 859  14184.84
 860  14031.16
 861  13817.05
 862  14668.33
 863  15089.12
 864  14772.29
 865  14968.31
 866  14841.24
 867  15026.97
 868  14753.82
 869  14785.01
 870  14677.41
 871  14439.1
 872  14285.33
 873  14580.08
 874  14308.78
 875  14310.37
 876  14388.86
 877  14419.35
 878  14407.78
 879  14294.57
 880  14580.08
 881  14952.73
 882  14861.28
 883  15419.13
 884  15832.35
 885  15413.92
 886  14900.52
 887  14346.73
 888  14451.29
 889  14193.93
 890  13872.38
 891  14260.02
 892  14391.01
 893  14187.75
 894  14244.71
 895  13759.44
 896  14065.2
 897  14436.54
 898  14917.87
 899  15271.34
 900  14314.69
 901  14344.97
 902  13997.42
 903  14269.38
 904  15005.1
 905  15707.39
 906  15774.33
 907  15272.52
 908  14283.14
 909  14268.84
 910  14380.75
 911  14314.81
 912  14868.06
 913  15159.06
 914  14885.28
 915  14665.21
 916  14295.33
 917  14159.15
 918  13687.57
 919  14177.66
 920  15430.78
 921  14619.16
 922  14443.3
 923  14499.83
 924  14383.26
 925  14922.39
 926  15056.56
 927  15449.6
 928  15078.18
 929  14505.21
 930  14619.44
 931  14358.86
 932  14527.31
 933  14650.3
 934  14723.15
 935  15235.42
 936  15537.13
 937  14995.7
 938  14589.3
 939  14370.45
 940  15053.75
 941  16089.58
 942  16079.83
 943  15783.97
 944  15345.24
 945  14904.32
 946  14596.36
 947  14337.52
 948  15064.66
 949  14917.29
 950  14375.97
 951  14263.49
 952  14572.9
 953  14932.69
 954  15024.99
 955  15302.36
 956  15353.49
 957  14987.93
 958  14445.11
 959  14428.74
 960  14247.53
 961  14611.28
 962  15587.85
 963  15744.65
 964  15616.73
 965  14944.22
 966  15138.39
 967  15105.7
 968  14868.54
 969  15387.41
 970  15366.5
 971  14855.51
 972  14436.08
 973  14518.05
 974  14734.73
 975  14203.29
 976  13996.96
 977  14917.69
 978  15266.72
 979  14668.58
 980  14710.61
 981  14113.11
 982  14499.85
 983  14445.93
 984  15393.36
 985  15605.81
 986  14943.38
 987  14940.87
 988  14575.99
 989  14433.79
 990  14951.76
 991  15785.25
 992  15847.06
 993  15545.1
 994  14837.46
 995  14913.4
 996  14986.42
 997  15355.65
 998  16152.42
 999  15966.7
1000  15614
1001  15364.74
1002  14830.1
1003  14599.89
1004  14157.58
1005  14919.98
1006  15365.35
1007  14768.92
1008  14426.53
1009  14816.11
1010  14918.47
1011  15087.57
1012  15020.39
1013  14975.39
1014  14862.76
1015  14077.72
1016  14254.56
1017  13741.46
1018  13651.78
1019  13590.28
1020  13833.37
1021  13961
1022  13827.07
1023  13442.45
