# Input file       =  1199997843.109079_cleaned.dat
# Candidate        =  PSR_0332+5434
# Telescope        =  AR
# Epoch_topo       =  58132.864144781008
# Epoch_bary       =  N/A
# T_sample         =  0.002
# Data Folded      =  7340032
# Data Avg         =  0.066820470808378
# Data StdDev      =  1.00032629970881 
# Profile Bins     =  512
# Profile Avg      =  957.810081572543 
# Profile StdDev   =  119.772105231671 
# Reduced chi-sqr  =  0.780
# Prob(Noise)      <  1   (~0.0 sigma)
# P_topo (ms)      =  714.566832329142  +/- 0.000322
# P'_topo (s/s)    =  -0                +/- 1.7e-10
# P''_topo (s/s^2) =  0                 +/- 7.49e-14
# P_bary (ms)      =  N/A
# P'_bary (s/s)    =  N/A
# P''_bary (s/s^2) =  N/A
# P_orb (s)        =  N/A
# asin(i)/c (s)    =  N/A
# eccentricity     =  N/A
# w (rad)          =  N/A
# T_peri           =  N/A
######################################################
   0  1344.027
   1  1348.219
   2  1298.965
   3  1128.171
   4  1023.246
   5  930.7849
   6  822.8234
   7  963.2052
   8  998.3605
   9  929.6329
  10  852.0142
  11  949.8774
  12  903.5952
  13  940.9813
  14  1021.465
  15  1075.981
  16  1001.65
  17  1035.254
  18  1010.875
  19  957.9921
  20  1018.76
  21  981.4548
  22  950.8486
  23  885.2275
  24  810.5571
  25  740.8167
  26  875.6047
  27  863.5287
  28  967.8929
  29  968.0123
  30  921.7395
  31  979.1636
  32  979.4298
  33  995.7559
  34  973.6645
  35  994.8028
  36  973.189
  37  968.5185
  38  949.2337
  39  823.767
  40  941.2416
  41  852.5688
  42  905.2786
  43  908.9716
  44  844.5672
  45  945.2068
  46  925.3777
  47  881.685
  48  888.7678
  49  925.5328
  50  918.3131
  51  912.8965
  52  912.2765
  53  981.5222
  54  969.9741
  55  909.3015
  56  989.9918
  57  1022.055
  58  1051.555
  59  1050.182
  60  1001.677
  61  959.1411
  62  861.121
  63  948.704
  64  891.3047
  65  1003.528
  66  916.8644
  67  903.2999
  68  905.9825
  69  872.3566
  70  945.6723
  71  967.6315
  72  853.6414
  73  877.7354
  74  1004.853
  75  1099.199
  76  906.8361
  77  870.1424
  78  989.9717
  79  1010.597
  80  863.4622
  81  853.8871
  82  993.2416
  83  968.2529
  84  843.1058
  85  968.1396
  86  1026.263
  87  1034.38
  88  885.1949
  89  987.433
  90  977.1051
  91  977.4784
  92  952.6234
  93  974.9999
  94  929.4599
  95  931.7167
  96  891.5717
  97  894.3394
  98  837.2976
  99  858.7023
 100  912.2476
 101  998.1658
 102  965.6581
 103  927.1895
 104  1019.893
 105  974.6799
 106  961.1337
 107  903.0108
 108  890.2433
 109  803.798
 110  828.4576
 111  979.6538
 112  928.5541
 113  936.2122
 114  919.9353
 115  895.032
 116  854.6706
 117  848.059
 118  932.4388
 119  937.0214
 120  950.6518
 121  950.2423
 122  913.7759
 123  926.547
 124  942.8438
 125  1099.899
 126  1043.376
 127  954.6587
 128  908.5518
 129  927.1753
 130  983.9209
 131  918.5474
 132  1007.187
 133  952.6055
 134  963.6823
 135  930.5689
 136  925.3869
 137  909.1412
 138  928.4859
 139  1010.337
 140  986.6512
 141  938.784
 142  1022.543
 143  1069.953
 144  967.9673
 145  983.8464
 146  999.4784
 147  981.7209
 148  870.7017
 149  935.235
 150  865.31
 151  815.7566
 152  835.1978
 153  1031.685
 154  990.5227
 155  955.7291
 156  971.5104
 157  916.4756
 158  892.9462
 159  946.3369
 160  1025.35
 161  994.9473
 162  976.067
 163  978.2153
 164  925.2977
 165  957.9192
 166  1011.961
 167  985.1806
 168  973.3983
 169  1043.054
 170  922.8528
 171  887.3836
 172  948.3162
 173  949.5338
 174  995.2431
 175  1028.526
 176  992.933
 177  915.7377
 178  1000.07
 179  1137.198
 180  1082.284
 181  1111.618
 182  948.6008
 183  986.9061
 184  1010.932
 185  924.3393
 186  889.0197
 187  891.7732
 188  937.6797
 189  939.6353
 190  986.4044
 191  954.5444
 192  952.5997
 193  927.2559
 194  963.3663
 195  1041.738
 196  985.299
 197  1031.345
 198  1003.043
 199  936.7601
 200  950.0533
 201  982.5778
 202  1024.048
 203  999.5726
 204  981.1177
 205  1021.911
 206  1014.856
 207  971.5677
 208  1005.922
 209  913.3328
 210  833.2356
 211  904.4872
 212  926.8079
 213  990.3791
 214  928.3304
 215  884.8705
 216  1028.881
 217  905.4442
 218  999.8749
 219  1044.003
 220  980.572
 221  958.7153
 222  951.6309
 223  1008.955
 224  941.1982
 225  1013.5
 226  1103.189
 227  933.1152
 228  921.1249
 229  1045.608
 230  1074.189
 231  1055.738
 232  1058.836
 233  1133.757
 234  966.5858
 235  903.1026
 236  901.4881
 237  884.8637
 238  889.741
 239  863.9863
 240  894.8088
 241  924.2151
 242  961.2655
 243  946.7471
 244  904.5923
 245  978.3131
 246  1032.073
 247  1070.021
 248  1063.596
 249  971.2823
 250  928.0552
 251  1030.738
 252  945.1762
 253  936.1789
 254  935.9316
 255  984.9446
 256  979.9636
 257  1030.906
 258  1073.072
 259  1065.166
 260  993.1857
 261  1033.918
 262  941.1025
 263  1040.872
 264  972.1648
 265  966.2852
 266  911.8676
 267  1008.179
 268  1070.34
 269  1009.231
 270  949.016
 271  1024.334
 272  1042.71
 273  982.202
 274  884.9426
 275  966.5535
 276  897.7195
 277  896.2737
 278  876.0631
 279  821.8588
 280  848.605
 281  880.3762
 282  917.9089
 283  890.1742
 284  848.9585
 285  924.1337
 286  929.3069
 287  881.2318
 288  907.2839
 289  969.2811
 290  1015.41
 291  875.0478
 292  850.9559
 293  817.5287
 294  881.065
 295  952.5598
 296  931.5799
 297  918.4438
 298  922.3
 299  869.0663
 300  947.6268
 301  971.6399
 302  990.0079
 303  950.1981
 304  956.6354
 305  1047.148
 306  923.8262
 307  932.9374
 308  997.2961
 309  903.7327
 310  909.0826
 311  916.029
 312  1019.44
 313  929.4187
 314  909.9461
 315  940.6462
 316  902.0666
 317  946.85
 318  1011.464
 319  1027.035
 320  950.4577
 321  849.6388
 322  956.7593
 323  955.3022
 324  996.877
 325  1006.465
 326  952.4863
 327  861.5362
 328  1012.445
 329  1120.83
 330  1079.131
 331  1024.63
 332  1075.899
 333  1003.127
 334  922.6839
 335  1012.308
 336  992.8745
 337  967.2177
 338  1043.807
 339  975.5485
 340  950.9484
 341  1005.493
 342  982.4297
 343  934.785
 344  962.7434
 345  973.7999
 346  887.9114
 347  918.5265
 348  909.3771
 349  923.4554
 350  865.0164
 351  911.4984
 352  892.8094
 353  930.9978
 354  960.4758
 355  1082.519
 356  945.9933
 357  998.8107
 358  1086.446
 359  1030.145
 360  944.8464
 361  929.0432
 362  957.6631
 363  995.9061
 364  896.2587
 365  916.1157
 366  931.6112
 367  867.4614
 368  925.0977
 369  969.4435
 370  1000.796
 371  948.3097
 372  942.9901
 373  1004.173
 374  1006.19
 375  1001.936
 376  949.7001
 377  933.6844
 378  1020.404
 379  1021.634
 380  969.8661
 381  870.6568
 382  885.1216
 383  918.5978
 384  935.3599
 385  870.4526
 386  875.0059
 387  927.1663
 388  916.6906
 389  891.6827
 390  967.0458
 391  870.7866
 392  963.1682
 393  863.6153
 394  847.9683
 395  911.1791
 396  903.5058
 397  905.9538
 398  915.1308
 399  903.0873
 400  969.7123
 401  936.9382
 402  900.986
 403  866.2183
 404  887.6076
 405  845.7758
 406  860.0721
 407  888.0464
 408  947.3098
 409  909.9023
 410  814.1574
 411  986.6514
 412  1062.274
 413  1029.861
 414  955.3246
 415  944.3991
 416  881.8398
 417  797.4056
 418  919.0696
 419  1048.015
 420  1030.284
 421  922.5723
 422  820.9081
 423  925.2648
 424  982.3211
 425  936.9607
 426  894.428
 427  981.2946
 428  898.7318
 429  925.0754
 430  924.0588
 431  920.2141
 432  918.0213
 433  1030.635
 434  945.6822
 435  896.676
 436  1022.486
 437  936.5794
 438  917.1824
 439  900.8137
 440  1008.095
 441  1044.938
 442  940.0629
 443  814.7061
 444  872.5506
 445  914.0825
 446  964.4828
 447  898.3781
 448  870.7248
 449  920.0582
 450  882.9478
 451  878.8293
 452  889.4846
 453  896.3038
 454  1110.669
 455  1033.297
 456  863.7903
 457  907.5129
 458  921.9208
 459  963.8469
 460  1032.314
 461  1039.957
 462  1039.48
 463  939.7819
 464  757.2324
 465  961.8367
 466  945.5239
 467  997.3454
 468  997.2695
 469  1082.652
 470  1043.249
 471  925.5228
 472  980.8148
 473  966.1386
 474  1011.204
 475  962.0712
 476  938.5303
 477  1004.335
 478  962.0475
 479  873.6928
 480  875.6629
 481  908.173
 482  949.5862
 483  875.6711
 484  924.0106
 485  937.357
 486  979.0151
 487  1083.596
 488  1091.55
 489  1064.188
 490  915.0637
 491  968.6792
 492  1000.195
 493  991.4653
 494  996.4296
 495  950.2401
 496  899.2568
 497  972.5113
 498  1001.671
 499  908.1071
 500  863.8183
 501  1081.367
 502  1061.469
 503  1102.618
 504  1095.851
 505  1123.761
 506  1117.029
 507  1146.483
 508  1200.832
 509  1228.117
 510  1299.698
 511  1313.479
