# Input file       =  1199738862.105873_cleaned.dat
# Candidate        =  PSR_0332+5434
# Telescope        =  AR
# Epoch_topo       =  58129.866679466126
# Epoch_bary       =  N/A
# T_sample         =  0.002
# Data Folded      =  7340032
# Data Avg         =  0.0926563424411478
# Data StdDev      =  1.00005309412127 
# Profile Bins     =  512
# Profile Avg      =  1328.30620887668 
# Profile StdDev   =  119.73939349712  
# Reduced chi-sqr  =  0.731
# Prob(Noise)      <  1   (~0.0 sigma)
# P_topo (ms)      =  714.56469944783   +/- 9.16e-05
# P'_topo (s/s)    =  -0                +/- 4.83e-11
# P''_topo (s/s^2) =  0                 +/- 2.13e-14
# P_bary (ms)      =  N/A
# P'_bary (s/s)    =  N/A
# P''_bary (s/s^2) =  N/A
# P_orb (s)        =  N/A
# asin(i)/c (s)    =  N/A
# eccentricity     =  N/A
# w (rad)          =  N/A
# T_peri           =  N/A
######################################################
   0  1566.275
   1  1695.901
   2  1594.721
   3  1399.114
   4  1298.597
   5  1228.353
   6  1248.467
   7  1224.153
   8  1208.963
   9  1273.245
  10  1273.021
  11  1258.91
  12  1278.725
  13  1324.522
  14  1354.551
  15  1383.569
  16  1396.591
  17  1236.151
  18  1172.231
  19  1210.94
  20  1276.072
  21  1199.225
  22  1132.282
  23  1285.85
  24  1316.625
  25  1376.244
  26  1397.737
  27  1411.349
  28  1352.206
  29  1290.477
  30  1340.847
  31  1297.471
  32  1262.609
  33  1340.015
  34  1321
  35  1323.499
  36  1344.427
  37  1317.327
  38  1324.364
  39  1317.211
  40  1289.273
  41  1328.335
  42  1329.623
  43  1242.116
  44  1286.094
  45  1318.779
  46  1302.036
  47  1239.502
  48  1269.404
  49  1425.187
  50  1357.563
  51  1357.668
  52  1345.312
  53  1249.182
  54  1232.255
  55  1288.169
  56  1346.973
  57  1344.203
  58  1407.053
  59  1458.298
  60  1239.211
  61  1199.386
  62  1226.448
  63  1202.186
  64  1331.287
  65  1309.208
  66  1336.383
  67  1235.829
  68  1263.05
  69  1246.993
  70  1245.756
  71  1293.208
  72  1332.075
  73  1414.036
  74  1351.627
  75  1332.517
  76  1352.851
  77  1374.837
  78  1359.823
  79  1374.514
  80  1496.493
  81  1345.117
  82  1290.276
  83  1219.914
  84  1386.269
  85  1341.252
  86  1353.929
  87  1412.771
  88  1268.446
  89  1282.815
  90  1333.268
  91  1360.696
  92  1217.346
  93  1370.646
  94  1412.943
  95  1305.888
  96  1252.908
  97  1250.624
  98  1321.45
  99  1349.099
 100  1197.918
 101  1317.92
 102  1361.89
 103  1374.861
 104  1379.742
 105  1320.597
 106  1375.92
 107  1424.316
 108  1531.714
 109  1496.187
 110  1319.01
 111  1360.445
 112  1401.438
 113  1344.005
 114  1344.228
 115  1402.025
 116  1313.713
 117  1270.504
 118  1240.753
 119  1262.801
 120  1314.306
 121  1260.66
 122  1247.827
 123  1276.754
 124  1357.254
 125  1366.826
 126  1332.277
 127  1341.58
 128  1284.808
 129  1257.73
 130  1252.462
 131  1272.552
 132  1356.111
 133  1351.84
 134  1273.007
 135  1305.483
 136  1243.833
 137  1228.954
 138  1362.678
 139  1372.174
 140  1361.807
 141  1361.728
 142  1346.171
 143  1298.459
 144  1293.114
 145  1358.07
 146  1295.118
 147  1209.267
 148  1299.686
 149  1394.247
 150  1272.715
 151  1347.617
 152  1362.201
 153  1342.193
 154  1349.091
 155  1399.51
 156  1408.146
 157  1288.805
 158  1204.922
 159  1261.024
 160  1335.456
 161  1296.258
 162  1185.253
 163  1262.043
 164  1391.614
 165  1319.121
 166  1293.504
 167  1313.848
 168  1306.357
 169  1331.851
 170  1331.388
 171  1377.325
 172  1356.658
 173  1299.415
 174  1397.82
 175  1377.368
 176  1379.028
 177  1333.799
 178  1284.615
 179  1349.258
 180  1404.884
 181  1436.833
 182  1334.706
 183  1255.95
 184  1371.251
 185  1333.896
 186  1411.646
 187  1478.029
 188  1451.167
 189  1394.126
 190  1239.475
 191  1177.436
 192  1243.544
 193  1214.232
 194  1176.63
 195  1207.842
 196  1303.275
 197  1273.155
 198  1228.28
 199  1281.648
 200  1324.513
 201  1343.804
 202  1403.162
 203  1285.873
 204  1272.107
 205  1341.777
 206  1347.946
 207  1335.247
 208  1285.584
 209  1421.271
 210  1311.098
 211  1312.326
 212  1321.384
 213  1342.478
 214  1400.325
 215  1502.558
 216  1424.994
 217  1445.526
 218  1442.186
 219  1363.701
 220  1343.157
 221  1405.759
 222  1453.056
 223  1368.712
 224  1399.758
 225  1396.626
 226  1300.312
 227  1342.118
 228  1382.317
 229  1412.648
 230  1343.873
 231  1437.537
 232  1416.959
 233  1443.379
 234  1370.257
 235  1409.376
 236  1414.397
 237  1352.985
 238  1420.747
 239  1474.683
 240  1336.563
 241  1306.242
 242  1417.022
 243  1436.86
 244  1345.569
 245  1301.846
 246  1360.418
 247  1344.413
 248  1300.438
 249  1381.537
 250  1279.693
 251  1282.211
 252  1366.525
 253  1248.068
 254  1271.863
 255  1373.698
 256  1322.314
 257  1335.933
 258  1338.34
 259  1380.201
 260  1365.291
 261  1407.241
 262  1334.109
 263  1254.204
 264  1213.61
 265  1180.048
 266  1228.013
 267  1263.473
 268  1298.195
 269  1272.91
 270  1285.444
 271  1316.46
 272  1291.72
 273  1261.717
 274  1266.165
 275  1230.682
 276  1306.786
 277  1301.621
 278  1309.745
 279  1273.249
 280  1338.038
 281  1391.54
 282  1326.84
 283  1307.326
 284  1331.116
 285  1219.409
 286  1205.605
 287  1196.91
 288  1246.182
 289  1356.289
 290  1319.152
 291  1308.436
 292  1364.099
 293  1323.156
 294  1320.661
 295  1371.969
 296  1311.206
 297  1337.187
 298  1356.91
 299  1269.984
 300  1317.596
 301  1335.984
 302  1340.959
 303  1325.399
 304  1314.635
 305  1390.115
 306  1390.668
 307  1295.305
 308  1231.242
 309  1325.886
 310  1261.381
 311  1084.949
 312  1190.102
 313  1413.955
 314  1363.592
 315  1328.472
 316  1318.435
 317  1251.213
 318  1179.674
 319  1309.344
 320  1320.847
 321  1346.008
 322  1217.669
 323  1231.287
 324  1214.601
 325  1250.838
 326  1279.872
 327  1387.648
 328  1380.128
 329  1291.428
 330  1291.298
 331  1326.382
 332  1379.76
 333  1334.474
 334  1276.422
 335  1364.162
 336  1247.56
 337  1165.443
 338  1294.551
 339  1328.11
 340  1349.942
 341  1295.592
 342  1266.955
 343  1326.799
 344  1365.357
 345  1375.109
 346  1394.613
 347  1391.176
 348  1401.381
 349  1376.885
 350  1382.155
 351  1300.344
 352  1432.267
 353  1465.623
 354  1381.649
 355  1321.294
 356  1306.433
 357  1281.514
 358  1234.554
 359  1264.95
 360  1276.163
 361  1297.341
 362  1321.662
 363  1312.951
 364  1274.286
 365  1195.043
 366  1282.493
 367  1427.34
 368  1414.578
 369  1301.253
 370  1262.162
 371  1312.331
 372  1281.453
 373  1246.516
 374  1352.735
 375  1429.211
 376  1318.801
 377  1401.429
 378  1445.63
 379  1343.183
 380  1213.517
 381  1297.6
 382  1323.635
 383  1292.535
 384  1318.19
 385  1379.592
 386  1372.179
 387  1317.414
 388  1281.282
 389  1247.835
 390  1279.449
 391  1180.962
 392  1238.971
 393  1177.618
 394  1170.657
 395  1243.657
 396  1185.421
 397  1201.888
 398  1279.76
 399  1316.061
 400  1262.088
 401  1290.577
 402  1297.695
 403  1278.86
 404  1206.627
 405  1299.72
 406  1366.129
 407  1323.602
 408  1367.322
 409  1301.751
 410  1186.043
 411  1285.403
 412  1256.416
 413  1249.391
 414  1193.36
 415  1291.245
 416  1314.613
 417  1330.191
 418  1183.534
 419  1279.891
 420  1347.308
 421  1345.273
 422  1318.877
 423  1290.348
 424  1357.111
 425  1324.239
 426  1250.639
 427  1287.813
 428  1335.62
 429  1304.496
 430  1385.323
 431  1396.3
 432  1377.157
 433  1356.216
 434  1268.772
 435  1425.641
 436  1371.812
 437  1325.834
 438  1404.299
 439  1356.619
 440  1367.802
 441  1336.845
 442  1415.658
 443  1446.805
 444  1423.408
 445  1392.518
 446  1335.687
 447  1346.579
 448  1366.354
 449  1452.569
 450  1415.13
 451  1345.839
 452  1329.924
 453  1526.715
 454  1341.771
 455  1426.57
 456  1536.595
 457  1441.424
 458  1370.517
 459  1348.093
 460  1357.784
 461  1383.433
 462  1346.298
 463  1381.282
 464  1426.653
 465  1350.973
 466  1323.63
 467  1416.912
 468  1350.584
 469  1317.504
 470  1317.451
 471  1338.783
 472  1338.384
 473  1373.71
 474  1439.504
 475  1423.867
 476  1286.774
 477  1309.139
 478  1407.925
 479  1337.535
 480  1345.252
 481  1430.698
 482  1386.639
 483  1324.885
 484  1351.462
 485  1324.74
 486  1269.086
 487  1371.472
 488  1313.583
 489  1225.473
 490  1303.758
 491  1371.057
 492  1340.375
 493  1342.196
 494  1384.402
 495  1354.113
 496  1283.46
 497  1276.212
 498  1353.846
 499  1469.595
 500  1384.599
 501  1368.445
 502  1435.908
 503  1469.14
 504  1341.661
 505  1286.898
 506  1382.924
 507  1409.013
 508  1411.337
 509  1525.479
 510  1613.716
 511  1559.314
