# Input file       =  1199623241.089426_cleaned.dat
# Candidate        =  PSR_0332+5434
# Telescope        =  AR
# Epoch_topo       =  58128.528473257247
# Epoch_bary       =  N/A
# T_sample         =  0.002
# Data Folded      =  7143424
# Data Avg         =  0.492125366144781
# Data StdDev      =  7.27855702158779 
# Profile Bins     =  512
# Profile Avg      =  6866.46095810424 
# Profile StdDev   =  859.732852460505 
# Reduced chi-sqr  =  0.732
# Prob(Noise)      <  1   (~0.0 sigma)
# P_topo (ms)      =  714.563361540802  +/- 3.1e-05
# P'_topo (s/s)    =  -0                +/- 1.68e-11
# P''_topo (s/s^2) =  0                 +/- 7.62e-15
# P_bary (ms)      =  N/A
# P'_bary (s/s)    =  N/A
# P''_bary (s/s^2) =  N/A
# P_orb (s)        =  N/A
# asin(i)/c (s)    =  N/A
# eccentricity     =  N/A
# w (rad)          =  N/A
# T_peri           =  N/A
######################################################
   0  6715.446
   1  6483.356
   2  7002.586
   3  6666.766
   4  7072.469
   5  7722.317
   6  7261.069
   7  7865.533
   8  6981.085
   9  7218.816
  10  6364.215
  11  6372.742
  12  6947.41
  13  7608.407
  14  7733.023
  15  6129.593
  16  7239
  17  6823.893
  18  6469.551
  19  6289.31
  20  7036.933
  21  6607.457
  22  6461.237
  23  6590.978
  24  6110.415
  25  6170.029
  26  6323.718
  27  6874.14
  28  6541.895
  29  6380.156
  30  7016.065
  31  6546.142
  32  7055.509
  33  7339.066
  34  7645.619
  35  6872.758
  36  6744.766
  37  6631.198
  38  6719.21
  39  6759.811
  40  7377.767
  41  8676.751
  42  7770.071
  43  6939.043
  44  6193.166
  45  7166.425
  46  7145.462
  47  7110.745
  48  7462
  49  7102.369
  50  6860.938
  51  6284.89
  52  6849.132
  53  6967.539
  54  7332.135
  55  6895.017
  56  6802.807
  57  7260.266
  58  6746.932
  59  7099.265
  60  7378.943
  61  7542.468
  62  7190.282
  63  6858.224
  64  6706.038
  65  6317.535
  66  7045.395
  67  6925.581
  68  6654.399
  69  6221.563
  70  6584.423
  71  6476.364
  72  6806.405
  73  7003.423
  74  7298.341
  75  7336.729
  76  6983.904
  77  7529.823
  78  7046.986
  79  6600.262
  80  6648.526
  81  7114.868
  82  7603.644
  83  7047.198
  84  7496.778
  85  6590.88
  86  6133.407
  87  6006
  88  7020.596
  89  6518.729
  90  6869.903
  91  7534.148
  92  7252.164
  93  7188.481
  94  6929.792
  95  7886.741
  96  6926.911
  97  6594.439
  98  6753.15
  99  7425.559
 100  7772.789
 101  6310.581
 102  6489.377
 103  6402.787
 104  6693.277
 105  6223.458
 106  6794.029
 107  7246.634
 108  7296.329
 109  7438.614
 110  6884.786
 111  6966.148
 112  6376.522
 113  6812.437
 114  6846.146
 115  6742.608
 116  6720.704
 117  6137.382
 118  6226.22
 119  5883.684
 120  6746.391
 121  6200.383
 122  6222.364
 123  6867.269
 124  6726.867
 125  6728.899
 126  6542.032
 127  7743.167
 128  7582.375
 129  7646.945
 130  6973.802
 131  6958.831
 132  6144.852
 133  5342.639
 134  5870.712
 135  6486.786
 136  6997.622
 137  5846.408
 138  5804.237
 139  5660.743
 140  6230.269
 141  6339.167
 142  6313.09
 143  6265.712
 144  6189.704
 145  6814.996
 146  6740.704
 147  6812.264
 148  7139.283
 149  7516.983
 150  6500.99
 151  6250.921
 152  7293.116
 153  7083.789
 154  7794.377
 155  7196.181
 156  7684.442
 157  7651.195
 158  7427.524
 159  7289.205
 160  6625.571
 161  7822.085
 162  6987.676
 163  6793.189
 164  6516.574
 165  6588.889
 166  6952.832
 167  6366.328
 168  6642.611
 169  6426.528
 170  7042.402
 171  6293.258
 172  6284.927
 173  6911.688
 174  7183.447
 175  7253.091
 176  6429.267
 177  6411.775
 178  6113.156
 179  6537.965
 180  6549.556
 181  6888.852
 182  7118.067
 183  6966.123
 184  6972.064
 185  6392.89
 186  6627.168
 187  6059.968
 188  6608.982
 189  6820.388
 190  7545.283
 191  7612.623
 192  6969.997
 193  6616.657
 194  6611.109
 195  7182.643
 196  6506.722
 197  6818.683
 198  7122.034
 199  7412.019
 200  6814.167
 201  6385.849
 202  6948.983
 203  6566.45
 204  6893.743
 205  6393.035
 206  6916.965
 207  6763.571
 208  6707.386
 209  6827.336
 210  7293.09
 211  7285.407
 212  6798.752
 213  6899.157
 214  6617.054
 215  6911.916
 216  6660.939
 217  6772.19
 218  6795.872
 219  7217.647
 220  7357.829
 221  6341.272
 222  6285.404
 223  6237.226
 224  6053.79
 225  5652.243
 226  6106.383
 227  7642.305
 228  7491.402
 229  6930.966
 230  6294.217
 231  7126.714
 232  6776.891
 233  6010.531
 234  5481.229
 235  6041.649
 236  6525.099
 237  5952.23
 238  6310.266
 239  6528.648
 240  7328.17
 241  7117.456
 242  7196.842
 243  7875.991
 244  7862.783
 245  7844.361
 246  6544.794
 247  6908.072
 248  7210.701
 249  7209.729
 250  6100.955
 251  6494.395
 252  6484.746
 253  6283.368
 254  6800.837
 255  6392.128
 256  7058.615
 257  7278.864
 258  7297.011
 259  6844.996
 260  6665.612
 261  6864.594
 262  6239.991
 263  7297.178
 264  6989.338
 265  6602.2
 266  6173.126
 267  6631.709
 268  6266.226
 269  7108.932
 270  6616.782
 271  6184.261
 272  7194.254
 273  6510.204
 274  7082.161
 275  6340.647
 276  7061.693
 277  6850.678
 278  6790.913
 279  7281.688
 280  6019.277
 281  6171.669
 282  5785.003
 283  6293.291
 284  6185.753
 285  6318.487
 286  6705.064
 287  5763.402
 288  5961.269
 289  6217.583
 290  6666.942
 291  6445.643
 292  6969.422
 293  7478.074
 294  7172.083
 295  7081.402
 296  6661.013
 297  7374.753
 298  7241.513
 299  7281.433
 300  6737.144
 301  7111.082
 302  6952.742
 303  7249.789
 304  7351.428
 305  7342.208
 306  8448.499
 307  8284.496
 308  8441.259
 309  9320.634
 310  9987.178
 311  8978.917
 312  7164.066
 313  7580.56
 314  7044.289
 315  7273.745
 316  6330.52
 317  7085.221
 318  7545.634
 319  6714.502
 320  6487.424
 321  6375.435
 322  6772.184
 323  7326.001
 324  7430.276
 325  7408.123
 326  7389.292
 327  7192.683
 328  7251.105
 329  6817.997
 330  5800.687
 331  6879.215
 332  5878.218
 333  5954.042
 334  6326.252
 335  7074.027
 336  7173.778
 337  7108.346
 338  7645.008
 339  7711.097
 340  7251.022
 341  6536.691
 342  7323.044
 343  7425.353
 344  7233.827
 345  7395.325
 346  6971.771
 347  6606.688
 348  6623.106
 349  6964.715
 350  6187.491
 351  7101.953
 352  7097.122
 353  6924.999
 354  6735.66
 355  6933.749
 356  7242.253
 357  6315.852
 358  6976.745
 359  6502.667
 360  7109.956
 361  6748.124
 362  6560.655
 363  6782.632
 364  7070.699
 365  7259.526
 366  6380.74
 367  7043.379
 368  6704.187
 369  7074.624
 370  6465.184
 371  6603.178
 372  7149.443
 373  7245.952
 374  7732.197
 375  7141.555
 376  7319.59
 377  6032.15
 378  6135.774
 379  6306.652
 380  6603.959
 381  7130.602
 382  6843.654
 383  6740.654
 384  6571.462
 385  6622.636
 386  5832.328
 387  6456.247
 388  7166.858
 389  6840.316
 390  6259.445
 391  6778.883
 392  7407.64
 393  7257.491
 394  7417.51
 395  6796.088
 396  6851.729
 397  6411.921
 398  6172.088
 399  6888.92
 400  6957.825
 401  7447.646
 402  6610.763
 403  6830.714
 404  6679.488
 405  6599.804
 406  6531.137
 407  6737.416
 408  8179.25
 409  7818.124
 410  7886.297
 411  6948.964
 412  6940.226
 413  6436.394
 414  6763.966
 415  6304.814
 416  6260.228
 417  7418.807
 418  6586.498
 419  6896.406
 420  6815.267
 421  7755.494
 422  7804.331
 423  7449.583
 424  7201.456
 425  6756.409
 426  7493.472
 427  6968.121
 428  7108.033
 429  7427.919
 430  7479.204
 431  6667.488
 432  6413.172
 433  6659.87
 434  6816.489
 435  7126.792
 436  6565.772
 437  6940.551
 438  6937.873
 439  7233.219
 440  7286.063
 441  6723.769
 442  7130.654
 443  7042.331
 444  7097.981
 445  7014.577
 446  6721.545
 447  7078.499
 448  6985.361
 449  7001.242
 450  6865.716
 451  6474.967
 452  5811.438
 453  6369.621
 454  6227.44
 455  6745.846
 456  6509.224
 457  6606.501
 458  6960.964
 459  7015.137
 460  7432.055
 461  7024.462
 462  7447.721
 463  6571.81
 464  6445
 465  5820.345
 466  5477.996
 467  6658.977
 468  6444.663
 469  6221.454
 470  6363.191
 471  7318.836
 472  7304.106
 473  7098.056
 474  7648.646
 475  7060.261
 476  7072.373
 477  7020.343
 478  7379.494
 479  6922.093
 480  7306.138
 481  6991.227
 482  7077.053
 483  6755.431
 484  6671.89
 485  7369.143
 486  6579.841
 487  6788.785
 488  6035.664
 489  6982.779
 490  7086.169
 491  7225.948
 492  7755.529
 493  7418.212
 494  6813.079
 495  6669.717
 496  7037.781
 497  6078.459
 498  6164.478
 499  6865.888
 500  6559.225
 501  6555.576
 502  6277.488
 503  7296.823
 504  6873.201
 505  6914.72
 506  6384.769
 507  6980.601
 508  7513.92
 509  6909.286
 510  7453.086
 511  6910.178
