# Input file       =  1199967776.101105_cleaned.dat
# Candidate        =  PSR_0332+5434
# Telescope        =  AR
# Epoch_topo       =  58132.516147003531
# Epoch_bary       =  N/A
# T_sample         =  0.002
# Data Folded      =  7405568
# Data Avg         =  0.114776884557976
# Data StdDev      =  4.00797601654488 
# Profile Bins     =  512
# Profile Avg      =  1659.79401746592 
# Profile StdDev   =  482.024730673037 
# Reduced chi-sqr  =  0.606
# Prob(Noise)      <  1   (~0.0 sigma)
# P_topo (ms)      =  714.566229387426  +/- 6.26e-05
# P'_topo (s/s)    =  -0                +/- 3.27e-11
# P''_topo (s/s^2) =  0                 +/- 1.43e-14
# P_bary (ms)      =  N/A
# P'_bary (s/s)    =  N/A
# P''_bary (s/s^2) =  N/A
# P_orb (s)        =  N/A
# asin(i)/c (s)    =  N/A
# eccentricity     =  N/A
# w (rad)          =  N/A
# T_peri           =  N/A
######################################################
   0  1541.554
   1  1560.452
   2  1646.62
   3  1669.277
   4  1801.904
   5  1964.489
   6  1657.409
   7  1436.86
   8  1728.819
   9  1706.168
  10  1425.981
  11  1388.961
  12  1715.328
  13  1922.365
  14  1840.294
  15  2130.044
  16  1888.357
  17  1766.264
  18  2061.605
  19  1687.506
  20  1630.026
  21  1500.559
  22  1283.382
  23  1218.149
  24  1422.844
  25  1643.307
  26  2008.175
  27  1979.398
  28  1904.891
  29  1618.584
  30  1056.237
  31  1002.913
  32  1280.587
  33  1364.768
  34  1871.705
  35  1893.748
  36  2040.613
  37  2106.051
  38  1660.066
  39  1513.517
  40  1456.808
  41  1392.868
  42  1721.281
  43  1601.978
  44  1500.196
  45  1606.516
  46  1685.956
  47  1959.753
  48  2159.127
  49  2230.743
  50  2245.492
  51  2017.336
  52  1663.656
  53  1571.002
  54  1605.384
  55  1597.134
  56  1807.339
  57  1650.673
  58  1461.792
  59  1715.296
  60  1716.877
  61  1653.288
  62  1587.197
  63  1666.175
  64  1491.451
  65  1363.457
  66  1560.999
  67  1449.039
  68  1350.933
  69  1720.614
  70  1712.119
  71  1923.4
  72  1422.237
  73  1269.248
  74  1434.718
  75  1261.264
  76  1430.441
  77  1253.33
  78  1575.356
  79  1936.219
  80  2002.025
  81  1906.874
  82  1675.579
  83  1396.295
  84  1607.304
  85  1439.029
  86  1396.86
  87  1367.309
  88  1471.719
  89  1739.505
  90  1653.611
  91  1854.718
  92  2096.353
  93  1590.615
  94  1740.534
  95  1416.969
  96  1157.314
  97  1149.354
  98  1643.492
  99  1895.347
 100  1711.554
 101  1942.534
 102  1831.258
 103  1627.67
 104  1775.35
 105  1574.075
 106  1363.619
 107  1396.167
 108  1623.26
 109  1695.89
 110  1688.438
 111  1756.708
 112  1716.053
 113  1609.348
 114  1653.994
 115  1526.251
 116  998.9963
 117  1186.866
 118  1706.351
 119  1582.538
 120  1484.367
 121  1701.412
 122  1732.338
 123  1714.699
 124  1792.287
 125  2049.738
 126  1812.051
 127  1100.522
 128  1428.255
 129  1618.787
 130  1369.372
 131  1703.611
 132  1861.455
 133  1933.897
 134  1606.914
 135  1377.8
 136  1817.535
 137  1457.121
 138  1385.805
 139  1144.814
 140  858.7798
 141  1419.834
 142  1426.566
 143  1626.831
 144  1471.417
 145  1367.983
 146  2084.062
 147  1689.014
 148  1551.64
 149  977.6144
 150  1268.233
 151  1290.032
 152  1479.715
 153  1716.703
 154  1658.921
 155  1744.022
 156  1535.169
 157  1737.091
 158  1577.858
 159  1338.451
 160  1221.206
 161  1345.45
 162  1753.924
 163  1534.615
 164  1784.417
 165  1837.577
 166  1753.178
 167  1618.972
 168  1654.712
 169  1294.71
 170  1246.099
 171  1243.761
 172  1523.053
 173  1646.104
 174  1752.541
 175  2079.118
 176  1647.337
 177  1679.849
 178  1598.175
 179  1460.717
 180  1484.397
 181  1486.454
 182  1387.561
 183  1589.161
 184  1459.927
 185  1479.184
 186  1662.545
 187  1671.96
 188  1641.275
 189  1471.91
 190  1251.176
 191  1410.018
 192  1227.74
 193  1282.74
 194  1503.154
 195  1650.663
 196  1671.978
 197  1762.275
 198  1871.75
 199  2050.196
 200  1885.563
 201  1568.473
 202  1404.661
 203  1653.161
 204  1524.971
 205  1627.175
 206  1709.514
 207  1682.318
 208  1653.619
 209  1869.976
 210  1791.746
 211  1781.191
 212  1659.846
 213  1259.953
 214  1408.703
 215  1396.113
 216  1243.179
 217  1476.095
 218  1536.963
 219  1719.968
 220  1686.223
 221  1259.582
 222  1177.245
 223  1434.14
 224  1653.344
 225  1672.027
 226  1532.152
 227  1797.298
 228  1755.414
 229  1801.198
 230  1994.884
 231  1997.725
 232  1813.368
 233  1684.529
 234  1731.312
 235  1504.551
 236  1696.014
 237  1817.973
 238  2154.642
 239  2311.181
 240  2385.585
 241  2686.498
 242  2775.502
 243  3150.848
 244  2988.327
 245  2692.501
 246  2152.899
 247  1674.329
 248  1871.897
 249  1759.259
 250  1697.941
 251  1477.795
 252  1443.441
 253  1551.907
 254  1259.125
 255  1506.435
 256  1419.648
 257  1315.886
 258  1560.518
 259  1641.39
 260  1693.551
 261  1950.94
 262  1931.003
 263  1527.307
 264  1871.562
 265  1575.199
 266  1814.614
 267  1371.759
 268  1288.981
 269  1811.255
 270  1655.054
 271  1647.026
 272  1570.505
 273  1729.245
 274  2013.061
 275  1365.633
 276  1291.01
 277  1617.14
 278  1559.825
 279  1536.63
 280  1599.584
 281  1353.925
 282  1467.459
 283  1514.761
 284  1438.527
 285  1594.627
 286  1762.546
 287  1607.573
 288  1227.875
 289  1433.962
 290  1898.945
 291  1915.578
 292  1816.087
 293  1628.217
 294  1707.206
 295  1785.997
 296  1742.967
 297  1709.243
 298  1761.82
 299  1556.974
 300  1496.47
 301  1667.264
 302  1836.603
 303  2122.515
 304  2053.245
 305  1665.058
 306  1913.79
 307  1837.628
 308  1760.744
 309  1501.111
 310  1489.841
 311  1577.993
 312  1764.097
 313  1844.004
 314  1944.518
 315  1995.294
 316  2078.285
 317  1940.327
 318  1485.563
 319  1810.157
 320  1762.334
 321  1899.183
 322  1696.075
 323  1719.597
 324  1805.924
 325  1627.938
 326  1512.167
 327  1754.264
 328  1784.792
 329  1509.976
 330  1339.361
 331  1544.496
 332  1188.874
 333  1287.097
 334  1915.263
 335  2164.771
 336  2322.787
 337  1954.279
 338  1918.184
 339  1745.588
 340  1379.125
 341  1217.817
 342  1600.587
 343  1713.595
 344  1968.472
 345  1953.73
 346  1932.534
 347  1906.283
 348  1824.915
 349  1844.973
 350  1532.802
 351  1585.392
 352  1659.965
 353  1505.694
 354  1470.827
 355  1508.405
 356  1599.929
 357  1649.409
 358  1895.621
 359  1739.253
 360  1344.977
 361  1515.36
 362  1133.224
 363  1202.172
 364  1366.779
 365  1178.267
 366  1584.324
 367  1566.025
 368  1821.851
 369  1861.697
 370  1938.126
 371  1921.677
 372  1651.558
 373  1596.809
 374  1475.953
 375  1549.519
 376  1860.654
 377  1854.338
 378  1761.133
 379  1690.845
 380  1845.64
 381  1641.956
 382  1524.633
 383  1682.174
 384  1266.592
 385  1191.523
 386  1381.592
 387  1780.188
 388  1903.487
 389  1872.715
 390  1903.791
 391  1818.704
 392  1734.703
 393  1731.719
 394  1465.945
 395  1319.638
 396  1350.172
 397  1809.227
 398  1933.782
 399  1722.114
 400  2046.414
 401  1980.968
 402  1943.39
 403  1622.278
 404  1604.213
 405  1550.538
 406  1276.641
 407  1444.845
 408  1625.685
 409  1614.767
 410  1870.417
 411  1848.051
 412  1890.098
 413  1823.718
 414  1503.361
 415  1266.189
 416  1297.191
 417  1459.413
 418  1835.421
 419  1567.479
 420  1834.938
 421  1891.844
 422  2186.332
 423  1847.291
 424  1563.015
 425  1255.699
 426  1647.508
 427  1881.832
 428  1620.562
 429  1737.966
 430  1589.301
 431  1775.74
 432  1775.972
 433  1347.62
 434  1560.535
 435  1401.122
 436  1618.762
 437  1357.689
 438  1230.576
 439  1405.582
 440  1309.247
 441  1482.267
 442  1830.252
 443  2104.263
 444  2038.997
 445  2017.455
 446  1788.261
 447  1700.857
 448  1390.962
 449  1720.008
 450  1702.556
 451  1380.021
 452  1534.716
 453  1667.081
 454  2164.8
 455  1957.293
 456  1718.686
 457  2071.166
 458  1794.151
 459  1611.721
 460  1526.507
 461  1384.438
 462  1866.281
 463  2129.9
 464  1965.204
 465  2076.761
 466  1820.159
 467  1834.726
 468  1418.295
 469  1089.885
 470  1328.229
 471  1505.987
 472  1802.816
 473  1624.127
 474  1848.381
 475  1803.481
 476  1962.205
 477  1660.217
 478  1712.799
 479  1471.513
 480  1495.346
 481  1611.126
 482  1517.767
 483  1663.005
 484  2180.266
 485  2023.809
 486  1979.036
 487  1707.212
 488  1654.748
 489  1607.385
 490  1603.851
 491  1743.755
 492  1893.594
 493  1845.679
 494  1497.688
 495  2011.763
 496  1854.35
 497  2018.126
 498  1693.678
 499  1446.173
 500  1334.815
 501  1656.832
 502  1775.838
 503  1782.404
 504  1892.466
 505  1560.11
 506  1444.572
 507  1645.25
 508  2013.612
 509  1944.862
 510  1888.823
 511  1501.204
