# Input file       =  1199825015.109469_cleaned.dat
# Candidate        =  PSR_0332+5434
# Telescope        =  AR
# Epoch_topo       =  58130.863820711449
# Epoch_bary       =  N/A
# T_sample         =  0.002
# Data Folded      =  7340032
# Data Avg         =  0.165260218390488
# Data StdDev      =  3.59450350267288 
# Profile Bins     =  1024
# Profile Avg      =  1184.57727872666 
# Profile StdDev   =  304.325195354337 
# Reduced chi-sqr  =  0.787
# Prob(Noise)      <  1   (~0.0 sigma)
# P_topo (ms)      =  714.565419434918  +/- 6.24e-05
# P'_topo (s/s)    =  -0                +/- 3.29e-11
# P''_topo (s/s^2) =  0                 +/- 1.45e-14
# P_bary (ms)      =  N/A
# P'_bary (s/s)    =  N/A
# P''_bary (s/s^2) =  N/A
# P_orb (s)        =  N/A
# asin(i)/c (s)    =  N/A
# eccentricity     =  N/A
# w (rad)          =  N/A
# T_peri           =  N/A
######################################################
   0  1095.676
   1  1115.993
   2  1013.493
   3  1097.06
   4  1141.142
   5  1101.454
   6  1149.536
   7  1200.668
   8  1138.493
   9  1190.105
  10  1265.84
  11  1294.075
  12  1196.981
  13  910.3996
  14  904.4249
  15  872.9017
  16  1049.89
  17  1130.712
  18  1136.923
  19  1113.043
  20  1194.413
  21  1116.817
  22  1088.993
  23  900.3185
  24  883.6836
  25  1095.181
  26  1176.558
  27  1225.729
  28  1202.982
  29  1152.526
  30  1077.342
  31  974.5112
  32  1063.367
  33  1094.646
  34  1164.568
  35  1213.264
  36  1326.514
  37  1268.97
  38  1208.497
  39  1121.537
  40  1108.993
  41  1120.034
  42  1110.673
  43  1091.649
  44  1021.668
  45  1008.612
  46  1184.038
  47  1345.661
  48  1391.331
  49  1367.703
  50  1312.098
  51  1271.79
  52  1194.91
  53  1180.764
  54  1183.978
  55  1200.363
  56  1226.973
  57  1215.871
  58  1215.045
  59  1158.49
  60  1127.661
  61  1023.832
  62  917.8143
  63  951.0635
  64  989.1677
  65  1044.545
  66  1051.403
  67  1200.866
  68  1246.189
  69  1218.27
  70  1012.363
  71  1037.517
  72  1147.842
  73  1165.155
  74  1184.25
  75  1124.509
  76  1094.552
  77  1038.663
  78  913.4399
  79  988.7197
  80  941.3226
  81  1041.488
  82  1100.727
  83  1077.888
  84  1223.574
  85  1291.691
  86  1340.182
  87  1316.87
  88  1265.873
  89  1360.757
  90  1406.084
  91  1276.247
  92  1114.244
  93  1118.064
  94  1148.263
  95  1196.684
  96  1242.236
  97  1363.857
  98  1382.037
  99  1138.307
 100  1182.042
 101  1305.313
 102  1416.7
 103  1432.021
 104  1264.715
 105  1347.61
 106  1387.301
 107  1306.292
 108  1246.64
 109  1163.662
 110  1206.799
 111  1321.057
 112  1246.613
 113  1293.972
 114  1217.033
 115  1175.445
 116  1143.756
 117  1091.884
 118  1247.632
 119  1261.943
 120  1396.494
 121  1335.664
 122  1234.83
 123  1081.798
 124  1168.08
 125  1352.811
 126  1401.81
 127  1314.588
 128  1185.182
 129  1110.056
 130  1132.955
 131  1203.99
 132  1321.063
 133  1438.38
 134  1394.972
 135  1313.779
 136  1255.555
 137  1168.887
 138  1022.498
 139  935.5477
 140  946.7806
 141  1040.609
 142  1187.855
 143  1315.251
 144  1225.466
 145  1219.341
 146  1306.39
 147  1301.944
 148  1175.995
 149  1124.257
 150  1248.756
 151  1172.818
 152  1180.163
 153  1083.484
 154  1149.814
 155  1086.852
 156  1094.135
 157  1246.296
 158  1185.084
 159  1204.494
 160  1334.498
 161  1489.498
 162  1437.888
 163  1348.181
 164  1168.486
 165  1207.052
 166  1043.229
 167  1106.358
 168  1049.273
 169  1071.677
 170  1100.57
 171  1134.78
 172  1120.007
 173  1104.039
 174  1064.242
 175  1044.237
 176  1046.223
 177  839.6594
 178  895.8213
 179  982.33
 180  1120.237
 181  1202.785
 182  1200.064
 183  1160.583
 184  1077.375
 185  944.1453
 186  1121.027
 187  1177.738
 188  1143.132
 189  1174.609
 190  1202.559
 191  1344.021
 192  1268.469
 193  1155.618
 194  1081.072
 195  1033.538
 196  1115.491
 197  1095.464
 198  1169.716
 199  1199.533
 200  1330.01
 201  1204.171
 202  1168.542
 203  1249.461
 204  1261.152
 205  1118.025
 206  855.6644
 207  901.9828
 208  990.4741
 209  1024.127
 210  1022.632
 211  1071.74
 212  1155.39
 213  1241.819
 214  1330.086
 215  1298.326
 216  1259.702
 217  1217.786
 218  1268.318
 219  1344.952
 220  1348.42
 221  1400.368
 222  1369.588
 223  1237.27
 224  1120.038
 225  1093.415
 226  1152.178
 227  1109.623
 228  1317.163
 229  1511.609
 230  1611.75
 231  1459.176
 232  1394.592
 233  1403.144
 234  1260.234
 235  1203.938
 236  1104.511
 237  1185.176
 238  1163.546
 239  1266.823
 240  1505.477
 241  1544.797
 242  1334.498
 243  1211.046
 244  1189.525
 245  1283.355
 246  1348.384
 247  1387.815
 248  1320.942
 249  1289.7
 250  1280.631
 251  1307.19
 252  1119.986
 253  1075.781
 254  1168.26
 255  1245.576
 256  1368.546
 257  1351.418
 258  1206.937
 259  1119.323
 260  1021.747
 261  1229.339
 262  1267.813
 263  1199.358
 264  1219.385
 265  1214.711
 266  1203.874
 267  1177.423
 268  1267.635
 269  1321.87
 270  1224.333
 271  1075.847
 272  1157.034
 273  1155.273
 274  1076.546
 275  1156.211
 276  1207.647
 277  1267.062
 278  1150.421
 279  1002.097
 280  988.4844
 281  854.1552
 282  926.2048
 283  917.8198
 284  857.3783
 285  847.3603
 286  1071.664
 287  1151.546
 288  1128.089
 289  1132.268
 290  1184.219
 291  1142.105
 292  962.154
 293  1018.535
 294  1119.158
 295  1202.619
 296  1200.939
 297  1229.069
 298  1214.643
 299  1194.652
 300  1056.052
 301  1074.313
 302  1060.519
 303  1120.552
 304  1111.039
 305  1184.758
 306  1195.487
 307  1315.77
 308  1311.643
 309  1144.927
 310  997.5922
 311  980.9995
 312  1034.199
 313  1058.971
 314  1131.064
 315  1113.82
 316  1198.237
 317  1338.019
 318  1403.947
 319  1274.65
 320  1032.132
 321  1028.391
 322  990.5082
 323  1040.011
 324  1103.799
 325  1187.516
 326  1132.607
 327  1030.586
 328  946.0433
 329  1007.835
 330  902.4844
 331  932.5685
 332  1085.727
 333  1226.659
 334  1233.148
 335  1160.456
 336  1058.153
 337  1144.037
 338  1040.296
 339  1121.703
 340  1122.05
 341  1220.62
 342  1314.276
 343  1358.827
 344  1246.943
 345  1126.486
 346  1097.196
 347  1208.159
 348  1250.463
 349  1159.384
 350  1167.607
 351  1292.123
 352  1333.769
 353  1439.264
 354  1388.184
 355  1349.585
 356  1245.839
 357  1131.332
 358  1218.285
 359  1113.178
 360  1129.071
 361  1200.05
 362  1258.827
 363  1276.499
 364  1286.378
 365  1248.177
 366  1262.408
 367  1217.167
 368  1176.81
 369  1210.728
 370  1149.867
 371  1111.53
 372  1213.362
 373  1243.361
 374  1358.951
 375  1298.857
 376  1417.319
 377  1263.021
 378  1244.53
 379  1159.166
 380  1305.852
 381  1331.378
 382  1412.867
 383  1262.838
 384  1092.784
 385  932.4324
 386  910.4597
 387  845.5361
 388  934.8705
 389  1086.748
 390  1192.279
 391  1219.303
 392  1110.051
 393  1171.526
 394  1251.541
 395  1213.204
 396  1147.672
 397  1139.462
 398  1173.802
 399  1157.978
 400  1207.865
 401  1292.842
 402  1282.414
 403  1272.563
 404  1270.538
 405  1276.345
 406  1047.734
 407  1043.726
 408  1112.215
 409  1163.595
 410  1116.964
 411  1158.105
 412  1356.263
 413  1393.437
 414  1363.294
 415  1382.216
 416  1403.5
 417  1327.975
 418  1393.12
 419  1406.141
 420  1544.13
 421  1458.435
 422  1371.288
 423  1242.16
 424  1180.743
 425  1126.385
 426  1260.29
 427  1272.316
 428  1351.426
 429  1336.021
 430  1212.051
 431  1157.608
 432  1150.976
 433  1260.194
 434  1235.414
 435  940.4695
 436  900.5928
 437  866.0151
 438  869.1226
 439  916.764
 440  1067.998
 441  1195.658
 442  1278.22
 443  1203.333
 444  1223.535
 445  1176.671
 446  1273.664
 447  1420.018
 448  1520.212
 449  1428.634
 450  1408.39
 451  1215.119
 452  1108.712
 453  993.5823
 454  1075.444
 455  1138.076
 456  1128.951
 457  1060.645
 458  1043.157
 459  974.3806
 460  1031.587
 461  1082.602
 462  1066.467
 463  1065.042
 464  1007.652
 465  964.7
 466  910.5129
 467  799.1473
 468  823.1089
 469  949.2068
 470  1191.665
 471  1122.625
 472  1082.759
 473  992.9865
 474  992.4689
 475  1029.463
 476  1056.477
 477  1174.524
 478  1154.964
 479  1139.846
 480  1104.872
 481  1064.016
 482  1074.776
 483  1215.324
 484  1195.716
 485  1288.519
 486  1254.755
 487  1347.985
 488  1354.286
 489  1353.371
 490  1314.247
 491  1364.533
 492  1333.938
 493  1382.071
 494  1243.164
 495  1147.641
 496  1156.335
 497  1165.175
 498  1140.638
 499  1066.187
 500  1026.186
 501  1053.467
 502  959.6127
 503  961.1924
 504  1042.288
 505  1151.673
 506  1225.57
 507  1309.324
 508  1244.763
 509  1251.017
 510  1071.201
 511  1124.971
 512  1152.927
 513  1151.212
 514  1269.139
 515  1291.484
 516  1180.232
 517  1104.825
 518  1113.29
 519  1275.144
 520  1204.3
 521  977.4116
 522  1066.218
 523  1153.844
 524  1124.138
 525  1067.887
 526  1083.035
 527  1231.012
 528  1191.988
 529  1129.687
 530  1225.755
 531  1248.994
 532  1296.893
 533  1323.251
 534  1253.864
 535  1106.094
 536  1017.667
 537  1012.726
 538  1117.029
 539  1132.16
 540  1178.874
 541  1152.747
 542  1156.682
 543  1203.382
 544  1261.224
 545  1220.488
 546  1212.832
 547  1336.762
 548  1413.412
 549  1282.235
 550  1168.633
 551  1070.225
 552  1095.838
 553  1076.499
 554  1146.394
 555  1184.868
 556  1101.882
 557  1106.951
 558  1089.225
 559  1125.086
 560  1218.546
 561  1313.743
 562  1429.872
 563  1438.71
 564  1363.285
 565  1276.002
 566  1126.047
 567  966.9547
 568  916.8912
 569  1007.974
 570  1051.879
 571  1067.103
 572  1038.306
 573  1047.028
 574  1148.813
 575  1240.175
 576  1377.656
 577  1271.957
 578  1233.327
 579  1289.4
 580  1294.318
 581  1156.314
 582  1096.468
 583  1084.672
 584  1095.417
 585  1074.928
 586  981.8329
 587  1112.048
 588  1113.888
 589  1155.363
 590  1241.507
 591  1234.289
 592  1219.062
 593  1139.72
 594  1174.098
 595  1254.372
 596  1162.586
 597  1057.787
 598  991.5328
 599  920.0566
 600  1031.525
 601  1159.688
 602  1187.74
 603  1189.355
 604  1237.59
 605  1391.281
 606  1360.798
 607  1305.413
 608  1401.974
 609  1516.343
 610  1489.556
 611  1413.51
 612  1431.178
 613  1537.923
 614  1581.435
 615  1576.82
 616  1645.726
 617  1703.599
 618  1772.748
 619  1944.506
 620  1865.069
 621  1869.384
 622  1852.735
 623  1739.068
 624  1511.421
 625  1369.419
 626  1385.458
 627  1384.813
 628  1375.235
 629  1377.333
 630  1394.157
 631  1260.643
 632  1360.169
 633  1472.448
 634  1652.21
 635  1524.678
 636  1375.766
 637  1362.977
 638  1443.228
 639  1366.129
 640  1298.982
 641  1251.003
 642  1282.698
 643  1243.977
 644  1191.617
 645  1023.518
 646  1055.01
 647  1182.659
 648  1342.561
 649  1311.793
 650  1265.088
 651  1313.428
 652  1403.017
 653  1310.801
 654  1226.562
 655  1235.313
 656  1195.091
 657  1158.169
 658  1198.763
 659  1242.692
 660  1266.212
 661  1248.208
 662  1324.36
 663  1303.395
 664  1115.8
 665  1161.108
 666  1132.456
 667  1132.524
 668  1078.215
 669  1129.045
 670  1239.05
 671  1287.758
 672  1354.452
 673  1424.918
 674  1289.841
 675  1193.731
 676  1269.394
 677  1329.923
 678  1357.201
 679  1311.109
 680  1250.801
 681  1317.091
 682  1265.166
 683  1302.138
 684  1333.373
 685  1292.451
 686  1292.684
 687  1192.557
 688  1154.064
 689  1151.34
 690  1172.842
 691  1309.458
 692  1318.089
 693  1218.401
 694  1304.166
 695  1285.841
 696  1360.976
 697  1275.766
 698  1332.315
 699  1390.892
 700  1353.138
 701  1191.313
 702  1116.328
 703  1191.44
 704  1314.602
 705  1504.055
 706  1502.198
 707  1599.468
 708  1563.684
 709  1489.214
 710  1376.24
 711  1337.68
 712  1370.4
 713  1494.024
 714  1397.839
 715  1338.425
 716  1207.701
 717  1220.893
 718  1215.961
 719  1294.792
 720  1248.065
 721  1132.177
 722  1058.098
 723  1199.174
 724  1276.875
 725  1137.138
 726  1142.188
 727  1144.446
 728  1214.482
 729  1163.648
 730  1176.727
 731  1115.959
 732  1169.408
 733  1220.526
 734  1415.157
 735  1419.879
 736  1344.265
 737  1178.292
 738  1104.212
 739  1040.872
 740  961.9988
 741  1014.194
 742  1039.599
 743  1192.348
 744  1220.52
 745  1217.174
 746  1103.317
 747  1151.449
 748  1278.682
 749  1404.659
 750  1251.3
 751  1270.545
 752  1263.472
 753  1219.533
 754  1264.431
 755  1242.861
 756  1273.564
 757  1247.046
 758  1083.314
 759  1149.921
 760  1053.545
 761  1223.749
 762  1325.506
 763  1457.973
 764  1468.371
 765  1469.934
 766  1340.76
 767  1295.01
 768  1168.313
 769  1136.987
 770  1148.316
 771  1081.378
 772  1173.815
 773  1188.951
 774  1072.714
 775  1079.742
 776  1210.124
 777  1402.954
 778  1412.798
 779  1268.686
 780  1206.761
 781  1119.188
 782  1148.013
 783  1264.018
 784  1366.793
 785  1367.609
 786  1210.303
 787  1099.15
 788  1104.742
 789  1113.532
 790  1136.917
 791  1155.929
 792  1176.417
 793  1217.184
 794  1345.086
 795  1214.164
 796  1190.021
 797  1234.306
 798  1222.102
 799  1080.328
 800  949.9609
 801  985.2328
 802  1114.999
 803  977.8029
 804  941.7672
 805  1012.959
 806  1084.608
 807  1054.597
 808  839.6107
 809  916.3967
 810  1050.662
 811  1085.139
 812  1138.429
 813  1096.176
 814  1157.888
 815  1164.384
 816  1192.172
 817  1075.91
 818  988.417
 819  1063.404
 820  1160.998
 821  1218.498
 822  1197.502
 823  1212.627
 824  1233.684
 825  1165.419
 826  1106.784
 827  981.2902
 828  946.9413
 829  901.6113
 830  929.6895
 831  952.4027
 832  977.3321
 833  1099.865
 834  1158.482
 835  1132.082
 836  1004.337
 837  1026.505
 838  1117.6
 839  1196.925
 840  1309.2
 841  1182.087
 842  1169.981
 843  1094.385
 844  1132.066
 845  1138.169
 846  1124.136
 847  1097.287
 848  935.8407
 849  794.4999
 850  848.8687
 851  1111.163
 852  1159.601
 853  1108.451
 854  1010.553
 855  1019.805
 856  1154.091
 857  1038.752
 858  1118.952
 859  1149.567
 860  1106.59
 861  1191.822
 862  1137.865
 863  1218.604
 864  1122.964
 865  983.5858
 866  1027.394
 867  1054.338
 868  1039.645
 869  1079.676
 870  1163.565
 871  1274.563
 872  1271.747
 873  1153.188
 874  1135.187
 875  1027.285
 876  1086.603
 877  1240.972
 878  1271.265
 879  1217.049
 880  1169.189
 881  1192.054
 882  1252.771
 883  1280.97
 884  1199.969
 885  1153.964
 886  1026.605
 887  998.8169
 888  1020.35
 889  1133.706
 890  1230.33
 891  1260.517
 892  1187.901
 893  1198.296
 894  1170.447
 895  1226.335
 896  1261.295
 897  1238.206
 898  1285.886
 899  1225.814
 900  1100.943
 901  1052.652
 902  974.4038
 903  930.9425
 904  890.9787
 905  1003.765
 906  1132.316
 907  1286.952
 908  1411.627
 909  1435.78
 910  1335.364
 911  1199.49
 912  1125.76
 913  1072.296
 914  1026.796
 915  1095.851
 916  1141.847
 917  1110.852
 918  1015.695
 919  865.2211
 920  833.7103
 921  800.7104
 922  760.808
 923  851.5208
 924  979.0447
 925  1097.026
 926  1208.041
 927  1315.26
 928  1298.998
 929  1205.283
 930  1031.487
 931  1050.573
 932  985.2377
 933  945.3163
 934  1046.554
 935  1094.569
 936  1287.24
 937  1283.453
 938  1368.291
 939  1318.799
 940  1236.715
 941  1251.908
 942  1262.945
 943  1126.034
 944  1017.038
 945  1010.783
 946  1064.547
 947  998.6876
 948  990.3383
 949  1093.216
 950  1211.927
 951  1153.583
 952  1112.383
 953  1263.041
 954  1331.124
 955  1349.893
 956  1171.079
 957  1103.324
 958  1134.59
 959  1139.277
 960  1216.8
 961  1226.844
 962  1196.513
 963  1274.985
 964  1153.192
 965  1064.147
 966  1095.161
 967  1125.903
 968  1197.586
 969  1259.331
 970  1475.671
 971  1414.806
 972  1220.835
 973  1139.336
 974  1240.136
 975  1212.566
 976  1235.277
 977  1271.213
 978  1324.966
 979  1299.774
 980  1115.234
 981  1034.477
 982  1005.325
 983  1070.551
 984  1304.402
 985  1437.038
 986  1287.173
 987  1137.964
 988  1099.807
 989  1216.854
 990  1188.713
 991  1210.379
 992  1188.955
 993  1144.396
 994  1214.18
 995  1185.672
 996  1232.235
 997  1121.421
 998  1198.85
 999  1193.673
1000  1063.282
1001  1003.848
1002  985.4926
1003  965.2843
1004  909.0447
1005  1022.439
1006  1160.66
1007  1296.518
1008  1129.759
1009  1152.395
1010  979.2574
1011  933.3135
1012  982.9366
1013  1118.604
1014  1165.212
1015  982.4491
1016  999.2116
1017  1058.093
1018  992.2922
1019  941.3589
1020  1039.011
1021  1062.531
1022  1076.483
1023  1134.192
