# Input file       =  1199537139.093935_cleaned.dat
# Candidate        =  PSR_0332+5434
# Telescope        =  AR
# Epoch_topo       =  58127.531922383510
# Epoch_bary       =  N/A
# T_sample         =  0.002
# Data Folded      =  7143424
# Data Avg         =  0.779652071302896
# Data StdDev      =  9.52745172709907 
# Profile Bins     =  1024
# Profile Avg      =  5436.06367138417 
# Profile StdDev   =  795.756130238108 
# Reduced chi-sqr  =  0.402
# Prob(Noise)      <  1   (~0.0 sigma)
# P_topo (ms)      =  714.562611662369  +/- 8.59e-05
# P'_topo (s/s)    =  -0                +/- 4.66e-11
# P''_topo (s/s^2) =  0                 +/- 2.11e-14
# P_bary (ms)      =  N/A
# P'_bary (s/s)    =  N/A
# P''_bary (s/s^2) =  N/A
# P_orb (s)        =  N/A
# asin(i)/c (s)    =  N/A
# eccentricity     =  N/A
# w (rad)          =  N/A
# T_peri           =  N/A
######################################################
   0  5101.278
   1  5061.743
   2  5350.6
   3  5187.65
   4  5171.986
   5  5222.292
   6  5421.735
   7  5630.56
   8  5675.307
   9  6250.097
  10  6126.59
  11  5901.078
  12  5529.79
  13  5399.233
  14  5229.67
  15  5202.746
  16  5282.749
  17  5387.153
  18  5307.16
  19  5238.601
  20  5232.189
  21  5280.979
  22  5275.107
  23  5524.259
  24  5704.186
  25  5653.386
  26  5585.482
  27  5491.926
  28  5367.477
  29  5138.108
  30  5227.25
  31  5369.261
  32  5199.225
  33  5389.649
  34  5291.791
  35  5436.762
  36  5435.188
  37  5681.189
  38  5656.917
  39  5495.126
  40  5493.098
  41  5686.205
  42  5558.284
  43  5309.52
  44  5290.98
  45  5661.387
  46  5783.531
  47  5753.165
  48  5554.507
  49  5516.747
  50  5198.905
  51  5171.933
  52  5189.637
  53  5134.204
  54  5169.122
  55  5231.416
  56  5354.552
  57  5517.215
  58  5393.92
  59  5722.038
  60  5360.365
  61  5365.53
  62  5205.636
  63  5226.395
  64  5379.367
  65  5424.914
  66  5660.623
  67  5890.196
  68  5683.757
  69  5589.872
  70  5355.809
  71  5153.658
  72  5158.688
  73  5239.277
  74  5429.672
  75  5761.879
  76  5857.962
  77  5900.352
  78  5502.804
  79  5274.378
  80  5398.39
  81  5647.64
  82  5655.853
  83  5441.705
  84  5263.393
  85  5262.217
  86  5218.293
  87  5300.061
  88  5402.438
  89  5089.765
  90  5051.413
  91  5310.376
  92  5521.109
  93  5336.081
  94  4886.722
  95  5109.225
  96  5302.857
  97  5369.594
  98  5339.397
  99  5380.02
 100  5443.402
 101  5465.38
 102  5345.449
 103  5173.552
 104  5043.957
 105  5126.377
 106  5280.716
 107  5115.955
 108  5023.854
 109  5172.488
 110  5275.873
 111  5005.483
 112  5159.271
 113  5426.607
 114  5598.662
 115  5692.405
 116  5897.688
 117  6164.853
 118  6044.484
 119  6067.299
 120  5932.36
 121  5567.172
 122  5467.969
 123  5452.762
 124  5697.024
 125  5476.245
 126  5521.844
 127  5708.093
 128  5512.512
 129  5374.779
 130  5180.385
 131  5422.457
 132  5668.202
 133  5697.552
 134  5808.229
 135  5907.014
 136  5920.303
 137  5887.833
 138  5854.01
 139  5430.512
 140  5439.763
 141  5472.116
 142  6025.985
 143  5935.568
 144  5660.529
 145  5594.614
 146  5565.994
 147  5743.735
 148  5867.116
 149  5632.938
 150  5494.701
 151  5180.312
 152  5137.013
 153  5037.911
 154  5216.51
 155  5436.144
 156  5645.232
 157  5436.257
 158  5419.871
 159  5235.548
 160  5216.751
 161  5050.113
 162  5254.791
 163  5445.252
 164  5499.395
 165  5291.753
 166  5283.054
 167  5297.67
 168  5182.952
 169  5155.723
 170  5606.619
 171  5901.034
 172  5726.277
 173  5420.869
 174  5510.067
 175  5243.544
 176  5097.693
 177  5278.12
 178  5406.379
 179  5334.501
 180  5405.938
 181  5467.572
 182  5314.134
 183  5167.401
 184  5448.685
 185  5405.979
 186  5054.292
 187  4843.578
 188  4728.82
 189  4883.413
 190  5101.58
 191  5321.803
 192  5534.494
 193  5426.728
 194  5396.081
 195  5503.091
 196  5427.157
 197  5336.692
 198  5211.854
 199  5249.233
 200  5415.389
 201  5261.494
 202  5391.011
 203  5316.7
 204  5160.738
 205  5094.624
 206  5265.887
 207  5432.252
 208  5609.406
 209  5520.32
 210  5835.172
 211  5740.381
 212  5685.235
 213  5624.648
 214  5409.88
 215  5264.941
 216  5330.613
 217  5206.622
 218  5257.381
 219  4947.464
 220  5437.94
 221  5440.49
 222  5282.646
 223  4978.1
 224  5063.704
 225  4731.472
 226  4699.345
 227  4836.667
 228  5476.536
 229  5538.343
 230  5788.649
 231  5767.905
 232  5897.963
 233  5683.577
 234  5641.832
 235  5556.929
 236  5604.687
 237  5586.629
 238  5562.312
 239  5688.971
 240  5680.299
 241  5758.724
 242  5706.509
 243  5662.279
 244  5435.484
 245  5374.29
 246  5375.625
 247  5798.591
 248  6044.599
 249  6054.523
 250  5973.471
 251  5755.921
 252  5826.558
 253  5447.508
 254  4980.203
 255  4911.557
 256  5138.541
 257  5657.219
 258  5641.045
 259  5456.52
 260  5586.389
 261  5604.875
 262  5570.657
 263  5473.273
 264  5305.863
 265  5316.264
 266  5378.701
 267  5678.078
 268  5702.694
 269  5373.635
 270  5512.967
 271  5578.68
 272  5558.71
 273  5748.25
 274  5761.035
 275  5769.769
 276  5481.381
 277  5508.472
 278  5471.588
 279  5370.159
 280  5371.712
 281  5540.007
 282  5488.866
 283  5183.813
 284  4919.995
 285  4987.144
 286  5194.251
 287  5204.546
 288  5272.439
 289  5247.522
 290  5216.154
 291  5153.601
 292  5093.453
 293  5193.785
 294  5340.169
 295  5449.196
 296  5240.848
 297  5210.788
 298  5244.087
 299  5418.618
 300  5098.867
 301  5162.412
 302  5298.595
 303  5671.992
 304  5336.123
 305  5486.134
 306  5720.82
 307  5988.437
 308  5729.316
 309  5416.813
 310  5391.237
 311  5147.115
 312  5267.66
 313  5169.1
 314  5316.498
 315  5346.319
 316  5270.021
 317  5313.039
 318  4777.704
 319  4645.742
 320  4827.889
 321  5197.958
 322  5273.334
 323  5107.747
 324  5269.144
 325  5555.443
 326  5654.926
 327  5635.937
 328  5514.424
 329  5347.832
 330  5288.534
 331  5164.332
 332  5259.036
 333  5321.843
 334  5458.64
 335  5632.453
 336  5729.012
 337  5627.562
 338  5808.846
 339  5525.873
 340  5558.32
 341  5409.846
 342  5314.436
 343  5150.27
 344  5093.969
 345  5197.397
 346  5429.261
 347  5625.433
 348  5804.081
 349  5864.38
 350  5655.042
 351  5293.846
 352  5150.542
 353  5344.446
 354  5610.915
 355  5513.871
 356  5423.667
 357  4946.885
 358  4917.603
 359  5059.995
 360  5372.29
 361  5375.406
 362  5825.071
 363  6200.626
 364  6092.074
 365  5435.525
 366  5144.561
 367  5362.468
 368  5378.646
 369  5177.164
 370  4920.593
 371  4900.398
 372  5138.94
 373  5392.038
 374  5659.493
 375  5589.027
 376  5683.243
 377  5918.068
 378  6063.315
 379  6016.909
 380  5864.767
 381  5887.057
 382  5622.178
 383  5422.389
 384  5298.304
 385  5373.166
 386  5429.945
 387  5305.492
 388  5128.021
 389  4945.631
 390  5013.873
 391  4866.23
 392  5077.845
 393  5170.636
 394  5214.879
 395  5219.802
 396  5466.042
 397  5399.335
 398  5432.141
 399  5246.046
 400  5454.388
 401  5576.275
 402  5616.882
 403  5640.32
 404  5482.146
 405  5604.223
 406  5735.604
 407  5326.017
 408  4995.098
 409  4720.661
 410  5073.978
 411  5263.288
 412  5613.843
 413  5984.885
 414  6091.131
 415  5807.102
 416  5774.491
 417  5839.046
 418  5767.569
 419  5788.278
 420  5606.002
 421  5509.011
 422  5406.096
 423  5528.419
 424  5641.13
 425  5291.441
 426  4973.313
 427  5065.052
 428  5411.517
 429  5691.624
 430  5815.848
 431  6000.787
 432  6181.579
 433  5757.899
 434  5480.915
 435  5481.877
 436  5507.146
 437  5325.583
 438  5218.382
 439  5319.947
 440  5369.065
 441  5544.305
 442  5659.829
 443  5660.633
 444  5282.364
 445  5469.87
 446  5559.095
 447  5449.226
 448  5173.269
 449  5351.498
 450  5542.112
 451  5515.227
 452  5325.609
 453  5617.146
 454  5535.78
 455  5233.793
 456  5014.013
 457  5157.648
 458  5383.789
 459  5230.378
 460  5321.276
 461  5563.003
 462  5435.377
 463  5561.721
 464  5126.595
 465  4994.148
 466  4861.852
 467  5253.354
 468  5622.752
 469  5531.852
 470  5565.324
 471  5677.986
 472  5279.906
 473  5151.004
 474  5239.652
 475  5392.476
 476  5487.465
 477  5642.722
 478  5997.616
 479  5755.14
 480  5195.823
 481  5205.339
 482  5233.505
 483  5254.501
 484  5156.01
 485  5309.579
 486  5560.653
 487  5438.176
 488  5231.188
 489  5070.26
 490  5129.336
 491  5335.379
 492  5394.505
 493  5352.724
 494  5176.06
 495  5132.179
 496  5227.409
 497  5716.741
 498  5787.907
 499  5763.238
 500  5142.669
 501  5231.958
 502  5430.013
 503  5791.941
 504  5861.941
 505  5652.494
 506  5863.369
 507  5818.84
 508  5479.048
 509  4976.512
 510  5088.977
 511  5338.745
 512  5401.417
 513  5284.191
 514  5443.574
 515  5401.549
 516  5482.848
 517  5601.191
 518  5803.832
 519  5719.347
 520  5465.616
 521  5590.502
 522  5472.75
 523  5462.763
 524  5246.659
 525  5554.933
 526  5697.708
 527  5836.684
 528  5826.66
 529  5816.695
 530  5729.707
 531  5753.532
 532  5754.016
 533  5602.743
 534  5536.504
 535  5562.283
 536  5551.772
 537  5426.443
 538  5735.55
 539  5957.351
 540  5779.971
 541  5567.348
 542  5644.232
 543  5956.938
 544  6214.901
 545  6052.369
 546  5928.144
 547  5798.527
 548  5905.498
 549  5887.603
 550  5549.157
 551  5115.7
 552  5034.711
 553  5132.361
 554  5430.13
 555  5361.945
 556  5536.906
 557  5485.579
 558  5122.496
 559  4748.856
 560  4877.904
 561  5307.609
 562  5494.279
 563  5492.572
 564  5929.969
 565  5961.993
 566  5669.674
 567  5281.068
 568  5339.686
 569  5386.747
 570  5442.53
 571  5464.194
 572  5768.328
 573  5857.009
 574  5988.563
 575  5975.564
 576  5777.098
 577  5645.299
 578  5820.295
 579  5748.229
 580  5703.018
 581  5382.983
 582  5523.458
 583  5633.421
 584  5790.408
 585  5623.356
 586  5546.029
 587  5395.628
 588  5366.907
 589  5244.843
 590  5199.893
 591  5229.262
 592  5400.723
 593  5681.387
 594  5795.519
 595  5595.124
 596  5667.041
 597  5472.274
 598  5471.343
 599  5303.33
 600  5321.513
 601  5414.55
 602  5476.127
 603  5618.67
 604  5691.996
 605  5651.756
 606  5739.367
 607  5749.759
 608  5641.486
 609  5444.437
 610  5580.019
 611  5980.43
 612  6086.836
 613  6026.781
 614  6219.231
 615  6281.978
 616  6121.608
 617  5951.704
 618  5857.956
 619  5806.395
 620  5769.675
 621  6012.472
 622  6107.375
 623  5668
 624  5561.447
 625  5545.617
 626  5865.184
 627  5781.305
 628  5574.922
 629  5621.327
 630  5694.719
 631  5776.271
 632  5821.058
 633  5501.934
 634  5428.078
 635  5438.816
 636  5575.727
 637  5624.942
 638  5532.656
 639  5662.463
 640  5681.23
 641  5546.536
 642  5397.503
 643  5410.722
 644  5747.546
 645  5693.049
 646  5644.35
 647  5416.746
 648  5470.684
 649  5339.599
 650  5503.516
 651  5393.315
 652  5221.372
 653  5250.378
 654  5532.248
 655  5493.242
 656  5410.802
 657  5234.524
 658  5351.192
 659  5355.845
 660  5409.036
 661  5490.319
 662  5587.66
 663  5752.565
 664  5725.457
 665  5483.252
 666  5517.781
 667  5531.206
 668  5602.912
 669  5599.782
 670  5632.287
 671  5643.205
 672  5569.049
 673  5293.654
 674  5088.361
 675  4815.897
 676  4939.216
 677  5290.805
 678  5423.67
 679  5486.158
 680  5137.517
 681  5201.685
 682  5347.234
 683  5308.698
 684  5221.665
 685  5051.292
 686  5133.603
 687  5345.845
 688  5603.183
 689  5910.05
 690  5820.61
 691  5626.453
 692  5543.447
 693  5551.504
 694  5542.586
 695  5475.131
 696  5467.828
 697  5578.844
 698  5565.41
 699  5623.298
 700  5843.59
 701  6002.699
 702  5649.993
 703  5439.5
 704  5407.65
 705  5508.106
 706  5560.992
 707  5586.766
 708  5760.716
 709  5770.794
 710  5657.197
 711  5609.583
 712  5304.847
 713  5095.781
 714  4994.333
 715  5282.224
 716  5480.011
 717  5386.781
 718  5360.235
 719  5153.486
 720  5036.564
 721  5272.193
 722  5384.224
 723  5266.892
 724  5173.129
 725  5257.086
 726  5462.833
 727  5516.876
 728  5776.102
 729  5480.952
 730  5129.165
 731  4851.677
 732  5224.782
 733  5373.108
 734  5568.244
 735  5408.651
 736  5576.488
 737  5652.549
 738  5891.612
 739  5900.214
 740  5753.738
 741  5505.088
 742  5621.57
 743  5436.933
 744  5445.523
 745  5353.635
 746  5706.802
 747  6071.001
 748  5612.427
 749  5628.725
 750  5790.283
 751  5927.82
 752  5555.112
 753  5325.31
 754  5438.953
 755  5671.551
 756  5424.732
 757  5359.815
 758  5113.293
 759  5390.728
 760  5931.567
 761  5942.208
 762  5864.924
 763  5349.264
 764  5639.661
 765  5475.797
 766  5303.336
 767  5262.994
 768  5391.351
 769  5258.207
 770  5090.589
 771  5147.639
 772  5230.583
 773  5181.719
 774  5169.193
 775  5310.373
 776  5300.487
 777  5295.395
 778  5325.621
 779  5397.285
 780  5238.788
 781  5214.95
 782  5337.581
 783  5772.022
 784  5652.438
 785  5448.472
 786  5224.38
 787  5104.613
 788  4954.581
 789  5028.034
 790  5022.557
 791  4849.295
 792  5066.82
 793  5265.166
 794  5479.11
 795  5299.712
 796  5318.876
 797  5653.514
 798  5420.047
 799  5331.375
 800  5327.773
 801  5554.319
 802  5697.969
 803  5463.411
 804  5695.382
 805  5747.99
 806  5871.614
 807  5983.839
 808  5799.971
 809  5572.604
 810  5358.319
 811  5207.909
 812  5001.341
 813  4781.836
 814  4896.097
 815  5061.845
 816  4960.724
 817  5156.911
 818  5332.406
 819  5280.087
 820  5089.952
 821  5014.704
 822  5299.624
 823  5331.715
 824  5308.173
 825  5375.559
 826  5344.241
 827  5437.082
 828  5434.863
 829  5353.304
 830  5377.577
 831  5428.739
 832  5536.433
 833  5421.755
 834  5036.325
 835  5268.428
 836  5572.399
 837  5641.624
 838  5217.348
 839  5111.027
 840  5086.918
 841  5356.571
 842  5608.225
 843  5763.895
 844  5617.477
 845  5305.421
 846  5211.658
 847  5118.313
 848  5000.603
 849  5053.819
 850  5121.479
 851  5317.958
 852  5230.21
 853  5081.129
 854  5209.824
 855  5155.968
 856  5052.076
 857  5076.432
 858  5105.17
 859  5029.175
 860  5197.098
 861  5537.431
 862  5903.753
 863  5665.694
 864  5628.417
 865  5569.261
 866  5516.187
 867  5330.143
 868  5202.304
 869  5339.201
 870  5306.182
 871  5249.283
 872  5233.562
 873  5326.046
 874  5323.881
 875  5519.603
 876  5540.576
 877  5332.339
 878  5538.687
 879  5793.645
 880  5834.854
 881  5288.729
 882  4964.136
 883  5082.605
 884  5205.048
 885  5067.726
 886  4846.205
 887  4766.902
 888  4760.113
 889  4803.072
 890  5136.713
 891  5306.844
 892  5370.247
 893  5464.871
 894  5601.835
 895  5551.223
 896  5221.712
 897  5118.393
 898  5172.029
 899  5197.254
 900  5258.534
 901  5024.281
 902  5039.257
 903  5168.182
 904  5226.454
 905  5124.157
 906  5132.629
 907  5162.981
 908  5448.29
 909  5534.302
 910  5543.96
 911  5373.463
 912  5289.403
 913  5236.815
 914  5062.695
 915  4951.85
 916  5095.094
 917  5389.937
 918  5531.293
 919  5446.029
 920  5016.083
 921  5072.652
 922  5114.704
 923  5075.276
 924  4916.979
 925  5357.864
 926  5777.787
 927  5861.012
 928  5609.915
 929  5494.544
 930  5525.982
 931  5587.229
 932  5909.343
 933  5949.84
 934  5847.347
 935  5833.005
 936  5720.568
 937  5497.08
 938  5408.788
 939  5439.391
 940  5500.235
 941  5323.669
 942  5183.805
 943  5244.895
 944  5284.611
 945  5304.429
 946  5263.108
 947  5344.415
 948  5701.558
 949  5653.775
 950  5781.986
 951  5762.742
 952  5775.809
 953  5660.571
 954  5314.955
 955  5195.767
 956  4983.886
 957  5104.824
 958  5509.604
 959  5637.187
 960  5646.129
 961  5522.053
 962  5644.883
 963  5589.676
 964  5674.349
 965  5636.103
 966  5721.011
 967  5519.342
 968  5599.242
 969  5449.33
 970  5153.144
 971  4954.856
 972  4942.798
 973  5238.766
 974  5247.176
 975  5204.287
 976  5505.549
 977  5373.223
 978  5130.103
 979  5000.031
 980  4843.771
 981  4922.896
 982  4936.132
 983  5033.539
 984  4934.081
 985  4754.785
 986  5073.045
 987  5089.332
 988  5231.292
 989  5312.427
 990  5752.442
 991  5785.587
 992  5588.498
 993  5608.396
 994  5717.996
 995  5783.977
 996  5431.88
 997  5478.191
 998  5620.229
 999  5463.054
1000  5718.228
1001  5569.848
1002  5699.33
1003  5592.07
1004  5736.222
1005  5669.782
1006  5521.413
1007  5711.233
1008  5767.374
1009  5519.684
1010  5078.541
1011  4929.602
1012  4933.104
1013  5008.283
1014  5183.019
1015  5318.848
1016  5368.61
1017  5314.168
1018  5435.679
1019  5492.927
1020  5425.079
1021  5482.29
1022  5268.172
1023  5219.39
