# Input file       =  1199738862.105873_cleaned.dat
# Candidate        =  PSR_0332+5434
# Telescope        =  AR
# Epoch_topo       =  58129.866679466126
# Epoch_bary       =  N/A
# T_sample         =  0.002
# Data Folded      =  7340032
# Data Avg         =  0.61735784204731 
# Data StdDev      =  6.15119160422469 
# Profile Bins     =  1024
# Profile Avg      =  4425.16619499773 
# Profile StdDev   =  520.784744047583 
# Reduced chi-sqr  =  0.518
# Prob(Noise)      <  1   (~0.0 sigma)
# P_topo (ms)      =  714.56470067004   +/- 5.85e-05
# P'_topo (s/s)    =  -0                +/- 3.08e-11
# P''_topo (s/s^2) =  0                 +/- 1.36e-14
# P_bary (ms)      =  N/A
# P'_bary (s/s)    =  N/A
# P''_bary (s/s^2) =  N/A
# P_orb (s)        =  N/A
# asin(i)/c (s)    =  N/A
# eccentricity     =  N/A
# w (rad)          =  N/A
# T_peri           =  N/A
######################################################
   0  4573.543
   1  4504.604
   2  4241.392
   3  4195.651
   4  4334.045
   5  4517.109
   6  4630.354
   7  4694.788
   8  4726.328
   9  4713.905
  10  4462.209
  11  4277.397
  12  4460.648
  13  4828.689
  14  4617.962
  15  4555.636
  16  4370.031
  17  4488.404
  18  4473.075
  19  4376.349
  20  4441.76
  21  4559.994
  22  4511.194
  23  4569.143
  24  4601.181
  25  4692.998
  26  4834.302
  27  4715.739
  28  4656.058
  29  4753.673
  30  4776.505
  31  4940.897
  32  4500.333
  33  4279.403
  34  4316.458
  35  4329.22
  36  4452.519
  37  4504.112
  38  4669.834
  39  4788.657
  40  4820.429
  41  4665.758
  42  4542.116
  43  4537.66
  44  4700.337
  45  4672.769
  46  4570.972
  47  4373.072
  48  4311.22
  49  4336.001
  50  4536.989
  51  4491.393
  52  4568.851
  53  4604.395
  54  4569.146
  55  4476.999
  56  4509.36
  57  4562.021
  58  4612.385
  59  4375.333
  60  4513.676
  61  4611.355
  62  4681.941
  63  4515.516
  64  4496.607
  65  4697.298
  66  4852.048
  67  4826.429
  68  4560.728
  69  4454.187
  70  4369.683
  71  4544.13
  72  4572.966
  73  4725.365
  74  4830.979
  75  4483.672
  76  4293.931
  77  4216.524
  78  4221.16
  79  4464.679
  80  4614.016
  81  4725.205
  82  4464.614
  83  4369.16
  84  4388.432
  85  4316.843
  86  4294.883
  87  4395.875
  88  4581.354
  89  4539.901
  90  4273.309
  91  4172.453
  92  4138.571
  93  4404.958
  94  4494.619
  95  4381.766
  96  4299.797
  97  4199.07
  98  4393.657
  99  4641.441
 100  4640.595
 101  4422.339
 102  4153.205
 103  4216.85
 104  4458.739
 105  4424.116
 106  4477.519
 107  4358.372
 108  4216.637
 109  4281.497
 110  4295.039
 111  4244.409
 112  4268.228
 113  4424.631
 114  4573.02
 115  4680.439
 116  4619.136
 117  4756.094
 118  4518.02
 119  4404.315
 120  4368.76
 121  4247.658
 122  4237.886
 123  4140.045
 124  4050.403
 125  4102.391
 126  3998.54
 127  4114.021
 128  4183.897
 129  4194.026
 130  4242.441
 131  4285.114
 132  4288.052
 133  4333.066
 134  4324.156
 135  4262.299
 136  4354
 137  4330.4
 138  4540.033
 139  4414.289
 140  4207.696
 141  4261.582
 142  4279.384
 143  4351.186
 144  4294.656
 145  4185.507
 146  4405.999
 147  4323.385
 148  4364.674
 149  4245.243
 150  4285.833
 151  4386.671
 152  4387.543
 153  4373.658
 154  4360.793
 155  4509.463
 156  4427.756
 157  4481.918
 158  4453.11
 159  4483.054
 160  4425.007
 161  4370.975
 162  4385.759
 163  4528.855
 164  4477.204
 165  4354.739
 166  4207.974
 167  4234.071
 168  4245.92
 169  4185.833
 170  4028.249
 171  4203.183
 172  4344.212
 173  4533.55
 174  4626.791
 175  4446.28
 176  4249.945
 177  4357.745
 178  4464.89
 179  4691.516
 180  4487.469
 181  4474.422
 182  4281.284
 183  4202.932
 184  4426.046
 185  4641.728
 186  4640.878
 187  4563.925
 188  4495.312
 189  4419.241
 190  4462.79
 191  4428.411
 192  4468.947
 193  4388.336
 194  4175.156
 195  4230.345
 196  4213.895
 197  4265.115
 198  4276.592
 199  4484.189
 200  4513.332
 201  4594.382
 202  4512.796
 203  4508.174
 204  4434.273
 205  4449.59
 206  4672.241
 207  4534.337
 208  4507.002
 209  4342.146
 210  4397.03
 211  4296.263
 212  4318.9
 213  4353.345
 214  4528.152
 215  4295.295
 216  4084.277
 217  3817.866
 218  3733.773
 219  3907.984
 220  4277.135
 221  4583.311
 222  4670.549
 223  4484.742
 224  4524.857
 225  4435.104
 226  4382.048
 227  4432.805
 228  4356.595
 229  4310.819
 230  4329.15
 231  4194.61
 232  4411.633
 233  4360.541
 234  4417.4
 235  4292.556
 236  4368.671
 237  4569.267
 238  4596.486
 239  4338.427
 240  4087.924
 241  4177.115
 242  4399.829
 243  4312.646
 244  4220.969
 245  4233.413
 246  4431.261
 247  4316.711
 248  4232.783
 249  4442.494
 250  4650.517
 251  4780.089
 252  4596.169
 253  4483.395
 254  4447.049
 255  4584.189
 256  4512.14
 257  4629.716
 258  4489.188
 259  4642.821
 260  4555.289
 261  4586.717
 262  4365.92
 263  4285.655
 264  4278.343
 265  4595.373
 266  4447.017
 267  4229.505
 268  4015.558
 269  4022.734
 270  4159.566
 271  4366.861
 272  4537.058
 273  4473.57
 274  4583.93
 275  4507.741
 276  4580.323
 277  4471.13
 278  4370.495
 279  4453.291
 280  4350.824
 281  4436.995
 282  4432.15
 283  4458.857
 284  4623.387
 285  4570.997
 286  4596.035
 287  4663.437
 288  4545.344
 289  4568.433
 290  4624.624
 291  4674.585
 292  4841.489
 293  4688.505
 294  4775.674
 295  4793.447
 296  4564.785
 297  4445.139
 298  4423.583
 299  4578.539
 300  4807.015
 301  4569.219
 302  4635.221
 303  4504.309
 304  4495.432
 305  4457.683
 306  4377.756
 307  4309.173
 308  4313.42
 309  4277.772
 310  4272.763
 311  4155.969
 312  4111.289
 313  4181.969
 314  4334.947
 315  4152.209
 316  4196.79
 317  4122.258
 318  4233.963
 319  4284.221
 320  4266.554
 321  4390.446
 322  4341.023
 323  4271.891
 324  4243.458
 325  4042.117
 326  4022.547
 327  4207.479
 328  4544.533
 329  4748.669
 330  4680.219
 331  4666.465
 332  4674.073
 333  4554.284
 334  4264.267
 335  4328.227
 336  4272.188
 337  4332.694
 338  4280.035
 339  4257.62
 340  4120.475
 341  4104.601
 342  4171.386
 343  4375.425
 344  4515.699
 345  4770.644
 346  4662.315
 347  4502.895
 348  4380.323
 349  4575.462
 350  4678.149
 351  4686.602
 352  4668.611
 353  4526.924
 354  4367.709
 355  4144.517
 356  4156.561
 357  4409.477
 358  4513.105
 359  4450.404
 360  4407.607
 361  4264.496
 362  4204.455
 363  4111.129
 364  4213.717
 365  4382.014
 366  4495.125
 367  4722.146
 368  4665.498
 369  4536.06
 370  4443.094
 371  4467.307
 372  4319.049
 373  4276.704
 374  4242.107
 375  4512.509
 376  4326.58
 377  4232.167
 378  4306.555
 379  4320.006
 380  4198.19
 381  3990.67
 382  3935.757
 383  4108.08
 384  4229.418
 385  4281.807
 386  4357.859
 387  3997.481
 388  4005.055
 389  3910.2
 390  4080.361
 391  4061.58
 392  4246.658
 393  4471.398
 394  4583.025
 395  4312.017
 396  4322.111
 397  4174.916
 398  4285.842
 399  4300.118
 400  4359.08
 401  4347.636
 402  4298.669
 403  4202.452
 404  4197.818
 405  4329.784
 406  4531.094
 407  4707.118
 408  4510.493
 409  4454.004
 410  4622.107
 411  4526.203
 412  4430.867
 413  4363.851
 414  4278.088
 415  4241.036
 416  4069.388
 417  4323.325
 418  4391.875
 419  4219.136
 420  4094.085
 421  4155.784
 422  4157.853
 423  3955.856
 424  3859.78
 425  4168.628
 426  4190.598
 427  4318.16
 428  4286.852
 429  4537.705
 430  4222.765
 431  4099.464
 432  4118.238
 433  4182.295
 434  4332.156
 435  4439.704
 436  4492.37
 437  4477.748
 438  4434.303
 439  4357.118
 440  4302.156
 441  4273.372
 442  4370.945
 443  4597.438
 444  4511.52
 445  4463.479
 446  4292.488
 447  4252.574
 448  4228.898
 449  4230.091
 450  4384.137
 451  4561.322
 452  4375.241
 453  4418.292
 454  4341.714
 455  4314.988
 456  4587.711
 457  4510.653
 458  4542.207
 459  4402.8
 460  4498.853
 461  4584.221
 462  4411.652
 463  4196.924
 464  4357.594
 465  4511.827
 466  4890.164
 467  4677.969
 468  4449.125
 469  4267.543
 470  4502.615
 471  4559.041
 472  4683.415
 473  4429.798
 474  4425.318
 475  4448.603
 476  4410.501
 477  4509.648
 478  4450.64
 479  4627.047
 480  4745.346
 481  4748.426
 482  4864.636
 483  4733.224
 484  4536.5
 485  4496.175
 486  4624.526
 487  4553.245
 488  4548.972
 489  4528.447
 490  4727.124
 491  4595.023
 492  4655.972
 493  4858.346
 494  4898.871
 495  4725.669
 496  4628.994
 497  4532.418
 498  4339.149
 499  4257.871
 500  4465.854
 501  4942.527
 502  4788.045
 503  4469.424
 504  4289.214
 505  4460.121
 506  4798.051
 507  4997.807
 508  5025.713
 509  4807.674
 510  4693.01
 511  4642.637
 512  4601.864
 513  4625.795
 514  4535.63
 515  4592.897
 516  4391.827
 517  4593.759
 518  4614.546
 519  4458.711
 520  4395.762
 521  4454.949
 522  4580.551
 523  4652.635
 524  4576.131
 525  4439.108
 526  4229.84
 527  4267.994
 528  4565.981
 529  4890.606
 530  4722.429
 531  4591.962
 532  4431.73
 533  4410.341
 534  4506.801
 535  4426.235
 536  4544.884
 537  4613.782
 538  4566.667
 539  4541.013
 540  4538.614
 541  4500.812
 542  4528.094
 543  4464.881
 544  4677.138
 545  4734.633
 546  4677.508
 547  4557.669
 548  4344.808
 549  4275.324
 550  4525.198
 551  4478.396
 552  4530.6
 553  4384.229
 554  4451.019
 555  4541.697
 556  4488.1
 557  4518.352
 558  4784.322
 559  4508.693
 560  4497.4
 561  4362.149
 562  4488.896
 563  4439.196
 564  4509.329
 565  4503.482
 566  4519.223
 567  4228.152
 568  4430.987
 569  4462.34
 570  4543.982
 571  4410.444
 572  4264.87
 573  4106.925
 574  4332.481
 575  4423.792
 576  4500.902
 577  4447.655
 578  4509.774
 579  4450.745
 580  4296.975
 581  4207.299
 582  4529.33
 583  4447.124
 584  4502.798
 585  4402.554
 586  4449.815
 587  4412.156
 588  4237.488
 589  4202.474
 590  4299.987
 591  4382.772
 592  4352.821
 593  4648.078
 594  4714.64
 595  4649.493
 596  4396.402
 597  4474.101
 598  4580.981
 599  4677.5
 600  4629.717
 601  4733.553
 602  4545.389
 603  4448.257
 604  4341.951
 605  4294.356
 606  4303.139
 607  4444.272
 608  4688.007
 609  4771.549
 610  4585.04
 611  4586.573
 612  4732.698
 613  4842.465
 614  4990.5
 615  5225.236
 616  5111.941
 617  4891.105
 618  4849.468
 619  4892.95
 620  5061.061
 621  5167.187
 622  5354.787
 623  5200.881
 624  4866.859
 625  4684.158
 626  4504.696
 627  4266.46
 628  4421.55
 629  4186.345
 630  4306.022
 631  4137.461
 632  4197.078
 633  4190.629
 634  4163.599
 635  4122.243
 636  4308.363
 637  4236.145
 638  4409.808
 639  4187.964
 640  4205.222
 641  4164.569
 642  4324.367
 643  4221.678
 644  4439.905
 645  4428.178
 646  4536.993
 647  4555.01
 648  4560.133
 649  4537.595
 650  4597.471
 651  4564.585
 652  4680.489
 653  4312.813
 654  4064.702
 655  3945.513
 656  3971.116
 657  4069.061
 658  4188.087
 659  4157.132
 660  4299.696
 661  4146.494
 662  3960.517
 663  3947.118
 664  3970.918
 665  4224.847
 666  4336.266
 667  4370.224
 668  4673.053
 669  4567.402
 670  4615.06
 671  4556.739
 672  4649.804
 673  4680.426
 674  4466.812
 675  4502.996
 676  4437.666
 677  4361.013
 678  4287.782
 679  4505.271
 680  4631.442
 681  4495.23
 682  4319.723
 683  4169.638
 684  4137.315
 685  4290.212
 686  4391.793
 687  4480.188
 688  4334.418
 689  4589.996
 690  4668.778
 691  4822.419
 692  4733.42
 693  4749.703
 694  4803.838
 695  4677.847
 696  4557.224
 697  4328.996
 698  4397.824
 699  4230.7
 700  4377.376
 701  4487.177
 702  4445.162
 703  4463.331
 704  4315.629
 705  4243.378
 706  4252.512
 707  4315.303
 708  4424.471
 709  4415.976
 710  4460.76
 711  4516.247
 712  4370.966
 713  4191.59
 714  4223.306
 715  4092.354
 716  4336.957
 717  4445.051
 718  4613.19
 719  4575.675
 720  4540.199
 721  4489.39
 722  4593.558
 723  4506.121
 724  4450.841
 725  4303.195
 726  4170.64
 727  4043.369
 728  4085.891
 729  4190.224
 730  4492.136
 731  4490.885
 732  4478.594
 733  4455.314
 734  4359.974
 735  4577.544
 736  4638.782
 737  4799.725
 738  4654.796
 739  4260.52
 740  4147.768
 741  3997.536
 742  4027.556
 743  4017.548
 744  4006.995
 745  4081.601
 746  4227.367
 747  4380.603
 748  4457.036
 749  4445.635
 750  4447.833
 751  4699.647
 752  4582.427
 753  4400.129
 754  4254.542
 755  4303.989
 756  4206.5
 757  4186.927
 758  4159.002
 759  4314.222
 760  4264.637
 761  4249.652
 762  4297.535
 763  4311.484
 764  4502.813
 765  4618.079
 766  4675.688
 767  4465.897
 768  4486.409
 769  4367.884
 770  4569.049
 771  4554.205
 772  4555.229
 773  4547.974
 774  4598.126
 775  4651.42
 776  4521.725
 777  4451.946
 778  4631.699
 779  4841.646
 780  4724.031
 781  4742
 782  4477.283
 783  4387.275
 784  4350.424
 785  4168.264
 786  4211.951
 787  4372.013
 788  4361.004
 789  4331.964
 790  4101.386
 791  4290.292
 792  4408.521
 793  4543.141
 794  4544.762
 795  4373.935
 796  4181.093
 797  4341.597
 798  4198.33
 799  4253.504
 800  4472.438
 801  4448.499
 802  4313.707
 803  4041.852
 804  3971.877
 805  4179.762
 806  4399.754
 807  4497.775
 808  4447.048
 809  4326.345
 810  4385.114
 811  4260.783
 812  4164.688
 813  4134.305
 814  4051.345
 815  4106.418
 816  4431.482
 817  4418.151
 818  4354.004
 819  3981.279
 820  4086.553
 821  4292.135
 822  4549.406
 823  4568.757
 824  4629.855
 825  4480.961
 826  4646.735
 827  4606.012
 828  4552.184
 829  4308.731
 830  4446.595
 831  4583.79
 832  4617.845
 833  4593.249
 834  4796.053
 835  4904.546
 836  4934.425
 837  4817.169
 838  4727.09
 839  4463.55
 840  4465.708
 841  4486.166
 842  4718.032
 843  4723.869
 844  4635.282
 845  4547.396
 846  4314.309
 847  4390.312
 848  4428.905
 849  4591.488
 850  4594.698
 851  4556.406
 852  4491.725
 853  4405.87
 854  4328.695
 855  4328.646
 856  4190.762
 857  4306.136
 858  4454.528
 859  4582.914
 860  4429.036
 861  4367.417
 862  4317.048
 863  4355.599
 864  4283.3
 865  4409.021
 866  4359.25
 867  4528.76
 868  4535.755
 869  4645.536
 870  4614.07
 871  4434.901
 872  4344.296
 873  4491.704
 874  4381.919
 875  4448.875
 876  4297.762
 877  4320.784
 878  4276.042
 879  4220.876
 880  4310.469
 881  4368.902
 882  4296.427
 883  4539.438
 884  4477.827
 885  4632.256
 886  4506.295
 887  4351.143
 888  4444.726
 889  4455.996
 890  4507.724
 891  4420.446
 892  4215.073
 893  4075.023
 894  4217.832
 895  4416.251
 896  4644.325
 897  4724.335
 898  4531.773
 899  4653.789
 900  4531.257
 901  4665.785
 902  4564.054
 903  4415.419
 904  4474.11
 905  4229.037
 906  4262.126
 907  4155.551
 908  4210.692
 909  4125.185
 910  4227.397
 911  4171.729
 912  4168.144
 913  4047.052
 914  4112.203
 915  4212.25
 916  4511.238
 917  4663.892
 918  4621.994
 919  4309.938
 920  4135.863
 921  4278.188
 922  4438.909
 923  4483.198
 924  4399.718
 925  4426.509
 926  4575.477
 927  4442.472
 928  4382.235
 929  4414.307
 930  4642.562
 931  4574.722
 932  4547.334
 933  4350.946
 934  4306.472
 935  4187.902
 936  4076.592
 937  4164.984
 938  4181.537
 939  4366.667
 940  4418.146
 941  4348.245
 942  4167.917
 943  4008.666
 944  3880.264
 945  4037.984
 946  4177.591
 947  4448.604
 948  4493.63
 949  4495.157
 950  4341.783
 951  4344.423
 952  4250.76
 953  4328.777
 954  4244.233
 955  4277.213
 956  4415.517
 957  4467.512
 958  4541.663
 959  4611.26
 960  4511.896
 961  4550.512
 962  4326.116
 963  4197.779
 964  4158.547
 965  4044.289
 966  4204.574
 967  4410.89
 968  4542.751
 969  4539.338
 970  4303.567
 971  4315.789
 972  4354.065
 973  4253.201
 974  4249.631
 975  4349.273
 976  4340.44
 977  4429.601
 978  4345.24
 979  4422.215
 980  4533.543
 981  4721.456
 982  4754.222
 983  4711.079
 984  4481.965
 985  4465.148
 986  4465.035
 987  4693.447
 988  4741.14
 989  4548.353
 990  4575.807
 991  4639.991
 992  4653.471
 993  4675.002
 994  4702.517
 995  4716.786
 996  4612.194
 997  4581.597
 998  4530.208
 999  4331.829
1000  4065.882
1001  4004.098
1002  4073.42
1003  4202.955
1004  4317.605
1005  4186.114
1006  4107.44
1007  3964.962
1008  3957.986
1009  3994.679
1010  4041.729
1011  4218.97
1012  4452.968
1013  4437.723
1014  4333.158
1015  4292.644
1016  4352.189
1017  4407.101
1018  4409.145
1019  4479.829
1020  4491.237
1021  4582.46
1022  4597.626
1023  4810.759
