# Input file       =  1199967776.101105_cleaned.dat
# Candidate        =  PSR_0332+5434
# Telescope        =  AR
# Epoch_topo       =  58132.516147003531
# Epoch_bary       =  N/A
# T_sample         =  0.002
# Data Folded      =  7405568
# Data Avg         =  0.114776884557976
# Data StdDev      =  4.00797601654488 
# Profile Bins     =  1024
# Profile Avg      =  829.89700873296  
# Profile StdDev   =  340.842955758523 
# Reduced chi-sqr  =  0.574
# Prob(Noise)      <  1   (~0.0 sigma)
# P_topo (ms)      =  714.566229387426  +/- 6.18e-05
# P'_topo (s/s)    =  -0                +/- 3.23e-11
# P''_topo (s/s^2) =  0                 +/- 1.41e-14
# P_bary (ms)      =  N/A
# P'_bary (s/s)    =  N/A
# P''_bary (s/s^2) =  N/A
# P_orb (s)        =  N/A
# asin(i)/c (s)    =  N/A
# eccentricity     =  N/A
# w (rad)          =  N/A
# T_peri           =  N/A
######################################################
   0  850.8904
   1  920.9918
   2  794.8839
   3  697.2651
   4  690.5595
   5  781.1235
   6  925.8411
   7  964.6579
   8  752.9777
   9  703.6075
  10  673.0184
  11  805.4245
  12  736.2031
  13  717.6083
  14  925.512
  15  1014.621
  16  1150.208
  17  1067.939
  18  907.5146
  19  820.7997
  20  887.5162
  21  1034.244
  22  1038.478
  23  876.0166
  24  921.9083
  25  818.9429
  26  798.393
  27  777.9319
  28  753.2674
  29  735.7789
  30  646.5056
  31  846.7487
  32  1001.811
  33  1027.328
  34  1099.017
  35  983.5758
  36  985.7833
  37  1038.94
  38  1030.573
  39  1027.13
  40  808.8536
  41  893.8613
  42  939.483
  43  776.3099
  44  664.22
  45  465.1041
  46  626.027
  47  645.1591
  48  676.6974
  49  735.7635
  50  753.867
  51  892.7068
  52  910.1453
  53  777.6185
  54  846.8902
  55  884.9692
  56  957.9476
  57  928.0643
  58  875.3033
  59  1044.436
  60  918.2152
  61  894.098
  62  771.4416
  63  851.5264
  64  862.09
  65  742.1423
  66  734.2469
  67  757.9474
  68  735.9606
  69  813.493
  70  798.3575
  71  782.4827
  72  743.1573
  73  717.9623
  74  924.4072
  75  1008.161
  76  1165.006
  77  1113.782
  78  923.5123
  79  1017.394
  80  952.1726
  81  940.3412
  82  786.079
  83  746.0555
  84  898.3606
  85  815.6422
  86  798.4127
  87  780.3749
  88  822.034
  89  863.8287
  90  877.7199
  91  928.303
  92  959.1906
  93  959.6525
  94  893.8721
  95  763.5341
  96  737.3539
  97  976.7325
  98  1018.901
  99  994.9596
 100  870.2983
 101  980.2693
 102  1032.044
 103  882.3065
 104  823.3334
 105  737.0618
 106  711.209
 107  700.9835
 108  636.473
 109  846.2291
 110  798.413
 111  896.0275
 112  876.681
 113  858.3253
 114  922.9586
 115  946.5444
 116  951.1451
 117  847.1168
 118  724.936
 119  738.8551
 120  704.4601
 121  716.6194
 122  912.0147
 123  979.653
 124  1033.558
 125  917.433
 126  1022.323
 127  1035.081
 128  869.604
 129  791.9124
 130  711.0585
 131  763.269
 132  774.4992
 133  762.9064
 134  797.7468
 135  771.9138
 136  870.7672
 137  914.9487
 138  761.3423
 139  852.735
 140  930.4455
 141  1002.453
 142  971.1837
 143  819.7366
 144  852.8352
 145  655.1104
 146  774.3881
 147  887.6898
 148  838.9837
 149  905.9681
 150  803.9866
 151  795.6073
 152  643.6007
 153  616.194
 154  759.7772
 155  827.4907
 156  876.2519
 157  974.33
 158  953.2518
 159  892.9714
 160  945.698
 161  1002.567
 162  1114.049
 163  1023.243
 164  876.6534
 165  846.2485
 166  910.1902
 167  1079.014
 168  986.9827
 169  908.8266
 170  792.5194
 171  787.012
 172  839.0817
 173  763.3736
 174  753.023
 175  665.0338
 176  627.3292
 177  622.2109
 178  586.7957
 179  726.4189
 180  685.8738
 181  780.3865
 182  852.2718
 183  912.4918
 184  1088.537
 185  1014.737
 186  974.0358
 187  920.725
 188  980.518
 189  908.8928
 190  735.8348
 191  557.4396
 192  505.6633
 193  487.5254
 194  509.7429
 195  631.6949
 196  648.0389
 197  660.6454
 198  692.3097
 199  852.8327
 200  1006.103
 201  919.8788
 202  972.284
 203  967.9901
 204  1063.75
 205  1109.052
 206  1004.281
 207  978.6577
 208  701.2275
 209  750.7877
 210  754.1378
 211  768.6592
 212  694.2682
 213  605.0021
 214  783.8236
 215  850.676
 216  869.3807
 217  846.6293
 218  756.8907
 219  728.92
 220  773.9335
 221  778.6561
 222  822.6806
 223  798.1951
 224  878.9066
 225  974.9975
 226  982.9149
 227  1061.519
 228  1095.851
 229  1090.674
 230  1126.802
 231  1105.836
 232  1148
 233  1005.896
 234  1020.623
 235  900.8071
 236  772.9604
 237  787.3774
 238  778.6688
 239  820.8877
 240  790.3473
 241  734.3996
 242  852.7642
 243  878.5098
 244  932.2654
 245  865.9239
 246  791.9832
 247  756.6504
 248  702.4214
 249  843.1637
 250  865.536
 251  851.7439
 252  868.0263
 253  828.2751
 254  826.5333
 255  770.3535
 256  816.5305
 257  866.4892
 258  806.1521
 259  790.9722
 260  704.2535
 261  673.196
 262  678.7469
 263  757.2598
 264  811.1839
 265  780.5112
 266  674.2783
 267  660.5589
 268  683.9315
 269  843.7353
 270  872.4988
 271  815.7762
 272  886.8031
 273  985.4042
 274  943.4785
 275  800.0472
 276  639.7549
 277  681.6684
 278  585.5103
 279  703.3889
 280  721.3406
 281  655.2593
 282  610.3774
 283  656.1924
 284  773.3053
 285  696.1607
 286  569.5074
 287  718.8575
 288  835.6417
 289  925.5626
 290  999.0438
 291  992.9027
 292  1011.932
 293  958.743
 294  948.5827
 295  940.4111
 296  755.2042
 297  707.5924
 298  686.6559
 299  769.3561
 300  830.2474
 301  750.7741
 302  700.1827
 303  666.3861
 304  728.673
 305  750.4
 306  628.9686
 307  693.7388
 308  759.9951
 309  872.7616
 310  857.2845
 311  790.7837
 312  866.3398
 313  779.1409
 314  1061.096
 315  1082.48
 316  1032.045
 317  797.3095
 318  789.2742
 319  882.2777
 320  862.2632
 321  716.818
 322  706.9019
 323  637.5163
 324  538.8792
 325  511.2114
 326  623.9708
 327  781.7572
 328  841.2124
 329  946.4962
 330  946.5627
 331  865.4634
 332  848.7665
 333  963.195
 334  978.4066
 335  1016.597
 336  820.7518
 337  851.4886
 338  780.4139
 339  862.8038
 340  906.2308
 341  798.9411
 342  784.5856
 343  689.5781
 344  682.8666
 345  651.0588
 346  737.0518
 347  809.6731
 348  807.6619
 349  814.5627
 350  873.0969
 351  835.2751
 352  856.6765
 353  876.0984
 354  884.1315
 355  903.2321
 356  818.2148
 357  855.8166
 358  754.7867
 359  775.9211
 360  863.7264
 361  852.3474
 362  696.1835
 363  490.7761
 364  513.9634
 365  535.5768
 366  645.0847
 367  805.6096
 368  882.5948
 369  833.5261
 370  759.5702
 371  732.2548
 372  749.3498
 373  805.0786
 374  892.4352
 375  933.7885
 376  807.9072
 377  808.4902
 378  892.9194
 379  945.3359
 380  847.1875
 381  904.7417
 382  1126.718
 383  1069.722
 384  782.4283
 385  575.2799
 386  526.0713
 387  641.234
 388  769.021
 389  888.8149
 390  741.1505
 391  652.9971
 392  706.5161
 393  815.5148
 394  886.0377
 395  908.8162
 396  952.1047
 397  955.4558
 398  970.9266
 399  925.2944
 400  708.575
 401  563.757
 402  797.0416
 403  902.3107
 404  918.4781
 405  773.4794
 406  688.4335
 407  682.6881
 408  701.0887
 409  661.283
 410  505.5479
 411  368.0385
 412  479.7804
 413  647.6226
 414  761.3077
 415  704.043
 416  726.788
 417  804.8707
 418  815.3942
 419  747.6255
 420  728.2912
 421  647.6616
 422  708.4373
 423  1002.789
 424  1072.236
 425  931.8464
 426  778.4825
 427  808.4193
 428  755.4282
 429  541.2084
 430  435.0706
 431  560.8727
 432  692.7144
 433  699.3616
 434  600.5288
 435  676.7118
 436  782.582
 437  866.0866
 438  852.9808
 439  784.1573
 440  869.8985
 441  863.4572
 442  888.6437
 443  751.0833
 444  788.4425
 445  870.4715
 446  867.7324
 447  830.3452
 448  746.7875
 449  716.5386
 450  624.722
 451  649.3483
 452  581.8118
 453  595.3132
 454  731.2472
 455  895.7215
 456  863.5979
 457  733.9257
 458  795.2261
 459  876.4468
 460  899.8961
 461  930.9341
 462  909.4598
 463  973.5513
 464  790.1472
 465  832.7886
 466  780.92
 467  904.9717
 468  756.4261
 469  659.9939
 470  639.5288
 471  617.2092
 472  631.9524
 473  625.0334
 474  618.3093
 475  736.8115
 476  778.2004
 477  859.0067
 478  786.5357
 479  812.2671
 480  921.6777
 481  1077.21
 482  1008.945
 483  881.4219
 484  784.8179
 485  812.0938
 486  857.8309
 487  796.0141
 488  801.9677
 489  703.0451
 490  757.2019
 491  740.2794
 492  749.7565
 493  722.9321
 494  769.5598
 495  660.1932
 496  725.1995
 497  741.7655
 498  832.5533
 499  765.7808
 500  702.6232
 501  719.4722
 502  766.9274
 503  782.1103
 504  867.9796
 505  850.1997
 506  823.4288
 507  808.5331
 508  827.0695
 509  809.6725
 510  674.8644
 511  609.7193
 512  645.5493
 513  664.8418
 514  742.1064
 515  645.7654
 516  587.6796
 517  577.9917
 518  691.3026
 519  743.7924
 520  762.7808
 521  789.4424
 522  860.8599
 523  823.9488
 524  844.1712
 525  850.7653
 526  913.3929
 527  870.4836
 528  985.0383
 529  1039.889
 530  1012.184
 531  980.5647
 532  910.3002
 533  867.57
 534  720.0896
 535  723.6489
 536  676.6575
 537  800.7194
 538  841.7317
 539  777.8577
 540  751.6336
 541  768.9654
 542  858.6702
 543  833.7178
 544  876.8726
 545  821.7418
 546  857.7139
 547  826.0052
 548  823.8889
 549  886.2719
 550  972.8723
 551  985.889
 552  826.4333
 553  843.9912
 554  925.7044
 555  912.1895
 556  763.5289
 557  642.3618
 558  616.0873
 559  675.3489
 560  725.6295
 561  720.6827
 562  693.7789
 563  555.6378
 564  680.5971
 565  733.8235
 566  738.6928
 567  720.6485
 568  806.2794
 569  852.2195
 570  868.0856
 571  831.9782
 572  862.2711
 573  683.4864
 574  591.4893
 575  578.1794
 576  590.6239
 577  691.4191
 578  727.3589
 579  813.8273
 580  839.7811
 581  822.6218
 582  854.9944
 583  705.9437
 584  818.7377
 585  883.6956
 586  912.8699
 587  880.0605
 588  873.9045
 589  894.84
 590  906.861
 591  967.2288
 592  1021.648
 593  1015.641
 594  985.032
 595  934.4904
 596  887.8465
 597  796.4093
 598  878.4722
 599  904.1733
 600  840.0364
 601  709.5354
 602  789.5166
 603  846.8641
 604  850.6654
 605  838.4609
 606  967.3914
 607  1063.153
 608  1081.931
 609  1144.479
 610  1160.549
 611  1155.994
 612  1230.491
 613  1296.028
 614  1389.865
 615  1337.13
 616  1418.311
 617  1538.324
 618  1603.513
 619  1518.537
 620  1485.746
 621  1404.848
 622  1303.347
 623  1144.568
 624  1028.835
 625  854.3726
 626  823.4405
 627  922.5653
 628  937.0823
 629  944.1552
 630  822.8809
 631  909.8714
 632  798.8525
 633  807.4528
 634  676.3087
 635  715.049
 636  715.2745
 637  830.8864
 638  727.5398
 639  644.5205
 640  616.9985
 641  719.358
 642  788.2971
 643  713.329
 644  710.5949
 645  677.8568
 646  631.1559
 647  766.191
 648  780.1833
 649  880.091
 650  774.1301
 651  795.7313
 652  893.6884
 653  942.8521
 654  996.9655
 655  1015.582
 656  922.2446
 657  786.02
 658  742.581
 659  956.0657
 660  914.8726
 661  814.1135
 662  763.4924
 663  916.9727
 664  898.1954
 665  757.8576
 666  628.1241
 667  580.4492
 668  691.731
 669  889.0275
 670  924.7794
 671  840.5142
 672  818.2834
 673  812.1843
 674  836.872
 675  781.2648
 676  786.179
 677  834.4155
 678  877.92
 679  1013
 680  1008.07
 681  774.1738
 682  619.3813
 683  571.1913
 684  703.5267
 685  770.5043
 686  838.6274
 687  837.0342
 688  730.6186
 689  728.2526
 690  802.8555
 691  845.8233
 692  766.26
 693  648.5585
 694  704.692
 695  690.0746
 696  768.5551
 697  739.9815
 698  780.4601
 699  678.8999
 700  756.2097
 701  754.7253
 702  843.2947
 703  819.1627
 704  928.3682
 705  905.5775
 706  715.7151
 707  673.8668
 708  554.0324
 709  669.3884
 710  753.0568
 711  892.1703
 712  1001.922
 713  907.3221
 714  1004.804
 715  970.6463
 716  855.1819
 717  829.9485
 718  793.2237
 719  859.4172
 720  855.5482
 721  850.5078
 722  935.6266
 723  888.6147
 724  854.1791
 725  850.7062
 726  852.5987
 727  896.2888
 728  868.1916
 729  840.8558
 730  733.238
 731  675.2975
 732  808.6142
 733  865.4829
 734  804.2776
 735  842.1836
 736  972.0424
 737  1104.417
 738  1023.206
 739  1071.515
 740  992.923
 741  853.5087
 742  817.8358
 743  906.1569
 744  999.1785
 745  919.2864
 746  913.0296
 747  974.976
 748  798.4073
 749  737.6362
 750  767.4725
 751  771.4059
 752  725.0645
 753  718.0492
 754  844.8172
 755  873.2761
 756  884.9885
 757  958.6902
 758  886.4121
 759  946.1119
 760  995.7238
 761  1000.305
 762  999.0004
 763  950.9291
 764  1110.888
 765  1086.444
 766  871.1819
 767  749.0226
 768  739.502
 769  899.0587
 770  914.1532
 771  852.8834
 772  907.8362
 773  900.8047
 774  988.6975
 775  922.9761
 776  780.5519
 777  845.6178
 778  869.1326
 779  920.0782
 780  889.8674
 781  801.6545
 782  838.3702
 783  699.6283
 784  798.5347
 785  873.9976
 786  875.1584
 787  928.6175
 788  865.8069
 789  832.4841
 790  692.9925
 791  598.1796
 792  729.1965
 793  808.6424
 794  743.3505
 795  619.644
 796  569.8571
 797  639.6483
 798  642.5272
 799  830.3074
 800  1061.159
 801  1070.46
 802  1095.065
 803  1174.117
 804  1144.256
 805  1078.781
 806  884.3737
 807  993.2309
 808  926.899
 809  924.4685
 810  838.1965
 811  710.7562
 812  680.8633
 813  574.6141
 814  632.1325
 815  752.4033
 816  833.7462
 817  893.8925
 818  821.0351
 819  945.7651
 820  1017.085
 821  985.62
 822  970.2089
 823  943.4777
 824  984.5381
 825  980.9282
 826  928.8441
 827  935.3562
 828  891.1082
 829  936.2927
 830  914.0866
 831  785.0795
 832  758.7885
 833  780.906
 834  795.6243
 835  872.5233
 836  784.7375
 837  809.858
 838  708.7198
 839  665.8669
 840  802.1307
 841  709.2241
 842  798.5841
 843  729.23
 844  866.4808
 845  866.6341
 846  781.4089
 847  914.1294
 848  970.3245
 849  953.4913
 850  809.2125
 851  626.1801
 852  716.679
 853  758.7227
 854  752.2241
 855  667.9335
 856  480.5019
 857  555.9954
 858  633.0411
 859  705.2018
 860  670.4528
 861  524.4448
 862  644.6038
 863  767.7023
 864  804.6819
 865  787.3198
 866  774.2585
 867  912.8788
 868  911.7187
 869  880.3022
 870  983.2372
 871  912.1029
 872  1018.965
 873  1034.558
 874  893.2424
 875  898.2533
 876  756.1166
 877  849.7521
 878  757.5385
 879  701.8328
 880  770.3636
 881  726.7185
 882  818.1774
 883  890.3239
 884  953.6563
 885  972.2977
 886  893.0294
 887  873.2982
 888  895.3077
 889  775.2309
 890  909.2448
 891  840.4974
 892  997.6499
 893  859.5139
 894  799.9016
 895  739.0346
 896  777.3417
 897  889.3103
 898  802.2814
 899  651.6418
 900  623.0891
 901  576.9122
 902  616.7195
 903  641.7157
 904  714.5231
 905  913.3787
 906  865.9393
 907  938.0956
 908  965.3925
 909  933.2629
 910  946.7561
 911  945.2021
 912  953.5538
 913  963.6064
 914  854.5817
 915  928.382
 916  809.1466
 917  894.9817
 918  838.1681
 919  783.3394
 920  693.1556
 921  704.5989
 922  619.8594
 923  672.0731
 924  663.0941
 925  902.8636
 926  900.3293
 927  969.3765
 928  968.9346
 929  857.1251
 930  866.5758
 931  931.8413
 932  1097.543
 933  1087.911
 934  902.5052
 935  1008.463
 936  931.6122
 937  863.5385
 938  776.0568
 939  728.4183
 940  873.5463
 941  769.6993
 942  784.6037
 943  680.0422
 944  605.0646
 945  666.2894
 946  764.4719
 947  814.7646
 948  816.2657
 949  746.8993
 950  863.6943
 951  885.9864
 952  975.5739
 953  949.116
 954  900.1378
 955  926.7202
 956  958.975
 957  964.803
 958  874.4218
 959  749.429
 960  755.6246
 961  634.0181
 962  635.9938
 963  645.6731
 964  649.4303
 965  693.2089
 966  752.2454
 967  913.0675
 968  925.8453
 969  732.4278
 970  835.0367
 971  890.9161
 972  935.0178
 973  940.137
 974  944.3947
 975  1171.919
 976  1023.528
 977  971.2605
 978  887.7138
 979  793.7257
 980  776.7477
 981  624.7772
 982  634.3525
 983  720.4227
 984  897.8663
 985  1049.746
 986  847.9121
 987  746.439
 988  863.8688
 989  887.2495
 990  864.4436
 991  758.8588
 992  822.8736
 993  891.0674
 994  881.5305
 995  933.1443
 996  853.6418
 997  670.7638
 998  682.5375
 999  738.2762
1000  821.9112
1001  679.1431
1002  717.8682
1003  860.3672
1004  759.3644
1005  763.8682
1006  596.5987
1007  630.3742
1008  602.7041
1009  652.5461
1010  747.5494
1011  712.92
1012  603.17
1013  743.5369
1014  725.0034
1015  906.5126
1016  916.7619
1017  1023.613
1018  1076.919
1019  948.8901
1020  1086.163
1021  1037.496
1022  989.0993
1023  935.2918
