# Input file       =  1199723963.108346_cleaned.dat
# Candidate        =  PSR_0332+5434
# Telescope        =  AR
# Epoch_topo       =  58129.694237365118
# Epoch_bary       =  N/A
# T_sample         =  0.002
# Data Folded      =  7340032
# Data Avg         =  0.533574340601002
# Data StdDev      =  5.74754158248703 
# Profile Bins     =  512
# Profile Avg      =  7649.22665018176 
# Profile StdDev   =  688.170605372896 
# Reduced chi-sqr  =  0.551
# Prob(Noise)      <  1   (~0.0 sigma)
# P_topo (ms)      =  714.564239112939  +/- 0.000942
# P'_topo (s/s)    =  -0                +/- 4.97e-10
# P''_topo (s/s^2) =  0                 +/- 2.19e-13
# P_bary (ms)      =  N/A
# P'_bary (s/s)    =  N/A
# P''_bary (s/s^2) =  N/A
# P_orb (s)        =  N/A
# asin(i)/c (s)    =  N/A
# eccentricity     =  N/A
# w (rad)          =  N/A
# T_peri           =  N/A
######################################################
   0  8125.759
   1  7293.256
   2  7333.203
   3  7267.534
   4  7660.57
   5  7611.875
   6  8114.007
   7  7915.703
   8  8258.478
   9  7821.822
  10  7223.954
  11  7323.93
  12  7640.094
  13  7483.566
  14  8242.223
  15  7985.501
  16  7981.057
  17  7325.666
  18  7678.405
  19  7408.65
  20  7806.324
  21  7769.435
  22  7200.857
  23  7216.488
  24  7248.289
  25  7376.335
  26  7840.99
  27  7833.88
  28  7583.171
  29  7358.519
  30  7952.961
  31  7226.353
  32  7407.586
  33  7473.595
  34  7327.474
  35  7490.66
  36  7696.943
  37  7747.439
  38  7848.451
  39  8271.849
  40  7986.197
  41  7512.127
  42  7454.689
  43  7297.705
  44  7375.985
  45  7871.479
  46  7930.555
  47  8089.331
  48  7640.178
  49  7526.402
  50  7294.207
  51  7626.41
  52  7562.719
  53  7809.425
  54  8024.062
  55  8119.774
  56  7519.627
  57  7464.629
  58  7294.022
  59  7712.835
  60  7903.933
  61  7885.717
  62  7718.123
  63  8213.227
  64  7602.413
  65  7320.861
  66  7275.662
  67  8060.736
  68  8314.413
  69  8123.253
  70  7775.324
  71  7538.625
  72  7486.42
  73  7483.5
  74  7568.171
  75  8178.509
  76  7830.188
  77  7384.532
  78  7421.191
  79  8183.271
  80  8372.363
  81  8152.054
  82  8170.456
  83  7620.632
  84  7513.13
  85  7608.661
  86  7424.328
  87  7483.341
  88  7503.085
  89  6754.969
  90  7461.782
  91  7495.726
  92  7866.883
  93  7950.196
  94  7531.479
  95  7765.818
  96  8516.154
  97  8491.387
  98  8333.54
  99  7626.59
 100  8153.062
 101  7382.49
 102  7545.166
 103  7925.184
 104  8023.843
 105  7849.207
 106  7546.562
 107  7180.377
 108  8354.938
 109  8482.406
 110  8693.055
 111  8266.206
 112  8587.354
 113  8290.564
 114  7907.6
 115  7596.926
 116  7919.152
 117  8445.342
 118  8402.326
 119  8351.735
 120  8221.647
 121  8614.192
 122  8279.561
 123  8188.731
 124  7780.048
 125  7668.095
 126  7442.847
 127  7204.753
 128  7532.502
 129  7555.113
 130  7138.33
 131  7197.257
 132  7232.082
 133  7795.956
 134  7457.443
 135  7666.157
 136  7322.472
 137  7549.841
 138  7695.333
 139  7305.65
 140  7514.221
 141  7835.927
 142  7378.288
 143  7939.6
 144  7778.561
 145  7752.75
 146  7576.749
 147  7644.674
 148  7396.294
 149  7263.2
 150  7596.079
 151  7950.379
 152  7995.01
 153  8232.613
 154  7988.618
 155  7984.416
 156  7538.796
 157  7495.803
 158  7649.124
 159  7605.618
 160  7826.608
 161  8158.461
 162  8486.495
 163  8169.714
 164  7977.082
 165  7778.812
 166  7572.725
 167  7192.136
 168  7319.786
 169  7467.652
 170  7701.585
 171  7381.801
 172  7605.395
 173  7754.299
 174  7827.142
 175  7543.508
 176  7680.494
 177  7383.216
 178  7576.374
 179  7990.782
 180  8338.72
 181  7763.986
 182  8388.219
 183  7983.782
 184  7688.75
 185  7407.824
 186  7597.958
 187  7669.312
 188  8374.553
 189  8067.624
 190  7890.458
 191  8183.426
 192  8339.167
 193  8314.914
 194  7979.072
 195  7821.368
 196  8315.087
 197  8379.256
 198  8429.199
 199  7788.223
 200  7942.922
 201  7738.802
 202  7957.261
 203  8196.233
 204  8169.741
 205  8121.444
 206  8138.005
 207  8066.949
 208  8068.305
 209  7929.129
 210  7680.402
 211  7944.74
 212  7539.274
 213  7724.029
 214  7609.538
 215  7877.688
 216  7842.588
 217  7830.097
 218  7527.309
 219  7747.367
 220  7595.301
 221  7778.482
 222  7662.021
 223  7782.417
 224  7347.234
 225  7624.521
 226  6991.232
 227  6852.055
 228  6846.755
 229  7533.003
 230  7283.863
 231  7512.019
 232  7293.543
 233  7012.675
 234  7052.536
 235  7026.612
 236  7481.62
 237  7386.755
 238  7162.016
 239  7263.582
 240  7057.35
 241  7268.955
 242  7355.217
 243  7791.208
 244  7600.528
 245  7589.703
 246  7619.818
 247  7653.963
 248  8110.156
 249  7933.887
 250  7889.692
 251  8039.343
 252  7714.212
 253  7676.264
 254  7345.343
 255  7346.446
 256  7212.188
 257  7815.776
 258  7833.028
 259  7572.961
 260  7591.965
 261  7418.021
 262  7464.49
 263  7481.216
 264  7567.721
 265  7261.808
 266  6857.133
 267  6879.934
 268  7339.606
 269  7267.312
 270  7424.599
 271  7295.294
 272  7038.6
 273  7468.373
 274  7798.117
 275  7423.431
 276  7464.033
 277  7607.97
 278  7486.347
 279  7306.1
 280  7692.052
 281  7354.55
 282  7366.48
 283  7547.075
 284  7417.693
 285  7066.014
 286  7632.729
 287  7799.281
 288  8327.403
 289  8350.544
 290  7932.884
 291  7770.605
 292  7334.233
 293  7326.353
 294  7935.937
 295  7878.281
 296  7816.559
 297  7498.88
 298  7424.447
 299  7553.967
 300  7528.941
 301  7483.631
 302  7905.2
 303  8055.314
 304  7854.398
 305  7965.134
 306  8348.152
 307  8706.795
 308  8300.222
 309  8858.655
 310  9140.408
 311  9119.997
 312  8773.687
 313  8096.65
 314  7726.35
 315  7983.404
 316  7616.381
 317  7904.438
 318  7739.524
 319  7617.232
 320  7817.959
 321  7682.039
 322  7406.748
 323  7261.067
 324  6952.391
 325  7261.891
 326  7559.576
 327  7657.194
 328  7089.873
 329  7170.478
 330  7474.568
 331  7752.673
 332  7780.386
 333  7860.102
 334  7888.05
 335  7322.258
 336  7668.32
 337  7583.209
 338  7610.623
 339  7347.993
 340  7354.083
 341  7058.391
 342  7082.21
 343  6944.71
 344  7553.143
 345  7419.623
 346  7892.806
 347  7528.587
 348  7164.81
 349  7286.945
 350  7587.408
 351  7595.64
 352  7816.438
 353  7511.809
 354  7296.736
 355  7483.058
 356  7492.385
 357  7072.288
 358  7544.201
 359  7253.359
 360  7707.615
 361  7101.803
 362  7452.141
 363  7449.659
 364  7582.498
 365  7562.78
 366  7831.885
 367  7427.311
 368  7699.251
 369  7890.08
 370  7944.639
 371  7170.709
 372  7349.174
 373  7544.729
 374  7484.035
 375  7740.685
 376  7496.945
 377  7059.901
 378  7041.3
 379  7903.986
 380  7793.816
 381  7583.904
 382  8002.412
 383  7277.32
 384  7200.092
 385  7403.054
 386  6905.143
 387  7485.201
 388  7548.397
 389  7887.498
 390  7490.097
 391  7602.925
 392  7431.665
 393  7562.194
 394  7445.77
 395  7425.442
 396  7272.836
 397  7860.337
 398  7352.861
 399  7341.21
 400  7349.61
 401  7231.261
 402  7247.266
 403  7693.044
 404  7343.909
 405  7585.047
 406  7597.659
 407  7566.107
 408  7665.592
 409  7660.903
 410  7440.972
 411  7617.337
 412  7221.314
 413  7554.982
 414  7171.824
 415  7411.515
 416  7416.937
 417  7406.84
 418  7598.561
 419  7380.665
 420  7247.952
 421  7084.403
 422  7033.454
 423  7055.927
 424  7083.614
 425  7078.957
 426  7741.959
 427  7433.858
 428  6963.418
 429  6949.467
 430  7456.844
 431  7678.608
 432  7803.534
 433  7162.728
 434  7957.208
 435  7695.683
 436  7185.209
 437  7054.6
 438  7314.588
 439  7292.503
 440  7869.293
 441  7472.537
 442  7713.1
 443  7552.497
 444  7519.033
 445  7880.366
 446  7371.754
 447  7547.711
 448  7503.438
 449  7197.355
 450  7387.141
 451  7310.013
 452  7666.012
 453  7882.07
 454  7494.386
 455  7759.774
 456  7509.898
 457  7379.354
 458  7510.648
 459  7461.994
 460  7269.129
 461  7898.264
 462  8161.708
 463  8023.088
 464  7298.168
 465  7600.86
 466  7977.207
 467  7729.45
 468  7585.146
 469  7717.009
 470  7620.115
 471  8114.479
 472  7772.822
 473  8358.979
 474  8109.928
 475  7758.458
 476  7091.86
 477  7040.124
 478  7159.989
 479  7312.479
 480  7619.988
 481  7816.592
 482  7585.277
 483  7813.738
 484  7417.004
 485  7759.122
 486  7576.776
 487  8162.561
 488  7518.298
 489  7813.081
 490  7539.125
 491  7784.369
 492  7982.959
 493  7760.306
 494  7503.606
 495  7891.906
 496  7226.189
 497  7531.877
 498  7400.111
 499  7547.785
 500  7311.158
 501  7266.395
 502  7905.308
 503  8147.429
 504  7970.489
 505  8093.293
 506  7679.74
 507  7711.389
 508  7746.301
 509  7245.097
 510  7584.906
 511  7931.348
