# Input file       =  1199881642.101681_cleaned.dat
# Candidate        =  PSR_0332+5434
# Telescope        =  AR
# Epoch_topo       =  58131.519225713899
# Epoch_bary       =  N/A
# T_sample         =  0.002
# Data Folded      =  7143424
# Data Avg         =  0.154864951324171
# Data StdDev      =  4.56452196678143 
# Profile Bins     =  1024
# Profile Avg      =  1080.40322752278 
# Profile StdDev   =  381.240067198827 
# Reduced chi-sqr  =  1.229
# Prob(Noise)      <  6.53e-07   (~4.8 sigma)
# P_topo (ms)      =  714.565532840753  +/- 2.67e-05
# P'_topo (s/s)    =  -0                +/- 1.45e-11
# P''_topo (s/s^2) =  0                 +/- 6.56e-15
# P_bary (ms)      =  N/A
# P'_bary (s/s)    =  N/A
# P''_bary (s/s^2) =  N/A
# P_orb (s)        =  N/A
# asin(i)/c (s)    =  N/A
# eccentricity     =  N/A
# w (rad)          =  N/A
# T_peri           =  N/A
######################################################
   0  1063.661
   1  1124.235
   2  938.8793
   3  1033.13
   4  1079.083
   5  1293.7
   6  1307.868
   7  1200.949
   8  1200.7
   9  1118.267
  10  958.6676
  11  776.0831
  12  837.0712
  13  988.5493
  14  1045.405
  15  1059.638
  16  1204.7
  17  1134.331
  18  1058.432
  19  1096.504
  20  1285.215
  21  1526.349
  22  1411.418
  23  1453.04
  24  1361.829
  25  1272.717
  26  1026.392
  27  979.6615
  28  890.5896
  29  1108.948
  30  1172.169
  31  1210.417
  32  1120.026
  33  1102.581
  34  1117.526
  35  981.315
  36  1156.897
  37  1260.379
  38  1412.91
  39  1380.583
  40  1371.235
  41  1261.767
  42  965.861
  43  904.6061
  44  863.8466
  45  840.1818
  46  804.8479
  47  993.5198
  48  1195.428
  49  1243.035
  50  1062.038
  51  1052.946
  52  1068.77
  53  1300.684
  54  1474.774
  55  1644.128
  56  1691.534
  57  1540.738
  58  1372.287
  59  1136.978
  60  931.485
  61  745.2061
  62  798.7807
  63  816.4349
  64  940.2313
  65  955.497
  66  1074.636
  67  901.6326
  68  823.9211
  69  904.2966
  70  1073.646
  71  1223.909
  72  1129.948
  73  1198.915
  74  1175.526
  75  990.1514
  76  837.5355
  77  729.5253
  78  762.0634
  79  832.1022
  80  853.3657
  81  989.8523
  82  903.5532
  83  869.5158
  84  866.746
  85  843.5844
  86  1009.699
  87  1033.531
  88  1145.826
  89  1102.646
  90  1227.7
  91  1181.298
  92  1152.47
  93  996.6417
  94  1036.983
  95  1102.975
  96  1251.072
  97  1249.65
  98  1093.207
  99  1046.22
 100  1008.1
 101  958.1503
 102  897.3741
 103  1013.572
 104  1290.909
 105  1267.535
 106  1284.101
 107  1006.524
 108  868.4001
 109  664.2897
 110  705.6779
 111  691.7225
 112  766.8936
 113  856.7126
 114  974.4472
 115  1063.434
 116  1122.534
 117  1198.923
 118  1304.25
 119  1373.853
 120  1440.639
 121  1485.411
 122  1472.95
 123  1305.992
 124  1088.297
 125  920.9302
 126  845.6721
 127  818.1864
 128  736.0782
 129  944.052
 130  1002.98
 131  1132.294
 132  1065.205
 133  1039.716
 134  1003.737
 135  1018.402
 136  1194.791
 137  1265.703
 138  1388.393
 139  1371.801
 140  1266.511
 141  1077.478
 142  942.9565
 143  863.1648
 144  778.7302
 145  787.6608
 146  870.1592
 147  935.8627
 148  1029.317
 149  1109.843
 150  1060.78
 151  998.4467
 152  1009.444
 153  1241.89
 154  1405.689
 155  1492.719
 156  1442.971
 157  1348.395
 158  1180.031
 159  1018.988
 160  1038.865
 161  950.6332
 162  1162.289
 163  1199.978
 164  1331.306
 165  1127.187
 166  988.4225
 167  824.1979
 168  856.4056
 169  970.8265
 170  1077.031
 171  1055.301
 172  992.7036
 173  930.0003
 174  676.7883
 175  532.5347
 176  468.8299
 177  687.5795
 178  791.1043
 179  895.1265
 180  1083.485
 181  1127.725
 182  1163.134
 183  1068.516
 184  1208.255
 185  1299.601
 186  1387.713
 187  1379.41
 188  1416.406
 189  1267.542
 190  1065.712
 191  910.1686
 192  866.0546
 193  758.3729
 194  813.75
 195  931.2265
 196  1006.319
 197  1113.788
 198  1097.258
 199  1143.847
 200  1027.966
 201  1167.114
 202  1175.375
 203  1249.844
 204  1194.156
 205  1197.101
 206  1021.693
 207  747.6474
 208  528.0932
 209  531.3538
 210  694.806
 211  713.6528
 212  801.8193
 213  950.1747
 214  1163.67
 215  1124.422
 216  972.6345
 217  898.4069
 218  1105.916
 219  1389.871
 220  1645.75
 221  1667.287
 222  1500.649
 223  1471.838
 224  1384.664
 225  1337.556
 226  1145.656
 227  1209.553
 228  1156.543
 229  1261.328
 230  1235.973
 231  1220.102
 232  1135.727
 233  1027.885
 234  1092.802
 235  1209.031
 236  1407.508
 237  1413.081
 238  1255.465
 239  1085.093
 240  896.168
 241  775.9363
 242  735.0553
 243  937.3571
 244  1063.108
 245  1157.87
 246  1127.776
 247  1214.264
 248  1122.995
 249  1030.625
 250  938.0516
 251  1168.648
 252  1291.044
 253  1406.56
 254  1341.663
 255  1264.343
 256  1081.166
 257  1008.432
 258  984.4582
 259  957.7271
 260  1047.502
 261  1016.352
 262  1250.172
 263  1259.674
 264  1284.298
 265  1060.756
 266  993.9642
 267  990.1893
 268  1031.824
 269  1065.45
 270  1156.472
 271  1213.649
 272  1144.128
 273  943.3362
 274  711.8251
 275  657.2557
 276  593.9322
 277  752.8895
 278  848.8631
 279  907.2876
 280  851.0713
 281  813.9005
 282  998.2464
 283  1043.809
 284  1033.757
 285  1100.327
 286  1270.589
 287  1392.234
 288  1389.381
 289  1228.681
 290  1161.709
 291  1017.2
 292  938.9185
 293  922.0046
 294  906.04
 295  1079.587
 296  885.9664
 297  967.0128
 298  779.841
 299  851.0714
 300  812.6484
 301  1029.01
 302  1214.497
 303  1368.695
 304  1338.974
 305  1176.063
 306  963.6839
 307  896.6589
 308  900.8813
 309  909.4268
 310  924.3195
 311  975.4414
 312  1012.535
 313  939.422
 314  888.2087
 315  965.2141
 316  1002.863
 317  973.2252
 318  1047.321
 319  1143.708
 320  1325.755
 321  1389.896
 322  1306.174
 323  1085.101
 324  846.5293
 325  928.8696
 326  963.7343
 327  1067.649
 328  1106.713
 329  1200.625
 330  1278.038
 331  1152.042
 332  1000.548
 333  843.7845
 334  1037.923
 335  1266.568
 336  1412.81
 337  1236.042
 338  1085.703
 339  900.0665
 340  814.7252
 341  665.9555
 342  743.8951
 343  844.6555
 344  935.0736
 345  1040.032
 346  1007.181
 347  993.5677
 348  1003.62
 349  1157.513
 350  1234.167
 351  1387.226
 352  1499.469
 353  1547.752
 354  1412.711
 355  1334.698
 356  1286.493
 357  1118.556
 358  990.4901
 359  848.4585
 360  921.3203
 361  900.8668
 362  1069.74
 363  1174.51
 364  1183.207
 365  1049.318
 366  1078.639
 367  1117.755
 368  1245.45
 369  1264.948
 370  1419.875
 371  1297.12
 372  1028.781
 373  776.0667
 374  744.6931
 375  859.7003
 376  966.2833
 377  1092.164
 378  1064.539
 379  1045.608
 380  1126.232
 381  1204.955
 382  1198.811
 383  1197.911
 384  1268.802
 385  1262.223
 386  1223.727
 387  1118.293
 388  1170.377
 389  1097.088
 390  1161.766
 391  1166.589
 392  1127.565
 393  1097.148
 394  1027.139
 395  1175.464
 396  1180.83
 397  1221.049
 398  1073.746
 399  1016.861
 400  872.0469
 401  1020.123
 402  1086.904
 403  1198.118
 404  1012.663
 405  918.4944
 406  820.2633
 407  710.3741
 408  725.9648
 409  759.8052
 410  970.3577
 411  1035.776
 412  1064.649
 413  1042.149
 414  1018.356
 415  1075.255
 416  1070.618
 417  1179.247
 418  1377.701
 419  1490.859
 420  1523.047
 421  1371.875
 422  1148.326
 423  978.2136
 424  772.2438
 425  869.6391
 426  828.3574
 427  897.3283
 428  861.4489
 429  894.7294
 430  935.1578
 431  880.2785
 432  925.4308
 433  938.6191
 434  1170.558
 435  1294.181
 436  1491.222
 437  1174.375
 438  1001.863
 439  735.5698
 440  747.8532
 441  735.088
 442  835.0697
 443  921.4354
 444  885.5468
 445  977.8848
 446  975.8447
 447  988.5724
 448  876.1559
 449  1065.983
 450  1252.5
 451  1546.016
 452  1429.989
 453  1395.264
 454  1211.671
 455  1150.825
 456  991.1449
 457  738.0567
 458  660.2626
 459  577.8824
 460  954.6334
 461  1019.149
 462  1190.463
 463  1064.984
 464  1137.424
 465  1077.013
 466  1097.469
 467  1060.011
 468  1160.764
 469  1176.802
 470  1122.579
 471  976.993
 472  713.5521
 473  632.034
 474  578.213
 475  676.5998
 476  799.5262
 477  1028.891
 478  1232.156
 479  1310.5
 480  1164.925
 481  1209.939
 482  1220.462
 483  1397.34
 484  1472.345
 485  1489.918
 486  1457.82
 487  1205.6
 488  1080.44
 489  892.7448
 490  962.3629
 491  873.6191
 492  975.9695
 493  1041.498
 494  1044.587
 495  1021.936
 496  981.9869
 497  1053.364
 498  1006.362
 499  1108.053
 500  1185.695
 501  1361.071
 502  1227.105
 503  1217.328
 504  1033.576
 505  855.9527
 506  719.6321
 507  609.082
 508  664.0593
 509  694.6587
 510  770.0021
 511  823.8073
 512  833.6903
 513  979.9437
 514  1067.131
 515  1067.14
 516  1250.816
 517  1409.734
 518  1517.84
 519  1437.384
 520  1342.336
 521  1399.096
 522  1234.773
 523  1172.302
 524  1017.157
 525  1140.887
 526  1108.297
 527  1000.946
 528  959.1636
 529  889.8309
 530  953.4259
 531  938.9036
 532  1100.224
 533  1250.675
 534  1274.628
 535  1103.031
 536  1018.602
 537  928.9728
 538  939.9125
 539  835.0502
 540  779.7184
 541  798.4829
 542  880.8271
 543  968.2574
 544  1081.738
 545  1119.502
 546  1156.587
 547  1114.036
 548  1129.024
 549  1302.001
 550  1326.539
 551  1541.292
 552  1458.448
 553  1270.558
 554  971.7492
 555  789.4037
 556  868.0931
 557  836.7009
 558  924.1072
 559  927.1721
 560  953.0682
 561  911.0182
 562  924.1247
 563  921.4443
 564  954.8766
 565  1009.579
 566  1213.471
 567  1248.454
 568  1333.108
 569  1280.081
 570  1048.626
 571  747.6871
 572  507.193
 573  713.777
 574  757.4669
 575  866.4231
 576  877.7277
 577  962.6255
 578  1006.974
 579  1043.661
 580  1080.867
 581  1134.33
 582  1278.509
 583  1477.063
 584  1620.782
 585  1495.215
 586  1353.83
 587  1123.611
 588  1150.978
 589  1100.746
 590  1142.798
 591  1102.514
 592  1070.211
 593  1137.5
 594  1109.453
 595  1123.738
 596  1053.017
 597  1087.518
 598  1235.693
 599  1356.036
 600  1404.339
 601  1361.463
 602  1323.844
 603  1223.984
 604  1044.664
 605  835.3521
 606  834.71
 607  901.5305
 608  1012.948
 609  1126.661
 610  1134.486
 611  1226.21
 612  1253.937
 613  1451.826
 614  1683.323
 615  1799.404
 616  2031.983
 617  2078.315
 618  2066.97
 619  2001.17
 620  1796.433
 621  1738.592
 622  1524.557
 623  1569.77
 624  1464.635
 625  1502.375
 626  1451.793
 627  1350.672
 628  1229.559
 629  1311.257
 630  1400.852
 631  1362.308
 632  1391.964
 633  1421.698
 634  1485.672
 635  1165.466
 636  1033.467
 637  753.6163
 638  682.6409
 639  628.6237
 640  712.2648
 641  867.1296
 642  907.242
 643  1104.399
 644  1203.51
 645  1130.276
 646  1094.022
 647  1178.289
 648  1391.521
 649  1594.511
 650  1555.302
 651  1517.868
 652  1310.838
 653  1281.862
 654  1211.138
 655  1151.38
 656  1123.88
 657  1035.254
 658  1012.229
 659  959.4965
 660  912.8359
 661  911.7819
 662  879.8289
 663  941.4195
 664  975.4177
 665  1074.594
 666  1275.929
 667  1330.304
 668  1369.553
 669  1148.996
 670  972.175
 671  805.0786
 672  725.7205
 673  752.4153
 674  837.7397
 675  1000.862
 676  1027.645
 677  1067.34
 678  987.1404
 679  1135.275
 680  1062.568
 681  1265.124
 682  1345.494
 683  1437.302
 684  1466.628
 685  1311.052
 686  1227.083
 687  919.9808
 688  877.5064
 689  899.6561
 690  989.1155
 691  1014.031
 692  1129.443
 693  1185.165
 694  1121.387
 695  1022.073
 696  1164.035
 697  1317.085
 698  1258.532
 699  1319.731
 700  1144.388
 701  1074.943
 702  913.6736
 703  782.0916
 704  667.9515
 705  506.4456
 706  686.7693
 707  884.2045
 708  1023.948
 709  1120.205
 710  1155.85
 711  1338.095
 712  1431.251
 713  1361.752
 714  1546.112
 715  1609.808
 716  1714.994
 717  1468.722
 718  1267.382
 719  1102.082
 720  1025.26
 721  1007.584
 722  837.3895
 723  657.3768
 724  521.9544
 725  604.5088
 726  869.1575
 727  997.6851
 728  1058.955
 729  1111.867
 730  1272.122
 731  1319.966
 732  1403.861
 733  1336.765
 734  1327.598
 735  1029.587
 736  969.7567
 737  745.8312
 738  685.6074
 739  603.2449
 740  749.6611
 741  948.092
 742  1006.188
 743  960.1632
 744  1075.027
 745  1198.571
 746  1330.063
 747  1332.971
 748  1381.163
 749  1594.326
 750  1526.234
 751  1429.129
 752  1221.409
 753  1010.379
 754  982.1732
 755  945.634
 756  1079.232
 757  1011.036
 758  1119.46
 759  1195.871
 760  1101.582
 761  1037.129
 762  1067.945
 763  1119.94
 764  1230.388
 765  1225.487
 766  1218.581
 767  1186.949
 768  964.6909
 769  1024.667
 770  779.9505
 771  846.366
 772  750.4866
 773  864.0434
 774  813.4583
 775  804.5891
 776  897.8748
 777  1151.91
 778  1178.343
 779  1314.097
 780  1280.119
 781  1370.956
 782  1428.506
 783  1346.035
 784  1343.629
 785  1143.96
 786  1143.512
 787  956.9033
 788  897.4852
 789  796.9776
 790  878.7706
 791  954.3652
 792  1111.222
 793  1039.858
 794  1047.276
 795  993.0631
 796  1155.564
 797  1291.248
 798  1161.359
 799  1211.17
 800  1107.376
 801  1102.354
 802  845.3278
 803  740.1641
 804  835.6021
 805  908.7507
 806  1047.55
 807  1080.58
 808  1110.894
 809  1048.838
 810  980.921
 811  931.5179
 812  1234.694
 813  1352.678
 814  1582.506
 815  1350.349
 816  1324.52
 817  1261.705
 818  1207.55
 819  1139.952
 820  966.0559
 821  965.9916
 822  1031.282
 823  1165.998
 824  1245.872
 825  1269.344
 826  1133.213
 827  1047.578
 828  913.4833
 829  942.2306
 830  1024.858
 831  1050.208
 832  1228.864
 833  1098.88
 834  1000.427
 835  652.3358
 836  495.32
 837  556.9796
 838  647.0379
 839  824.7542
 840  893.7001
 841  948.4584
 842  1042.753
 843  1013.371
 844  1190.575
 845  1343.53
 846  1459.032
 847  1612.737
 848  1502.884
 849  1454.321
 850  1233.097
 851  1085.829
 852  937.2604
 853  849.1945
 854  863.3093
 855  926.4094
 856  945.0721
 857  1036.526
 858  1053.792
 859  1155.849
 860  1283.679
 861  1290.861
 862  1409.938
 863  1377.248
 864  1543.007
 865  1411.803
 866  1266.24
 867  1072.857
 868  801.254
 869  632.2522
 870  521.9335
 871  671.7947
 872  701.3163
 873  816.0291
 874  951.1594
 875  1000.812
 876  894.3297
 877  1037.617
 878  1143.036
 879  1452.18
 880  1434.368
 881  1495.683
 882  1526.28
 883  1400.869
 884  1328.191
 885  1091.785
 886  866.3578
 887  641.263
 888  747.4093
 889  915.2526
 890  1012.967
 891  886.2791
 892  931.1208
 893  904.9711
 894  972.3923
 895  933.1284
 896  1076.73
 897  1282.766
 898  1255.161
 899  1183.243
 900  1008.339
 901  786.4731
 902  668.5065
 903  650.1624
 904  858.1725
 905  931.4258
 906  1050.558
 907  1044.85
 908  891.2282
 909  881.1756
 910  1043.965
 911  1129.862
 912  1289.494
 913  1309.788
 914  1507.976
 915  1491.18
 916  1290.743
 917  980.178
 918  728.5538
 919  707.4781
 920  754.9905
 921  878.3405
 922  882.3456
 923  986.3904
 924  1045.134
 925  1226.028
 926  1122.215
 927  1175.164
 928  1093.776
 929  1155.303
 930  1228.282
 931  1232.993
 932  1282.768
 933  1019.454
 934  892.9032
 935  734.1716
 936  668.8367
 937  640.8778
 938  578.9434
 939  711.6501
 940  878.5366
 941  878.1096
 942  969.9889
 943  959.3846
 944  1079.311
 945  1220.098
 946  1217.361
 947  1243.87
 948  1191.123
 949  1367.186
 950  1178.334
 951  998.6357
 952  900.5321
 953  974.8733
 954  894.3198
 955  943.3393
 956  960.8005
 957  1059.589
 958  990.1119
 959  948.4667
 960  924.5809
 961  771.2723
 962  971.9382
 963  1022.899
 964  1203.074
 965  1191.612
 966  1027.687
 967  849.7137
 968  598.7104
 969  569.1653
 970  660.1901
 971  812.7019
 972  994.4874
 973  1111.787
 974  1038.047
 975  1062.938
 976  865.5599
 977  981.3883
 978  1041.749
 979  1267.454
 980  1492.683
 981  1387.636
 982  1240.81
 983  925.8469
 984  947.74
 985  985.5847
 986  1027.767
 987  1065.906
 988  1206.419
 989  1258.785
 990  1259.602
 991  1133.031
 992  1112.685
 993  1051.615
 994  1112.854
 995  1152.13
 996  1075.742
 997  1057.631
 998  1046.471
 999  892.0826
1000  753.4858
1001  638.8585
1002  623.9224
1003  635.2008
1004  806.8892
1005  922.7293
1006  1045.221
1007  1082.301
1008  1185.418
1009  1177.389
1010  1276.974
1011  1235.712
1012  1435.757
1013  1486.586
1014  1591.084
1015  1387.193
1016  1237.385
1017  1010.621
1018  952.5444
1019  961.341
1020  1056.837
1021  1030.396
1022  1058.63
1023  1091.875
