# Input file       =  1199795478.095342_cleaned.dat
# Candidate        =  PSR_0332+5434
# Telescope        =  AR
# Epoch_topo       =  58130.521957122015
# Epoch_bary       =  N/A
# T_sample         =  0.002
# Data Folded      =  7208960
# Data Avg         =  0.158299371824515
# Data StdDev      =  5.6994610088347  
# Profile Bins     =  1024
# Profile Avg      =  1114.38331767634 
# Profile StdDev   =  478.211610869329 
# Reduced chi-sqr  =  0.533
# Prob(Noise)      <  1   (~0.0 sigma)
# P_topo (ms)      =  714.564822564761  +/- 3.64e-05
# P'_topo (s/s)    =  -0                +/- 1.96e-11
# P''_topo (s/s^2) =  0                 +/- 8.79e-15
# P_bary (ms)      =  N/A
# P'_bary (s/s)    =  N/A
# P''_bary (s/s^2) =  N/A
# P_orb (s)        =  N/A
# asin(i)/c (s)    =  N/A
# eccentricity     =  N/A
# w (rad)          =  N/A
# T_peri           =  N/A
######################################################
   0  837.713
   1  854.851
   2  976.9917
   3  1060.593
   4  1044.42
   5  988.7324
   6  968.3689
   7  1080.093
   8  1076.449
   9  1149.219
  10  1154.163
  11  1185.404
  12  1083.289
  13  905.4196
  14  812.655
  15  827.4269
  16  933.546
  17  929.7184
  18  938.0625
  19  1058.511
  20  986.3987
  21  854.0359
  22  749.0873
  23  867.9316
  24  1018.706
  25  1182.196
  26  1308.19
  27  1229.374
  28  1165.487
  29  1174.844
  30  1249.634
  31  1246.806
  32  1275.516
  33  1253.625
  34  1148.466
  35  1027.623
  36  921.8141
  37  683.3984
  38  677.6672
  39  807.8392
  40  1142.131
  41  1119.764
  42  1124.632
  43  1086.62
  44  1059.175
  45  1024.098
  46  876.9805
  47  1073.256
  48  1071.708
  49  1017.963
  50  1028.815
  51  1221.017
  52  1356.569
  53  1146.418
  54  1159.504
  55  1079.58
  56  1160.647
  57  1153.433
  58  1268.326
  59  1335.027
  60  1327.814
  61  1225.611
  62  1122.417
  63  1099.733
  64  1135.394
  65  1247.893
  66  1301.245
  67  1354.052
  68  1277.299
  69  1076.557
  70  1019.917
  71  1030.244
  72  1271.681
  73  1284.67
  74  1356.747
  75  1351.292
  76  1236.187
  77  1189.681
  78  876.8421
  79  727.4683
  80  708.9609
  81  895.8287
  82  1038.274
  83  1070.009
  84  982.7351
  85  1027.282
  86  1055.365
  87  1207.636
  88  1203.674
  89  1284.868
  90  1364.45
  91  1398.313
  92  1406.136
  93  1526.058
  94  1398.432
  95  1345.306
  96  1224.781
  97  1458.313
  98  1329.797
  99  1141.896
 100  1028.616
 101  1095.097
 102  1142.271
 103  1077.94
 104  1094.895
 105  1205.464
 106  1316.165
 107  1402.171
 108  1297.958
 109  1311.768
 110  1374.095
 111  1299.937
 112  1154.302
 113  1010.059
 114  1027.935
 115  1034.959
 116  969.7629
 117  1006.324
 118  813.8171
 119  796.2992
 120  927.6863
 121  1169.41
 122  1425.076
 123  1469.465
 124  1513.709
 125  1487.528
 126  1431.199
 127  1454.824
 128  1266.355
 129  1143.648
 130  990.2195
 131  969.8044
 132  1070.285
 133  1142.736
 134  1251.597
 135  1195.249
 136  1137.834
 137  1145.695
 138  1151.958
 139  1194.937
 140  1480.485
 141  1523.253
 142  1457.772
 143  1252.076
 144  1276.925
 145  1202.323
 146  961.1315
 147  1024.882
 148  1069.505
 149  1155.173
 150  1107.318
 151  1215.636
 152  1215.535
 153  1148.333
 154  958.8062
 155  1045.475
 156  1215.328
 157  1492.851
 158  1577.297
 159  1512.497
 160  1489.215
 161  1181.892
 162  1194.151
 163  1184.692
 164  1367.887
 165  1416.953
 166  1322.077
 167  1292.957
 168  1186.439
 169  1261.561
 170  1172.731
 171  1038.843
 172  1055.526
 173  1155.156
 174  1346.42
 175  1493.618
 176  1508.811
 177  1377.331
 178  1216.621
 179  1047.576
 180  777.6241
 181  771.5306
 182  1004.415
 183  1424.411
 184  1479.36
 185  1417.33
 186  1072.214
 187  1009.434
 188  1130.593
 189  1459.482
 190  1660.801
 191  1371.416
 192  1251.69
 193  1150.731
 194  1056.005
 195  1093.535
 196  996.6537
 197  1132.023
 198  966.7747
 199  1177.699
 200  1331.976
 201  1304.599
 202  1144.232
 203  1016.568
 204  960.7543
 205  1058.469
 206  1165.436
 207  1133.336
 208  1067.828
 209  929.1027
 210  1055.387
 211  927.0991
 212  1011.312
 213  982.3618
 214  1149.963
 215  1195.965
 216  1122.494
 217  1019.32
 218  957.774
 219  946.5044
 220  1049.871
 221  993.9914
 222  1059.546
 223  1225.119
 224  1396.455
 225  1611.694
 226  1422.008
 227  1331.285
 228  1100.308
 229  1043.782
 230  1050.291
 231  909.3958
 232  1031.709
 233  918.0626
 234  773.8216
 235  688.3068
 236  678.3235
 237  681.4273
 238  616.7327
 239  862.5031
 240  1157.438
 241  1364.698
 242  1293.173
 243  1282.965
 244  1265.807
 245  1362.536
 246  1208.173
 247  997.3575
 248  769.5468
 249  751.6663
 250  771.9627
 251  703.2264
 252  712.3752
 253  862.481
 254  1044.039
 255  1205.012
 256  1210.418
 257  1183.932
 258  1348.117
 259  1300.108
 260  1271.935
 261  776.059
 262  905.3811
 263  1057.323
 264  1313.403
 265  1377.93
 266  1252.146
 267  1163.857
 268  1007.358
 269  904.7201
 270  1048.798
 271  918.8249
 272  1000.644
 273  1115.651
 274  1286.95
 275  1248.621
 276  991.0914
 277  791.9209
 278  802.8154
 279  755.7
 280  932.5169
 281  886.5203
 282  1015.486
 283  1032.915
 284  997.1852
 285  966.4775
 286  980.9389
 287  1123.9
 288  1383.154
 289  1475.355
 290  1617.928
 291  1475.215
 292  1416.641
 293  1312.05
 294  1173.198
 295  1264.353
 296  1148.088
 297  1124.132
 298  974.8785
 299  1067.948
 300  1110.679
 301  1108.387
 302  902.4449
 303  1004.453
 304  1025.019
 305  1413.548
 306  1415.378
 307  1540.286
 308  1652.127
 309  1394.655
 310  1321.261
 311  1034.673
 312  1016.094
 313  1063.751
 314  994.8116
 315  1035.977
 316  947.1627
 317  931.79
 318  973.0001
 319  854.9765
 320  999.2346
 321  1104.311
 322  1249.326
 323  1488.464
 324  1355.707
 325  1312.715
 326  1036.477
 327  1003.751
 328  1111.044
 329  1144.463
 330  1389.318
 331  1226.885
 332  1302.913
 333  1145.549
 334  982.0582
 335  845.8604
 336  882.9398
 337  896.1592
 338  1005.007
 339  812.2776
 340  998.8994
 341  1051.958
 342  1198.01
 343  1134.981
 344  995.8447
 345  1121.55
 346  1071.444
 347  1147.857
 348  1243.567
 349  1266.003
 350  1227.814
 351  1138.543
 352  849.4999
 353  943.2159
 354  933.3552
 355  1182.063
 356  1334.726
 357  1373.541
 358  1490.742
 359  1189.296
 360  1154.969
 361  1015.714
 362  1154.449
 363  1257.057
 364  1272.203
 365  1205.8
 366  1020.869
 367  925.6699
 368  962.9906
 369  1083.589
 370  1123.95
 371  1084.653
 372  1091.144
 373  1310.269
 374  1218.479
 375  1236.975
 376  1051.696
 377  1003.267
 378  1044.564
 379  1115.96
 380  1167.544
 381  1121.243
 382  956.0065
 383  885.8404
 384  800.4391
 385  910.9498
 386  1096.405
 387  1355.708
 388  1591.318
 389  1597.7
 390  1559.39
 391  1537.795
 392  1369.002
 393  1189.568
 394  983.5865
 395  1043.437
 396  1143.655
 397  1074.461
 398  1067.346
 399  1000.118
 400  928.7278
 401  851.2722
 402  906.8141
 403  1147.825
 404  1260.319
 405  1266.128
 406  1255.62
 407  1124.853
 408  1202.406
 409  985.5512
 410  1040.402
 411  990.8693
 412  1108.86
 413  1175.971
 414  1088.16
 415  1082.428
 416  1047.705
 417  1025.639
 418  1048.63
 419  957.8741
 420  1046.711
 421  1157.402
 422  1256.008
 423  1361.435
 424  1105.101
 425  927.3206
 426  739.4356
 427  853.9293
 428  908.8148
 429  979.1457
 430  1083.465
 431  1097.236
 432  981.0719
 433  885.2206
 434  860.6403
 435  1010.671
 436  1157.178
 437  1185.762
 438  1312.672
 439  1247.096
 440  1298.638
 441  1244.666
 442  1079.456
 443  956.7466
 444  819.2016
 445  929.3874
 446  942.8711
 447  905.34
 448  972.3823
 449  1025.283
 450  1145.321
 451  1213.262
 452  1113.634
 453  1274.541
 454  1150.215
 455  1280.463
 456  1149.002
 457  1150.232
 458  1323.733
 459  1328.702
 460  1280.031
 461  1043.93
 462  907.2897
 463  1016.58
 464  1038.563
 465  1231.648
 466  1230.217
 467  1171.875
 468  1133.278
 469  1045.975
 470  1045.505
 471  1060.268
 472  996.6571
 473  954.8335
 474  924.2479
 475  980.7465
 476  998.7457
 477  915.9337
 478  1081.081
 479  1164.306
 480  1321.349
 481  1372.163
 482  1226.098
 483  1065.941
 484  884.591
 485  857.5591
 486  965.3265
 487  798.175
 488  1001.454
 489  916.8655
 490  1004.291
 491  976.6461
 492  830.3317
 493  920.8821
 494  828.8665
 495  947.517
 496  969.8866
 497  1037.595
 498  1020.891
 499  954.3175
 500  775.2924
 501  907.3556
 502  936.4926
 503  1113.058
 504  1026.589
 505  981.5461
 506  1109.833
 507  926.881
 508  973.6041
 509  696.3964
 510  767.225
 511  871.9405
 512  1047.937
 513  1250.437
 514  1260.209
 515  1091.29
 516  952.8612
 517  696.4988
 518  823.3485
 519  1010.518
 520  1179.424
 521  1310.168
 522  1279.554
 523  1389.014
 524  1130.678
 525  954.4319
 526  943.3694
 527  888.2758
 528  1056.33
 529  993.7294
 530  1106.763
 531  1055.429
 532  1003.303
 533  1009.562
 534  1081.007
 535  987.4404
 536  1102.532
 537  1125.436
 538  1263.829
 539  1154.606
 540  1119.285
 541  1216.11
 542  1077.195
 543  956.6993
 544  873.4296
 545  964.3105
 546  1133.275
 547  1087.034
 548  1043.938
 549  1018.3
 550  887.7062
 551  1053.498
 552  1050.111
 553  1325.8
 554  1317.177
 555  1443.824
 556  1508.581
 557  1195.084
 558  985.0335
 559  869.7777
 560  905.3813
 561  968.7411
 562  979.9484
 563  1000.685
 564  950.9863
 565  937.2139
 566  1088.362
 567  1083.606
 568  1081.906
 569  1170.544
 570  1253.618
 571  1286.683
 572  949.4144
 573  914.0408
 574  949.267
 575  963.1547
 576  996.1322
 577  878.2745
 578  1052.493
 579  1021.518
 580  1054.574
 581  1032.399
 582  926.9639
 583  935.348
 584  1026.819
 585  1084.719
 586  1256.971
 587  1253.301
 588  1426.803
 589  1389.799
 590  1260.586
 591  1083.858
 592  1021.883
 593  1160.693
 594  1108.865
 595  1002.864
 596  987.9578
 597  1078.473
 598  1129.224
 599  1148.928
 600  1100.336
 601  1221.448
 602  1148.737
 603  1212.387
 604  1252.651
 605  1231.708
 606  1325.212
 607  1112.606
 608  1209.319
 609  1181.657
 610  1337.236
 611  1494.906
 612  1481.527
 613  1559.893
 614  1573.466
 615  1383.953
 616  1384.567
 617  1192.713
 618  1456.827
 619  1649.99
 620  1779.876
 621  1859.759
 622  1515.151
 623  1461.69
 624  1405.042
 625  1448.557
 626  1501.278
 627  1398.193
 628  1403.432
 629  1242.748
 630  1205.865
 631  1195.523
 632  1031.571
 633  904.899
 634  963.3926
 635  1025.4
 636  1056.686
 637  893.0559
 638  994.9608
 639  1143.549
 640  1166.886
 641  1216.633
 642  976.8406
 643  1062.715
 644  1189.425
 645  1441.05
 646  1440.299
 647  1337.984
 648  998.187
 649  969.9858
 650  826.4545
 651  1202.459
 652  1316.722
 653  1363.926
 654  1368.921
 655  1245.502
 656  1426.568
 657  1188.667
 658  1005.176
 659  892.7808
 660  949.5679
 661  1145.505
 662  1128.776
 663  1033.688
 664  985.9466
 665  804.263
 666  819.778
 667  794.9296
 668  950.1757
 669  1191.318
 670  1363.202
 671  1654.512
 672  1463.349
 673  1294.278
 674  1096.104
 675  976.631
 676  1004.628
 677  920.1182
 678  953.9271
 679  1032.451
 680  897.6949
 681  985.197
 682  783.5809
 683  866.8398
 684  1061.638
 685  1195.992
 686  1424.116
 687  1380.668
 688  1508.906
 689  1446.705
 690  1222.055
 691  1028.413
 692  946.0885
 693  1064.26
 694  1025.08
 695  952.4453
 696  879.3468
 697  800.7295
 698  686.0851
 699  874.7122
 700  955.0615
 701  1016.276
 702  981.992
 703  1056.956
 704  1202.292
 705  1113.055
 706  1211.487
 707  1098.711
 708  1095.745
 709  1055.459
 710  1000.033
 711  1214.115
 712  1332.249
 713  1396.024
 714  1211.702
 715  838.8091
 716  857.3218
 717  1111.676
 718  1335.518
 719  1423.316
 720  1225.65
 721  1299.795
 722  1162.277
 723  967.9145
 724  938.0125
 725  949.9492
 726  1096.761
 727  1105.655
 728  1182.877
 729  1185.272
 730  1051.968
 731  973.2005
 732  826.4575
 733  830.8228
 734  1015.777
 735  1178.149
 736  1329.698
 737  1353.503
 738  1354.186
 739  1320.727
 740  1152.183
 741  1176.748
 742  1102.524
 743  988.8141
 744  1013.054
 745  1036.946
 746  1070.453
 747  1002.089
 748  938.9599
 749  1109.502
 750  1007.938
 751  1280.454
 752  1337.301
 753  1650.829
 754  1642.36
 755  1455.347
 756  1221.379
 757  953.2659
 758  989.8433
 759  1084.492
 760  1225.021
 761  1176.574
 762  983.775
 763  816.3214
 764  786.0818
 765  851.7451
 766  873.8145
 767  974.551
 768  910.0345
 769  1035.496
 770  1123.147
 771  1205.961
 772  1176.347
 773  926.657
 774  835.7765
 775  684.9234
 776  845.1038
 777  1002.147
 778  1170.963
 779  1347.579
 780  1268.549
 781  1255.837
 782  1055.592
 783  1145.538
 784  1315.377
 785  1173.995
 786  1155.962
 787  1090.488
 788  1226.507
 789  1218.672
 790  1265.925
 791  1263.64
 792  1332.051
 793  1356.481
 794  1320.272
 795  1091.462
 796  978.1844
 797  1115.901
 798  1003.75
 799  1128.389
 800  1077.879
 801  1253.007
 802  1191.806
 803  1224.645
 804  1239.331
 805  1113.997
 806  1040.261
 807  1009.254
 808  1111.432
 809  1259.016
 810  1221.382
 811  1094.993
 812  1060.452
 813  897.3834
 814  1034.443
 815  1018.712
 816  1217.542
 817  1256.901
 818  1324.956
 819  1590.665
 820  1472.166
 821  1303.89
 822  1022.63
 823  1028.475
 824  1146.873
 825  1140.309
 826  1018.56
 827  1055.985
 828  1032.275
 829  967.1809
 830  808.1016
 831  564.6505
 832  733.9753
 833  945.6754
 834  1241.265
 835  1254.214
 836  1211.656
 837  1183.664
 838  1097.716
 839  978.0977
 840  964.1774
 841  947.3142
 842  1060.023
 843  1157.956
 844  1172.806
 845  1145.463
 846  879.5771
 847  885.853
 848  800.6607
 849  993.1857
 850  982.7568
 851  1172.265
 852  1241.109
 853  1243.11
 854  1218.215
 855  1023.59
 856  884.8751
 857  860.2776
 858  1160.288
 859  1318.759
 860  1220.383
 861  972.7971
 862  999.3713
 863  933.8323
 864  1015.944
 865  1095.32
 866  1231.928
 867  1390.927
 868  1317.043
 869  1315.283
 870  1063.327
 871  1050.915
 872  1084.553
 873  1003.487
 874  965.6322
 875  953.1417
 876  1057.123
 877  1160.833
 878  1144.552
 879  1122.391
 880  1083.32
 881  975.2647
 882  1174.465
 883  1220.059
 884  1593.141
 885  1664.819
 886  1724.868
 887  1445.236
 888  1032.851
 889  577.9056
 890  493.7526
 891  675.8271
 892  912.7287
 893  887.7487
 894  799.9843
 895  749.4407
 896  757.6494
 897  898.0397
 898  832.8236
 899  1000.412
 900  1046.953
 901  1249.398
 902  1292.741
 903  1189.516
 904  1140.292
 905  1081.322
 906  941.8768
 907  879.8972
 908  1029.67
 909  1218.4
 910  1277.955
 911  1144.629
 912  1158.145
 913  1088.099
 914  1038.869
 915  991.5773
 916  1031.214
 917  1257.745
 918  1306.972
 919  1351.988
 920  1255.587
 921  1137.803
 922  992.4127
 923  1034.277
 924  1058.569
 925  1156.656
 926  1152.806
 927  1085.79
 928  980.8706
 929  931.1832
 930  1010.502
 931  887.9523
 932  989.1247
 933  1120.279
 934  1356.812
 935  1318.926
 936  1098.876
 937  951.2251
 938  905.2939
 939  1117.175
 940  1153.889
 941  1215.496
 942  1176.37
 943  1168.011
 944  1073.76
 945  1031.573
 946  789.975
 947  827.1088
 948  1104.814
 949  1334.675
 950  1348.342
 951  1339.562
 952  1470.55
 953  1479.263
 954  1294.846
 955  1215.781
 956  985.9227
 957  988.5057
 958  993.4647
 959  1182.382
 960  1164.679
 961  1179.237
 962  1075.634
 963  1108.691
 964  1074.127
 965  1159.716
 966  1142.251
 967  1413.036
 968  1508.103
 969  1395.908
 970  1211.155
 971  997.3829
 972  938.7454
 973  902.6506
 974  1038.175
 975  1056.228
 976  922.9775
 977  968.704
 978  997.0764
 979  1069.887
 980  991.256
 981  1026.569
 982  1192.801
 983  1338.943
 984  1423.786
 985  1392.102
 986  1398.702
 987  1332.657
 988  1460.405
 989  1237.38
 990  1131.514
 991  1048.362
 992  1085.19
 993  1071.218
 994  918.6243
 995  1052.747
 996  946.4603
 997  959.498
 998  959.8544
 999  1096.669
1000  1163.342
1001  1269.926
1002  1191.155
1003  973.2404
1004  867.3874
1005  893.1528
1006  1027.717
1007  1047.844
1008  1054.082
1009  1032.415
1010  986.4297
1011  972.1354
1012  828.1724
1013  785.5959
1014  875.452
1015  1089.676
1016  1220.583
1017  1259.396
1018  1147.329
1019  1113.713
1020  1041.178
1021  1035.71
1022  989.6873
1023  903.7809
