# Input file       =  1199896224.112061_cleaned.dat
# Candidate        =  PSR_0332+5434
# Telescope        =  AR
# Epoch_topo       =  58131.687998982190
# Epoch_bary       =  N/A
# T_sample         =  0.002
# Data Folded      =  7340032
# Data Avg         =  0.051046786963237
# Data StdDev      =  1.00012228535859 
# Profile Bins     =  512
# Profile Avg      =  731.797906528252 
# Profile StdDev   =  119.747677974055 
# Reduced chi-sqr  =  1.146
# Prob(Noise)      <  0.0122   (~2.2 sigma)
# P_topo (ms)      =  714.565666988945  +/- 0.0002
# P'_topo (s/s)    =  -0                +/- 1.06e-10
# P''_topo (s/s^2) =  0                 +/- 4.66e-14
# P_bary (ms)      =  N/A
# P'_bary (s/s)    =  N/A
# P''_bary (s/s^2) =  N/A
# P_orb (s)        =  N/A
# asin(i)/c (s)    =  N/A
# eccentricity     =  N/A
# w (rad)          =  N/A
# T_peri           =  N/A
######################################################
   0  630.6228
   1  614.0969
   2  607.3445
   3  754.2401
   4  728.3345
   5  659.4023
   6  790.1303
   7  750.2642
   8  683.0225
   9  661.7873
  10  680.3301
  11  644.1901
  12  751.1652
  13  757.8817
  14  730.0809
  15  758.5041
  16  765.1609
  17  802.4219
  18  787.2118
  19  678.9279
  20  642.7173
  21  725.0274
  22  753.5643
  23  723.1116
  24  842.347
  25  788.8936
  26  783.7142
  27  735.3424
  28  667.4797
  29  708.681
  30  831.1481
  31  773.8879
  32  798.0167
  33  790.0848
  34  762.196
  35  755.9866
  36  682.806
  37  738.4106
  38  673.1355
  39  743.0413
  40  826.5077
  41  701.2562
  42  617.6673
  43  660.917
  44  743.4904
  45  900.3137
  46  917.2557
  47  932.4839
  48  925.5443
  49  829.473
  50  740.4023
  51  745.8389
  52  792.0139
  53  773.1513
  54  751.6517
  55  868.8002
  56  826.087
  57  841.9352
  58  834.5237
  59  822.7879
  60  791.0342
  61  676.0427
  62  607.129
  63  631.0429
  64  636.7247
  65  718.4764
  66  815.2229
  67  775.5786
  68  766.5864
  69  800.2008
  70  724.9762
  71  755.7274
  72  845.9879
  73  810.9764
  74  662.7247
  75  711.9952
  76  677.8002
  77  678.1902
  78  664.5742
  79  700.3675
  80  720.7886
  81  750.2856
  82  754.1232
  83  614.4132
  84  611.9531
  85  657.0674
  86  727.1674
  87  669.2505
  88  690.8784
  89  687.6546
  90  803.2918
  91  773.7122
  92  729.8558
  93  701.926
  94  740.5246
  95  735.4041
  96  749.2181
  97  682.1453
  98  769.5969
  99  801.1403
 100  770.2755
 101  726.4238
 102  693.626
 103  637.8706
 104  626.4626
 105  705.6178
 106  723.9485
 107  776.5461
 108  788.5608
 109  732.2293
 110  718.654
 111  768.8509
 112  781.183
 113  728.2538
 114  715.8885
 115  708.527
 116  846.5377
 117  907.5306
 118  862.5587
 119  821.9623
 120  723.255
 121  647.9623
 122  718.4252
 123  781.9375
 124  931.2846
 125  872.9116
 126  763.4487
 127  857.0401
 128  697.3508
 129  671.7856
 130  795.3547
 131  952.6642
 132  924.306
 133  829.9618
 134  771.4587
 135  593.9167
 136  698.6647
 137  792.4656
 138  841.7699
 139  823.8475
 140  758.5364
 141  761.5051
 142  732.8309
 143  714.3907
 144  689.5127
 145  686.5742
 146  733.8575
 147  750.3286
 148  820.5939
 149  739.9305
 150  678.2416
 151  748.5224
 152  814.5905
 153  733.3575
 154  781.5211
 155  754.6802
 156  824.8364
 157  851.0331
 158  673.0416
 159  728.2638
 160  729.9778
 161  758.9024
 162  637.6205
 163  779.1018
 164  687.9863
 165  668.7561
 166  814.1595
 167  655.6815
 168  598.7997
 169  654.6617
 170  709.6715
 171  703.7078
 172  785.6155
 173  733.1263
 174  694.8141
 175  595.0099
 176  534.5658
 177  630.2458
 178  695.6706
 179  824.299
 180  806.3478
 181  667.1534
 182  644.0533
 183  706.7041
 184  652.9489
 185  629.4343
 186  612.2844
 187  595.2568
 188  598.9291
 189  599.2812
 190  689.3096
 191  570.8749
 192  601.8229
 193  612.6183
 194  707.197
 195  742.0477
 196  792.9169
 197  856.766
 198  717.6122
 199  736.9619
 200  765.5093
 201  638.7291
 202  614.1162
 203  748.4783
 204  721.5706
 205  676.7758
 206  773.9597
 207  778.4823
 208  770.3921
 209  671.0113
 210  591.1274
 211  646.3672
 212  652.3036
 213  555.1866
 214  552.9077
 215  671.5025
 216  847.9455
 217  895.2925
 218  773.002
 219  681.2447
 220  614.951
 221  595.214
 222  703.8323
 223  695.7296
 224  658.0687
 225  662.402
 226  811.9114
 227  926.471
 228  736.4705
 229  771.1282
 230  860.2453
 231  810.1611
 232  699.1065
 233  683.9629
 234  693.3019
 235  695.864
 236  805.1319
 237  692.7314
 238  702.4438
 239  728.4154
 240  695.1763
 241  752.1853
 242  787.2365
 243  730.1778
 244  671.4733
 245  748.0273
 246  778.9147
 247  737.283
 248  668.9207
 249  579.2902
 250  632.7954
 251  676.9896
 252  651.9895
 253  717.1497
 254  766.6609
 255  696.9703
 256  699.8409
 257  811.3444
 258  848.1729
 259  895.9061
 260  720.781
 261  773.0328
 262  803.2629
 263  728.5036
 264  787.7334
 265  703.9399
 266  697.0939
 267  659.0903
 268  675.9626
 269  700.6663
 270  760.7958
 271  700.7514
 272  749.3222
 273  755.9454
 274  837.3973
 275  799.0403
 276  621.0407
 277  623.1647
 278  715.6204
 279  770.0246
 280  739.5641
 281  628.0745
 282  688.3774
 283  713.0909
 284  805.5892
 285  837.4516
 286  726.9018
 287  717.7006
 288  740.1927
 289  742.0806
 290  698.5853
 291  748.9832
 292  699.4156
 293  757.3696
 294  774.4412
 295  698.4012
 296  712.8079
 297  698.854
 298  642.7548
 299  830.4765
 300  781.2292
 301  635.4088
 302  636.1102
 303  668.2298
 304  703.5368
 305  690.4694
 306  686.4337
 307  891.0233
 308  845.7662
 309  642.7706
 310  554.7792
 311  738.1591
 312  708.6346
 313  781.5752
 314  725.2377
 315  756.7823
 316  729.5063
 317  727.2429
 318  703.5116
 319  646.4
 320  686.1371
 321  699.3704
 322  805.3221
 323  805.6142
 324  625.2989
 325  588.4882
 326  735.2006
 327  760.3215
 328  758.2472
 329  702.4735
 330  721.5602
 331  708.6196
 332  731.9704
 333  685.2396
 334  680.568
 335  645.6633
 336  695.1128
 337  731.0855
 338  681.7744
 339  647.3185
 340  675.9362
 341  620.3624
 342  691.0892
 343  759.7115
 344  835.252
 345  728.2358
 346  705.3002
 347  629.0167
 348  697.5977
 349  635.7683
 350  769.4427
 351  749.0052
 352  682.0403
 353  749.3022
 354  744.1165
 355  757.531
 356  732.6822
 357  623.6843
 358  750.5602
 359  733.9445
 360  698.1411
 361  701.4028
 362  642.6589
 363  613.4506
 364  660.191
 365  650.2662
 366  717.4846
 367  731.063
 368  705.3773
 369  593.2849
 370  474.176
 371  642.7158
 372  834.7211
 373  752.1456
 374  696.9736
 375  706.3668
 376  637.1997
 377  724.416
 378  750.3324
 379  765.0079
 380  776.1207
 381  768.0899
 382  707.8099
 383  795.9611
 384  788.1122
 385  771.8642
 386  729.2755
 387  804.6058
 388  733.1197
 389  715.1105
 390  778.3033
 391  789.4896
 392  716.9137
 393  670.5295
 394  831.9547
 395  849.945
 396  734.0997
 397  869.8707
 398  785.782
 399  761.4208
 400  800.7811
 401  779.7805
 402  714.9883
 403  650.3627
 404  592.3526
 405  575.7414
 406  726.6959
 407  744.5768
 408  719.4012
 409  712.5536
 410  603.1863
 411  682.8578
 412  725.0297
 413  703.4886
 414  783.2614
 415  792.2243
 416  724.7664
 417  691.082
 418  724.8898
 419  571.3411
 420  709.0587
 421  660.8569
 422  583.419
 423  618.249
 424  713.8519
 425  749.9036
 426  728.159
 427  732.1661
 428  658.2755
 429  609.1064
 430  726.809
 431  706.0399
 432  700.8507
 433  740.0397
 434  714.0262
 435  703.0643
 436  695.3159
 437  662.9089
 438  709.24
 439  607.1705
 440  726.2582
 441  709.4134
 442  707.5908
 443  716.8281
 444  716.6139
 445  662.9749
 446  547.2019
 447  699.6043
 448  705.6671
 449  764.7479
 450  728.9941
 451  635.0825
 452  769.549
 453  724.7003
 454  757.0251
 455  784.2112
 456  698.7778
 457  705.9452
 458  711.0369
 459  712.8243
 460  692.8229
 461  710.4316
 462  693.8051
 463  659.6824
 464  911.3162
 465  963.6917
 466  888.0283
 467  927.2693
 468  1015.602
 469  940.4517
 470  1121.535
 471  1324.503
 472  1365.68
 473  1274.624
 474  1149.081
 475  900.9954
 476  808.373
 477  891.3323
 478  723.4786
 479  646.481
 480  664.4907
 481  703.5678
 482  733.2914
 483  710.8497
 484  797.2235
 485  786.9627
 486  805.897
 487  743.3394
 488  555.4835
 489  665.4116
 490  770.1256
 491  774.5119
 492  722.0082
 493  629.9955
 494  704.5309
 495  772.0035
 496  781.0082
 497  759.7935
 498  777.6229
 499  747.984
 500  823.8853
 501  685.7394
 502  592.3846
 503  544.0743
 504  587.7222
 505  739.8226
 506  847.9433
 507  744.1154
 508  778.8944
 509  764.1976
 510  688.7426
 511  567.1102
