# Input file       =  1199709341.112284_cleaned.dat
# Candidate        =  PSR_0332+5434
# Telescope        =  AR
# Epoch_topo       =  58129.525001299582
# Epoch_bary       =  N/A
# T_sample         =  0.002
# Data Folded      =  7208960
# Data Avg         =  0.187029088730923
# Data StdDev      =  5.4451625495763  
# Profile Bins     =  1024
# Profile Avg      =  1316.73294362118 
# Profile StdDev   =  456.874772937629 
# Reduced chi-sqr  =  0.599
# Prob(Noise)      <  1   (~0.0 sigma)
# P_topo (ms)      =  714.564098553181  +/- 6.69e-05
# P'_topo (s/s)    =  -0                +/- 3.59e-11
# P''_topo (s/s^2) =  0                 +/- 1.62e-14
# P_bary (ms)      =  N/A
# P'_bary (s/s)    =  N/A
# P''_bary (s/s^2) =  N/A
# P_orb (s)        =  N/A
# asin(i)/c (s)    =  N/A
# eccentricity     =  N/A
# w (rad)          =  N/A
# T_peri           =  N/A
######################################################
   0  1327.603
   1  1419.459
   2  1446.752
   3  1301.181
   4  1131.687
   5  1007.215
   6  923.6192
   7  831.8594
   8  811.6051
   9  1036.631
  10  1071.854
  11  1348.288
  12  1457.472
  13  1556.038
  14  1481.5
  15  1484.929
  16  1472.834
  17  1493.379
  18  1432.003
  19  1312.89
  20  1237.028
  21  1275.907
  22  1461.434
  23  1335.036
  24  1302.867
  25  1178.508
  26  1350.711
  27  1356.967
  28  1270.747
  29  1265.594
  30  1284.326
  31  1445.842
  32  1611.238
  33  1676.801
  34  1615.621
  35  1392.177
  36  1269.743
  37  1249.357
  38  1300.634
  39  1374.851
  40  1206.746
  41  1100.725
  42  1203.169
  43  1299.73
  44  1370.293
  45  1212.908
  46  1292.498
  47  1282.984
  48  1280.829
  49  1130.34
  50  1139.849
  51  1201.703
  52  1405.733
  53  1243.77
  54  1329.691
  55  1364.117
  56  1438.553
  57  1498.285
  58  1438.972
  59  1561.267
  60  1445.09
  61  1523.379
  62  1541.48
  63  1484.737
  64  1430.478
  65  1278.035
  66  1303.712
  67  1174.935
  68  1215.646
  69  1154.055
  70  1187.647
  71  1009.499
  72  1053.203
  73  969.5894
  74  1056.08
  75  989.1729
  76  1179.309
  77  1306.195
  78  1305.22
  79  1413.647
  80  1325.245
  81  1424.531
  82  1374.829
  83  1307.965
  84  1333.443
  85  1325.574
  86  1371.83
  87  1378.476
  88  1139.411
  89  1111.981
  90  1159.927
  91  1305.754
  92  1347.332
  93  1222.471
  94  1547.894
  95  1609.358
  96  1775.848
  97  1608.346
  98  1609.355
  99  1384.288
 100  1363.268
 101  1290.474
 102  1355.348
 103  1197.403
 104  1222.369
 105  1198.718
 106  1240.242
 107  1226.102
 108  1188.802
 109  1097.499
 110  1059.789
 111  1318.88
 112  1380.599
 113  1380.58
 114  1355.518
 115  1378.865
 116  1445.838
 117  1489.976
 118  1515.053
 119  1446.528
 120  1392.362
 121  1356.135
 122  1447.482
 123  1216.327
 124  1206.542
 125  1182.415
 126  1309.626
 127  1422.016
 128  1371.162
 129  1463.285
 130  1206.791
 131  1022.985
 132  910.4583
 133  997.0229
 134  965.7277
 135  1016.456
 136  1041.013
 137  1130.001
 138  974.4753
 139  1029.669
 140  1116.862
 141  1321.564
 142  1454.853
 143  1371.048
 144  1499.958
 145  1322.041
 146  1404.184
 147  1316.786
 148  1431.775
 149  1371.101
 150  1301.733
 151  1324.12
 152  1279.403
 153  1124.274
 154  966.5879
 155  1022.149
 156  965.8793
 157  1028.472
 158  1101.929
 159  1344.561
 160  1436.337
 161  1529.212
 162  1626.514
 163  1614.238
 164  1656.225
 165  1595.895
 166  1533.777
 167  1349.705
 168  1220.31
 169  1165.309
 170  1141.624
 171  1062.585
 172  1116.266
 173  1142.733
 174  1231.157
 175  1170.145
 176  1209.244
 177  1137.092
 178  1198.513
 179  1354.948
 180  1554.691
 181  1640.908
 182  1511.168
 183  1415.696
 184  1443.855
 185  1615.792
 186  1575.429
 187  1523.313
 188  1307.434
 189  1359.867
 190  1223.511
 191  1252.39
 192  1500.632
 193  1404.903
 194  1462.24
 195  1276.845
 196  1384.686
 197  1285.906
 198  1348.583
 199  1328.558
 200  1286.756
 201  1152.17
 202  1326.172
 203  1262.836
 204  1243.676
 205  1159.703
 206  1159.1
 207  1176.532
 208  1184.357
 209  1410.349
 210  1379.548
 211  1395.306
 212  1365.078
 213  1436.422
 214  1339.829
 215  1157.155
 216  1212.147
 217  1334.616
 218  1305.958
 219  1185.999
 220  1061.176
 221  978.1742
 222  954.9311
 223  1041.424
 224  1206.906
 225  1306.641
 226  1533.04
 227  1728.769
 228  1596.129
 229  1477.459
 230  1324.558
 231  1510.923
 232  1362.303
 233  1317.459
 234  1152.303
 235  1098.55
 236  968.6506
 237  1051.838
 238  1094.772
 239  1193
 240  1113.487
 241  990.8813
 242  1028.721
 243  972.8809
 244  1215.014
 245  1236.604
 246  1352.571
 247  1337.753
 248  1363.382
 249  1333.508
 250  1361.354
 251  1375.627
 252  1399.024
 253  1352.74
 254  1381.595
 255  1345.026
 256  1270.098
 257  1375.3
 258  1462.631
 259  1497.546
 260  1203.155
 261  1194.816
 262  1260.074
 263  1382.482
 264  1385.393
 265  1440.447
 266  1543.623
 267  1584.656
 268  1558.135
 269  1305.799
 270  1155.602
 271  909.7379
 272  1184.993
 273  1308.376
 274  1441.745
 275  1349.319
 276  1250.409
 277  1348.286
 278  1457.393
 279  1541.448
 280  1394.036
 281  1192.169
 282  1151.009
 283  1214.656
 284  1092.839
 285  1034.28
 286  891.1357
 287  1122.617
 288  1259.886
 289  1352.049
 290  1360.155
 291  1254.717
 292  1444.39
 293  1484.779
 294  1596.702
 295  1467.27
 296  1411.79
 297  1300.762
 298  1242.085
 299  1210.201
 300  1180.388
 301  1009.131
 302  1066.35
 303  1004.526
 304  942.6824
 305  883.7072
 306  859.6984
 307  1090.039
 308  1056.452
 309  1127.441
 310  1211.072
 311  1223.627
 312  1302.659
 313  1280.439
 314  1236.797
 315  1348.778
 316  1369.482
 317  1536.956
 318  1488.189
 319  1415.893
 320  1385.439
 321  1305.39
 322  1263.197
 323  1189.912
 324  1200.356
 325  1227.46
 326  1126.173
 327  1126.216
 328  1091.335
 329  1274.588
 330  1338.848
 331  1451.349
 332  1534.581
 333  1630.633
 334  1457.586
 335  1426.852
 336  1260.895
 337  1336.563
 338  1067.384
 339  1098.879
 340  1106.955
 341  1089.736
 342  1174.505
 343  1278.954
 344  1348.7
 345  1248.532
 346  1203.341
 347  1211.262
 348  1253.42
 349  1162.666
 350  1351.63
 351  1261.32
 352  1307.316
 353  1232.309
 354  1302.972
 355  1355.165
 356  1345.559
 357  1385.089
 358  1356.818
 359  1508.368
 360  1664.909
 361  1646.762
 362  1496.062
 363  1299.35
 364  1229.946
 365  1165.082
 366  1237.58
 367  1271.977
 368  1189.453
 369  1088.97
 370  1165.545
 371  1118.762
 372  1183.248
 373  1116.292
 374  1279.06
 375  1381.242
 376  1504.666
 377  1643.343
 378  1532.289
 379  1422.63
 380  1393.257
 381  1517.722
 382  1587.898
 383  1489.068
 384  1280.731
 385  1056.302
 386  866.9667
 387  883.6407
 388  1077.096
 389  1209.209
 390  1357.589
 391  1307.012
 392  1510.025
 393  1574.764
 394  1719.827
 395  1601.974
 396  1596.523
 397  1442.061
 398  1591.534
 399  1503.492
 400  1420.657
 401  1215.897
 402  1185.961
 403  1264.03
 404  1248.167
 405  1187.314
 406  1216.015
 407  1175.164
 408  1187.844
 409  1229.347
 410  1364.156
 411  1408.54
 412  1383.28
 413  1493.949
 414  1489.996
 415  1484.913
 416  1296.188
 417  1296.01
 418  1243.353
 419  1237.824
 420  1380.486
 421  1377.204
 422  1472.551
 423  1462.971
 424  1610.501
 425  1651.372
 426  1577.678
 427  1494.365
 428  1358.762
 429  1345.64
 430  1175.246
 431  1144.528
 432  959.7988
 433  1127.474
 434  1012.444
 435  1169.337
 436  1025.896
 437  1129.753
 438  1061.569
 439  1118.299
 440  1218.576
 441  1278.933
 442  1324.86
 443  1239.34
 444  1267.341
 445  1333.228
 446  1388.806
 447  1525.914
 448  1596.335
 449  1456.775
 450  1391.917
 451  1333.689
 452  1372.481
 453  1194.287
 454  1183.957
 455  1182.335
 456  1094.456
 457  1136.06
 458  1265.744
 459  1408.176
 460  1433.725
 461  1463.126
 462  1651.798
 463  1645.977
 464  1478.161
 465  1462.253
 466  1455.518
 467  1303.122
 468  1272.334
 469  1166.224
 470  1271.623
 471  1145.623
 472  1266.839
 473  1269.769
 474  1393.037
 475  1381.869
 476  1447.667
 477  1414.993
 478  1391.105
 479  1461.617
 480  1382.493
 481  1390.012
 482  1248.179
 483  1409.641
 484  1421.979
 485  1555.544
 486  1323.152
 487  1358.24
 488  1382.267
 489  1445.521
 490  1512.085
 491  1422.967
 492  1498.745
 493  1473.368
 494  1466.678
 495  1403.203
 496  1243.52
 497  1298.822
 498  1353.463
 499  1350.046
 500  1226.065
 501  1085.68
 502  1124.693
 503  1224.139
 504  1199.318
 505  1236.143
 506  1249.656
 507  1354.914
 508  1342.809
 509  1376.854
 510  1395.979
 511  1540.391
 512  1523.167
 513  1606.399
 514  1373.546
 515  1203.373
 516  1099.686
 517  1018.305
 518  889.4525
 519  800.1017
 520  1023.633
 521  1254.85
 522  1511.552
 523  1471.27
 524  1551.365
 525  1663.379
 526  1678.478
 527  1642.492
 528  1402.009
 529  1375.148
 530  1337.616
 531  1450.734
 532  1293.014
 533  1247.297
 534  1015.1
 535  1120.885
 536  1021.728
 537  1176.063
 538  1163.795
 539  1282.164
 540  1335.753
 541  1491.861
 542  1495.581
 543  1438.236
 544  1452.328
 545  1371.756
 546  1522.773
 547  1499.851
 548  1661.219
 549  1670.544
 550  1670.439
 551  1556.273
 552  1522.154
 553  1447.07
 554  1391.146
 555  1357.464
 556  1396.262
 557  1411.656
 558  1265.812
 559  1219.661
 560  1137.892
 561  1114.556
 562  1249.601
 563  1303.59
 564  1323.982
 565  1219.758
 566  1294.133
 567  1249.191
 568  1166.68
 569  970.6605
 570  1125.809
 571  1136.809
 572  1210.118
 573  1261.783
 574  1322.898
 575  1389.131
 576  1550.105
 577  1659.258
 578  1641.408
 579  1406.645
 580  1256.194
 581  1181.432
 582  1010.766
 583  924.3447
 584  845.0233
 585  1158.103
 586  1273.248
 587  1489.191
 588  1325.21
 589  1421.695
 590  1533.287
 591  1788.145
 592  1666.132
 593  1403.778
 594  1141.584
 595  1115.325
 596  1062.415
 597  942.8569
 598  1016.721
 599  899.7125
 600  1036.735
 601  1033.953
 602  1069.314
 603  966.1492
 604  788.553
 605  1033.745
 606  1129.333
 607  1337.25
 608  1261.83
 609  1391.173
 610  1303.392
 611  1415.551
 612  1426.151
 613  1725.159
 614  1813.47
 615  1922.558
 616  1956.763
 617  2004.555
 618  2172.123
 619  2161.822
 620  2091.15
 621  2021.107
 622  1981.633
 623  1880.843
 624  1630.953
 625  1517.969
 626  1471.323
 627  1503.948
 628  1322.016
 629  1340.034
 630  1343.015
 631  1492.761
 632  1268.937
 633  1323.055
 634  1134.985
 635  1243.11
 636  1204.709
 637  1406.956
 638  1420.814
 639  1385.435
 640  1263.533
 641  1194.487
 642  1232.724
 643  1318.226
 644  1354.749
 645  1200.66
 646  1087.606
 647  937.4202
 648  1071.813
 649  1092.722
 650  1192.561
 651  1139.349
 652  1115.721
 653  1239.333
 654  1342.28
 655  1464.343
 656  1522.884
 657  1535.287
 658  1519.207
 659  1590.122
 660  1597.456
 661  1460.708
 662  1298.581
 663  1230.267
 664  1231.497
 665  1029.781
 666  1051.503
 667  1025.671
 668  1270.238
 669  1177.436
 670  1274.867
 671  1129.793
 672  1203.903
 673  1180.207
 674  1347.836
 675  1478.328
 676  1622.081
 677  1581.582
 678  1488.145
 679  1559.571
 680  1564.204
 681  1641.666
 682  1351.797
 683  1431.075
 684  1292.846
 685  1376.711
 686  1163.108
 687  1295.633
 688  1141.712
 689  1269.284
 690  1239.623
 691  1468.9
 692  1522.345
 693  1432.328
 694  1440.052
 695  1450.725
 696  1513.169
 697  1508.815
 698  1490.102
 699  1405.58
 700  1324.67
 701  1221.727
 702  1311.91
 703  1277.705
 704  1326.758
 705  1400.757
 706  1371.899
 707  1432.432
 708  1348.485
 709  1381.697
 710  1270.278
 711  1364.704
 712  1293.949
 713  1456.995
 714  1542.934
 715  1639.642
 716  1485.647
 717  1298.572
 718  1342.145
 719  1311.378
 720  1422.172
 721  1400.126
 722  1588.736
 723  1468.544
 724  1458.789
 725  1310.104
 726  1216.115
 727  1215.692
 728  1278.981
 729  1341.101
 730  1145.707
 731  1027.675
 732  964.9537
 733  998.298
 734  985.2756
 735  1087.065
 736  1098.216
 737  1111.48
 738  1195.237
 739  1421.423
 740  1553.23
 741  1502.506
 742  1614.956
 743  1668.449
 744  1629.66
 745  1553.773
 746  1508.505
 747  1386.597
 748  1295.904
 749  1099.305
 750  1149.874
 751  1023.749
 752  1209.006
 753  1435.567
 754  1563.242
 755  1558.692
 756  1386.052
 757  1474.788
 758  1464.8
 759  1502.19
 760  1553.439
 761  1611.167
 762  1450.747
 763  1341.137
 764  1334.078
 765  1302.183
 766  1168.469
 767  1182.666
 768  1372.908
 769  1315.496
 770  1404.276
 771  1279.333
 772  1321.404
 773  1147.876
 774  1339.484
 775  1302.336
 776  1242.55
 777  1164.842
 778  1325.803
 779  1387.602
 780  1410.014
 781  1432.629
 782  1405.926
 783  1553.702
 784  1489.648
 785  1702.936
 786  1657.034
 787  1735.022
 788  1682.816
 789  1675.519
 790  1511.63
 791  1347.935
 792  1304.38
 793  1535.334
 794  1591.894
 795  1532.046
 796  1491.155
 797  1450.311
 798  1480.469
 799  1277.954
 800  1130.746
 801  1194.299
 802  1237.858
 803  1365.193
 804  1318.063
 805  1416.193
 806  1511.615
 807  1694.393
 808  1723.588
 809  1751.666
 810  1664.154
 811  1499.768
 812  1362.967
 813  1313.121
 814  1268.329
 815  1170.084
 816  1053.866
 817  1021.661
 818  1098.063
 819  1067.879
 820  1171.83
 821  1152.95
 822  1365.226
 823  1382.396
 824  1466.325
 825  1603.185
 826  1746.521
 827  1761.276
 828  1687.524
 829  1595.009
 830  1349.564
 831  1147.115
 832  1005.421
 833  1057.959
 834  988.0361
 835  998.3132
 836  1020.464
 837  1215.618
 838  1345.485
 839  1377.37
 840  1381.287
 841  1470.207
 842  1656.826
 843  1627.015
 844  1633.399
 845  1480.086
 846  1390.167
 847  1269.683
 848  1238.888
 849  1229.6
 850  1288.324
 851  1417.088
 852  1434.46
 853  1437.487
 854  1475.637
 855  1451.668
 856  1320.493
 857  1298.401
 858  1274.046
 859  1216.176
 860  1091.184
 861  1085.284
 862  1079.958
 863  1114.052
 864  1056.701
 865  976.4063
 866  966.7755
 867  891.6207
 868  1116.279
 869  1157.469
 870  1331.396
 871  1349.657
 872  1444.115
 873  1254.757
 874  1264.064
 875  1261.755
 876  1240.679
 877  1123.693
 878  1045.593
 879  1103.253
 880  923.1056
 881  995.1445
 882  875.8117
 883  1086.734
 884  1017.275
 885  1367.922
 886  1294.108
 887  1510.016
 888  1412.905
 889  1538.369
 890  1528.488
 891  1480.434
 892  1336.519
 893  1303.512
 894  1200.899
 895  1175.208
 896  1096.761
 897  1055.711
 898  972.416
 899  986.2675
 900  1038.985
 901  1018.991
 902  872.5318
 903  979.6151
 904  1204.129
 905  1408.547
 906  1385.256
 907  1386.432
 908  1308.93
 909  1451.85
 910  1478.999
 911  1487.939
 912  1488.915
 913  1447.75
 914  1446.232
 915  1207.233
 916  1100.142
 917  1091.765
 918  1286.006
 919  1319.203
 920  1448.668
 921  1382.095
 922  1425.623
 923  1300.933
 924  1304.133
 925  1174.605
 926  1167.661
 927  1082.403
 928  1142.089
 929  922.9743
 930  892.665
 931  987.1879
 932  1022.791
 933  1063.821
 934  1035.323
 935  1226.943
 936  1196.569
 937  1102.655
 938  1054.47
 939  1106.768
 940  1197.711
 941  1257.723
 942  1284.988
 943  1224.878
 944  1155.766
 945  1276.262
 946  1385.538
 947  1351.938
 948  1286.536
 949  1289.813
 950  1380.246
 951  1468.756
 952  1593.765
 953  1627.077
 954  1487.536
 955  1619.84
 956  1556.13
 957  1631.686
 958  1444.46
 959  1378.321
 960  1283.424
 961  1269.814
 962  1288.805
 963  1215.348
 964  1058.713
 965  1006.773
 966  1049.519
 967  1006.275
 968  1056.775
 969  1070.604
 970  1262.137
 971  1247.565
 972  1331.175
 973  1283.589
 974  1378.849
 975  1253.152
 976  1332.977
 977  1329.047
 978  1483.568
 979  1462.452
 980  1305.12
 981  1232.671
 982  1022.169
 983  1139.873
 984  1096.937
 985  1381.314
 986  1262.706
 987  1291.975
 988  1181.986
 989  1213.786
 990  1332.795
 991  1301.979
 992  1427.931
 993  1509.366
 994  1553.898
 995  1546.802
 996  1497.207
 997  1432.041
 998  1339.754
 999  1290.073
1000  1409.784
1001  1388.355
1002  1298.892
1003  1280.645
1004  1310.151
1005  1405.317
1006  1308.418
1007  1298.262
1008  1209.292
1009  1286.751
1010  1214.947
1011  1265.721
1012  1157.785
1013  1291.284
1014  1315.412
1015  1434.542
1016  1552.555
1017  1537.015
1018  1665.943
1019  1508.682
1020  1664.836
1021  1534.86
1022  1535.629
1023  1354.739
