# Input file       =  1199896224.112061_cleaned.dat
# Candidate        =  PSR_0332+5434
# Telescope        =  AR
# Epoch_topo       =  58131.687998982190
# Epoch_bary       =  N/A
# T_sample         =  0.002
# Data Folded      =  7340032
# Data Avg         =  0.298620083751822
# Data StdDev      =  3.94851559587198 
# Profile Bins     =  1024
# Profile Avg      =  2140.49799921366 
# Profile StdDev   =  334.297290065192 
# Reduced chi-sqr  =  0.712
# Prob(Noise)      <  1   (~0.0 sigma)
# P_topo (ms)      =  714.565666988945  +/- 0.000343
# P'_topo (s/s)    =  -0                +/- 1.81e-10
# P''_topo (s/s^2) =  0                 +/- 7.98e-14
# P_bary (ms)      =  N/A
# P'_bary (s/s)    =  N/A
# P''_bary (s/s^2) =  N/A
# P_orb (s)        =  N/A
# asin(i)/c (s)    =  N/A
# eccentricity     =  N/A
# w (rad)          =  N/A
# T_peri           =  N/A
######################################################
   0  2149.724
   1  2224.866
   2  2160.826
   3  1975.641
   4  1918.986
   5  2092.304
   6  2260.902
   7  2379.912
   8  2149.778
   9  1944.167
  10  2014.066
  11  1989.521
  12  1931.036
  13  1993.215
  14  2042.979
  15  2097.938
  16  2001.752
  17  2151.256
  18  2250.722
  19  2163.237
  20  2066.302
  21  2110.616
  22  2203.024
  23  2101.011
  24  2039.322
  25  1922.836
  26  1986.089
  27  1847.049
  28  1941.348
  29  1952.792
  30  2047.441
  31  2180.729
  32  2292.318
  33  2387.725
  34  2360.971
  35  2306.827
  36  2171.479
  37  2115.332
  38  1966.02
  39  2075.128
  40  2083.399
  41  2048.576
  42  2051.706
  43  2044.532
  44  2027.781
  45  1907.971
  46  1843.994
  47  1894.374
  48  1839.905
  49  1839.288
  50  1913.224
  51  1858.812
  52  1888.961
  53  1943.284
  54  2075.262
  55  2071.457
  56  1913.111
  57  1812.68
  58  1747.218
  59  1882.766
  60  1947.121
  61  1881.079
  62  1964.813
  63  2062.235
  64  2166.353
  65  2047.054
  66  2026.726
  67  2168.445
  68  2302.213
  69  2395.451
  70  2219.132
  71  2113.826
  72  2077.916
  73  2096.706
  74  2200.108
  75  2173.879
  76  2024.33
  77  1942.263
  78  1862.148
  79  1929.537
  80  2034.752
  81  2128.586
  82  2105.821
  83  2043.607
  84  2022.422
  85  2051.312
  86  2166.283
  87  2094.943
  88  2221.031
  89  2223.133
  90  2297.015
  91  2251.89
  92  2081.942
  93  2041.12
  94  1930.522
  95  1837.173
  96  1884.423
  97  1880.353
  98  1923.801
  99  1958.411
 100  1929.266
 101  1912.055
 102  1879.733
 103  1855.606
 104  1999.823
 105  2067.788
 106  2149.136
 107  2338.26
 108  2422.826
 109  2400.18
 110  2295.297
 111  2088.222
 112  2066.316
 113  2069.77
 114  2049.016
 115  2076.524
 116  1917.402
 117  2032.349
 118  2077.917
 119  2019.917
 120  2023.363
 121  1910.632
 122  1951.449
 123  1908.604
 124  1974.054
 125  2049.235
 126  2160.207
 127  2202.39
 128  2396.987
 129  2364.986
 130  2271.829
 131  2102.197
 132  2105.556
 133  2283.016
 134  2347.077
 135  2248.042
 136  2227.609
 137  2185.611
 138  2142.166
 139  2149.337
 140  2118.982
 141  2133.303
 142  2021.758
 143  1985.841
 144  2037.335
 145  2046.276
 146  2177.549
 147  2257.54
 148  2143.977
 149  2109.875
 150  2022.674
 151  2053.996
 152  1935.823
 153  1846.884
 154  1923.01
 155  1998.814
 156  2051.612
 157  2064.971
 158  2133.627
 159  2084.893
 160  2013.158
 161  2019.765
 162  1989.378
 163  1994.195
 164  1978.062
 165  2032.171
 166  2148.692
 167  2257.989
 168  2251.936
 169  2151.572
 170  2008.765
 171  1951.291
 172  1935.062
 173  1884.544
 174  2061.717
 175  2111.795
 176  2138.23
 177  2144.385
 178  2150.081
 179  2129.281
 180  2138.321
 181  2173.831
 182  2261.389
 183  2253.174
 184  2212.295
 185  2240.33
 186  2114.275
 187  2248.474
 188  2295.399
 189  2347.252
 190  2390.718
 191  2381.724
 192  2415.212
 193  2439.629
 194  2242.965
 195  2093.038
 196  2072.132
 197  2191.28
 198  2254.173
 199  2137.673
 200  2046.763
 201  2058.788
 202  2026.065
 203  2159.389
 204  2049.037
 205  2076.288
 206  2002.119
 207  2042.282
 208  1898.356
 209  1896.27
 210  1901.851
 211  2015.701
 212  2028.325
 213  2052.699
 214  2167.028
 215  2174.427
 216  2100.271
 217  2075.985
 218  2041.581
 219  2130.625
 220  2145.929
 221  2117.747
 222  2218.556
 223  2183.845
 224  2215.219
 225  2158.683
 226  2016.763
 227  1975.75
 228  1955.169
 229  2026.191
 230  2078.51
 231  2116.732
 232  2169.265
 233  2174.901
 234  2132.373
 235  2125.521
 236  2026.827
 237  1878.354
 238  1889.292
 239  1970.921
 240  2090.057
 241  2173.235
 242  2251.762
 243  2340.296
 244  2379.078
 245  2233.597
 246  2063.007
 247  1989.347
 248  2038.175
 249  2027.506
 250  1926.819
 251  2013.171
 252  1982.807
 253  2005.313
 254  1987.876
 255  2155.657
 256  2288.324
 257  2354.899
 258  2322.215
 259  2133.01
 260  2235.907
 261  2263.155
 262  2367.755
 263  2325.589
 264  2225.77
 265  2128.332
 266  2073.747
 267  2078.109
 268  2202.682
 269  2098.09
 270  2007.744
 271  2035.756
 272  2178.375
 273  2284.154
 274  2211.284
 275  2137.571
 276  2148.202
 277  2156.901
 278  2170.271
 279  2180.389
 280  2052.411
 281  2104.95
 282  2084.885
 283  1979.843
 284  1996.654
 285  2006.579
 286  2034.774
 287  2079.618
 288  2215.449
 289  2447.174
 290  2505.301
 291  2385.707
 292  2248.714
 293  2143.403
 294  1990.001
 295  1950.094
 296  2042.067
 297  2279.967
 298  2230.451
 299  2065
 300  2162.556
 301  2206.642
 302  2251.39
 303  2241.51
 304  2179.043
 305  2219.644
 306  2201.492
 307  2246.204
 308  2214.62
 309  2176.222
 310  2194.8
 311  2132.017
 312  2083.225
 313  2010.577
 314  2054.465
 315  2016.145
 316  2091.682
 317  2103.942
 318  2198.044
 319  2355.147
 320  2335.334
 321  2257.776
 322  2064.171
 323  1930.384
 324  1956.059
 325  2013.998
 326  2117.056
 327  2150.133
 328  2161.156
 329  2156.616
 330  2219.139
 331  2255.548
 332  2143.698
 333  2192.927
 334  2209.86
 335  2281.608
 336  2177.574
 337  2245.95
 338  2356.352
 339  2276.077
 340  2122.844
 341  2145.49
 342  2187.667
 343  2177.288
 344  2133.01
 345  2107.088
 346  2226.502
 347  2231.478
 348  2252.114
 349  2229.205
 350  2162.076
 351  2166.802
 352  2117.823
 353  2067.001
 354  2091.969
 355  2049.317
 356  1991.537
 357  1923.127
 358  1955.359
 359  2092.724
 360  2215.251
 361  2305.064
 362  2459.747
 363  2450.305
 364  2256.304
 365  2144.482
 366  2095.948
 367  2217.741
 368  2099.606
 369  2038.409
 370  2137.094
 371  2145.56
 372  1962.641
 373  1895.909
 374  2052.392
 375  2279.511
 376  2187.871
 377  2057.141
 378  1994.789
 379  2027.969
 380  2008.921
 381  2150.581
 382  2158.121
 383  2244.843
 384  2122.531
 385  2124.963
 386  2225.912
 387  2231.941
 388  2145.114
 389  2050.259
 390  2081.112
 391  2220.327
 392  2185.991
 393  2052.987
 394  2059.569
 395  2110.448
 396  2125.188
 397  2141.741
 398  2036.117
 399  2004.064
 400  1944.483
 401  2010.009
 402  2075.608
 403  2077.023
 404  2021.258
 405  2025.709
 406  2009.086
 407  2114.128
 408  2069.863
 409  2032.626
 410  2020.423
 411  2110.407
 412  2075.764
 413  1897.823
 414  1797.527
 415  1775.025
 416  1884.724
 417  2053.57
 418  2259.788
 419  2393.547
 420  2344.623
 421  2211.929
 422  2129.781
 423  2074.516
 424  2164.598
 425  2084.719
 426  1989.928
 427  2022.604
 428  2083.913
 429  2106.544
 430  2154.763
 431  2151.686
 432  2276.343
 433  2296.96
 434  2297.09
 435  2339.893
 436  2282.74
 437  2323.289
 438  2272.452
 439  2236.684
 440  2413.776
 441  2366.478
 442  2263.142
 443  2224.124
 444  2265.814
 445  2308.496
 446  2259.129
 447  2210.908
 448  2333.672
 449  2283.368
 450  2271.174
 451  2255.057
 452  2057.932
 453  2105.091
 454  2071.406
 455  2212.46
 456  2293.075
 457  2292.334
 458  2220.94
 459  2075.804
 460  1911.488
 461  1982.198
 462  2234.288
 463  2345.085
 464  2446.7
 465  2321.4
 466  2196.863
 467  2122.517
 468  2213.083
 469  2409.727
 470  2313.352
 471  2230.844
 472  2235.572
 473  2298.472
 474  2217.299
 475  2174.405
 476  2213.971
 477  2260.008
 478  2278.092
 479  2131.642
 480  2181.594
 481  2031.68
 482  2007.913
 483  2004.094
 484  1966.899
 485  2006.139
 486  2201.013
 487  2239.696
 488  2174.374
 489  2091.344
 490  2132.703
 491  2212.089
 492  2160.743
 493  2205.486
 494  2110.265
 495  2038.274
 496  2002.501
 497  2166.049
 498  2211.792
 499  2175.01
 500  2090.884
 501  2160.918
 502  2250.615
 503  2124.625
 504  2171.902
 505  2126.948
 506  2202.641
 507  2099.179
 508  2050.571
 509  2021.54
 510  2034.153
 511  1993.344
 512  1865.321
 513  1834.307
 514  1937.401
 515  2104.84
 516  2127.291
 517  1988.003
 518  1927.432
 519  1963.443
 520  2005.34
 521  2106.088
 522  2155.382
 523  2224.857
 524  2200.544
 525  2229.225
 526  2355.766
 527  2224.849
 528  2108.729
 529  2153.579
 530  2192.745
 531  2147.644
 532  1978.868
 533  2070.038
 534  2246.717
 535  2169.521
 536  2162.346
 537  2087.671
 538  1962.511
 539  2057.541
 540  2046.802
 541  2206.597
 542  2177.274
 543  2219.191
 544  2118.193
 545  2064.699
 546  2011.588
 547  2030.922
 548  2014.815
 549  1964.922
 550  2149.689
 551  2244.327
 552  2110.191
 553  1984.48
 554  1992.902
 555  2212.907
 556  2179.458
 557  2117.05
 558  2192.016
 559  2203.558
 560  2197.554
 561  2123.767
 562  2083.933
 563  2140.928
 564  2088.477
 565  1987.145
 566  1839.508
 567  1798.314
 568  1889.265
 569  1974.968
 570  2013.781
 571  2064.397
 572  2161.184
 573  2208.017
 574  2212.009
 575  2142.66
 576  2117.479
 577  2092.896
 578  2194.163
 579  2287.181
 580  2214.17
 581  2125.392
 582  2041.883
 583  2197.672
 584  2257.411
 585  2225.93
 586  2045.645
 587  2081.223
 588  2105.234
 589  2112.753
 590  2103.95
 591  2159.923
 592  2087.194
 593  2017.67
 594  1954.101
 595  1885.69
 596  1953.507
 597  1956.412
 598  2072.854
 599  2010.806
 600  2041.003
 601  2021.466
 602  2168.151
 603  2315.152
 604  2521.712
 605  2409.995
 606  2392.338
 607  2339.899
 608  2279.066
 609  2367.283
 610  2493.376
 611  2471.654
 612  2355.096
 613  2375.877
 614  2555.225
 615  2715.403
 616  2809.058
 617  3046.243
 618  3016.848
 619  2995.49
 620  2981.652
 621  2880.447
 622  2705.017
 623  2541.18
 624  2362.007
 625  2319.909
 626  2221.798
 627  2185.263
 628  2352.98
 629  2263.072
 630  2227.426
 631  2077.043
 632  2014.743
 633  2022.177
 634  2079.681
 635  2107.677
 636  2257.895
 637  2095.938
 638  2200.693
 639  2078.974
 640  2022.744
 641  2056.132
 642  2208.998
 643  2270.175
 644  2186.082
 645  2063.606
 646  2131.349
 647  2218.566
 648  2183.226
 649  2149.998
 650  1983.103
 651  1832.487
 652  1904.94
 653  2072.258
 654  2158.211
 655  2211.558
 656  2208.277
 657  2312.68
 658  2230.776
 659  2069.734
 660  1971.901
 661  1981.674
 662  2085.663
 663  2073.226
 664  2103.5
 665  2170.521
 666  2261.856
 667  2267.588
 668  2211.253
 669  2230.793
 670  2176.448
 671  2178.482
 672  2113.259
 673  2133.73
 674  2302.465
 675  2293.883
 676  2176.427
 677  1998.024
 678  1964.563
 679  1977.775
 680  1841.641
 681  1752.839
 682  1756.258
 683  1829.324
 684  1933.67
 685  2070.997
 686  2121.565
 687  2117.109
 688  2047.105
 689  1979.626
 690  2155.377
 691  2111.49
 692  2173.217
 693  2205.497
 694  2175.546
 695  2115.446
 696  1842
 697  1831.269
 698  1862.526
 699  1917.484
 700  1937.203
 701  2027.944
 702  2010.642
 703  2063.374
 704  2135.865
 705  2157.997
 706  2222.675
 707  2112.668
 708  1933.833
 709  1957.237
 710  2020.127
 711  2242.503
 712  2156.914
 713  1992.773
 714  1965.363
 715  1928.203
 716  1932.361
 717  1909.274
 718  1911.198
 719  2056.695
 720  2062.85
 721  2016.012
 722  2166.514
 723  2322.051
 724  2322.269
 725  2237.768
 726  2102.594
 727  2248.342
 728  2235.651
 729  2159.034
 730  2082.228
 731  2166.234
 732  2188.443
 733  2257.277
 734  2149.609
 735  2200.036
 736  2091.727
 737  1973.034
 738  2004.336
 739  2019.38
 740  2112.894
 741  2197.123
 742  2220.997
 743  2167.911
 744  2018.404
 745  1955.867
 746  2117.229
 747  2215.156
 748  2254.741
 749  2182.583
 750  2154.43
 751  2241.2
 752  2179.053
 753  2035.868
 754  1962.942
 755  1966.721
 756  1964.163
 757  2030.623
 758  2111.969
 759  2136.464
 760  2118.41
 761  2097.636
 762  2110.003
 763  2321.702
 764  2306.586
 765  2333.514
 766  2215.322
 767  2221.694
 768  2201.251
 769  2039.866
 770  2066.354
 771  2107.809
 772  2185.244
 773  2134.674
 774  2023.028
 775  1963.83
 776  2071.307
 777  2166.475
 778  2255.42
 779  2241.626
 780  2121.844
 781  2021.585
 782  1998.594
 783  1906.106
 784  2074.045
 785  2109.257
 786  2140.329
 787  2253.622
 788  2354.684
 789  2554.772
 790  2448.759
 791  2407.366
 792  2468.352
 793  2470.712
 794  2431.805
 795  2409.637
 796  2330.496
 797  2374.184
 798  2293.881
 799  2143.956
 800  2213.138
 801  2200.778
 802  2246.487
 803  2153.966
 804  2139.697
 805  2215.542
 806  2173.31
 807  2310.67
 808  2469.577
 809  2567.34
 810  2487.379
 811  2438.172
 812  2360.527
 813  2428.476
 814  2410.974
 815  2311.595
 816  2363.567
 817  2319.345
 818  2318.646
 819  2181.021
 820  2111.899
 821  2024.439
 822  1965.838
 823  1884.298
 824  2000.222
 825  2059.24
 826  2134.895
 827  2100.068
 828  2084.416
 829  2204.444
 830  2300.593
 831  2356.888
 832  2354.1
 833  2288.233
 834  2235.555
 835  2163.048
 836  2165.82
 837  2184.47
 838  2142.573
 839  2035.175
 840  2072.848
 841  2256.366
 842  2438.742
 843  2432.441
 844  2373.666
 845  2260.347
 846  2194.239
 847  2087.6
 848  2178.898
 849  2227.539
 850  2214.261
 851  2170.707
 852  2104.787
 853  2011.224
 854  2001.181
 855  2079.973
 856  2178.565
 857  2219.245
 858  2165.665
 859  2263.438
 860  2223.085
 861  2283.988
 862  2257.931
 863  2186.865
 864  2024.419
 865  1942.333
 866  1898.385
 867  1938.446
 868  2023.063
 869  2044.761
 870  2144.498
 871  2115.417
 872  2058.265
 873  2080.028
 874  2103.631
 875  2146.679
 876  2083.748
 877  2038.178
 878  2231.547
 879  2262.14
 880  2173.752
 881  2205.061
 882  2208.327
 883  2310.56
 884  2149.045
 885  2013.941
 886  2050.473
 887  2029.634
 888  2102.534
 889  2096.957
 890  2061.535
 891  2131.622
 892  2001.855
 893  2011.985
 894  2128.04
 895  2242.504
 896  2345.378
 897  2391.596
 898  2384.515
 899  2300.791
 900  2153.372
 901  2073.426
 902  2005.974
 903  1944.357
 904  1925.984
 905  1903.983
 906  1805.537
 907  1954.398
 908  2105.635
 909  2184.003
 910  2150.887
 911  2111.896
 912  2186.013
 913  2167.349
 914  2192.821
 915  2213.086
 916  2157.893
 917  1956.447
 918  1943.478
 919  2017.068
 920  2102.77
 921  2118.145
 922  2171.611
 923  2274.08
 924  2335.594
 925  2242.922
 926  2192.539
 927  2227.197
 928  2345.359
 929  2339.187
 930  2279.997
 931  2379.008
 932  2559.391
 933  2411.437
 934  2190.051
 935  2293.705
 936  2329.509
 937  2235.621
 938  2066.836
 939  2073.825
 940  2078.862
 941  1989.925
 942  2056.586
 943  2144.762
 944  2221.516
 945  2270.482
 946  2377.16
 947  2386.857
 948  2431.952
 949  2317.507
 950  2164.852
 951  2238.173
 952  2271.307
 953  2293.542
 954  2157.079
 955  2010.981
 956  2069.685
 957  2124.152
 958  2224.591
 959  2285.704
 960  2368.026
 961  2488.584
 962  2586.44
 963  2435.002
 964  2386.181
 965  2224.548
 966  2215.479
 967  1984.749
 968  1764.586
 969  1761.546
 970  1886.534
 971  1945.455
 972  2086.776
 973  2169.953
 974  2283.421
 975  2209.819
 976  2192.563
 977  2251.333
 978  2230.565
 979  2090.275
 980  2185.198
 981  2270.31
 982  2245.914
 983  2170.031
 984  2058.377
 985  2212.218
 986  2178.223
 987  2128.704
 988  2191.688
 989  2109.947
 990  2158.057
 991  2070.295
 992  2107.917
 993  2162.463
 994  2260.892
 995  2299.945
 996  2257.324
 997  2134.589
 998  2058.661
 999  2082.904
1000  2034.282
1001  2190.325
1002  2256.469
1003  2265.373
1004  2114.763
1005  2057.669
1006  2168.552
1007  2211.794
1008  2175.216
1009  2164.586
1010  2228.897
1011  2238.158
1012  2301.638
1013  2294.28
1014  2136.044
1015  2027.413
1016  2076.149
1017  2212.818
1018  2094.817
1019  2006.624
1020  2127.088
1021  2215.03
1022  2058.886
1023  1933.23
