# Input file       =  1199982936.105925_cleaned.dat
# Candidate        =  PSR_0332+5434
# Telescope        =  AR
# Epoch_topo       =  58132.691610022281
# Epoch_bary       =  N/A
# T_sample         =  0.002
# Data Folded      =  7340032
# Data Avg         =  0.0511820499820702
# Data StdDev      =  0.999886487972926
# Profile Bins     =  512
# Profile Avg      =  733.741532577995 
# Profile StdDev   =  119.719445237099 
# Reduced chi-sqr  =  1.223
# Prob(Noise)      <  0.000398   (~3.4 sigma)
# P_topo (ms)      =  714.56637238074   +/- 0.000179
# P'_topo (s/s)    =  -0                +/- 9.42e-11
# P''_topo (s/s^2) =  0                 +/- 4.16e-14
# P_bary (ms)      =  N/A
# P'_bary (s/s)    =  N/A
# P''_bary (s/s^2) =  N/A
# P_orb (s)        =  N/A
# asin(i)/c (s)    =  N/A
# eccentricity     =  N/A
# w (rad)          =  N/A
# T_peri           =  N/A
######################################################
   0  1372.499
   1  1310.656
   2  1133.021
   3  872.733
   4  757.683
   5  756.3505
   6  724.1862
   7  647.8339
   8  671.1142
   9  605.7307
  10  754.0587
  11  858.9927
  12  751.1822
  13  706.5966
  14  783.7341
  15  728.5916
  16  628.4246
  17  711.5374
  18  698.6187
  19  662.7226
  20  639.0576
  21  773.4116
  22  763.8771
  23  711.3032
  24  672.1702
  25  727.569
  26  687.8989
  27  659.785
  28  680.2257
  29  835.5193
  30  773.1962
  31  685.868
  32  671.6807
  33  742.1522
  34  632.6507
  35  650.1525
  36  675.5605
  37  634.3259
  38  559.2947
  39  682.9637
  40  765.1359
  41  746.8794
  42  723.6825
  43  717.7449
  44  720.4248
  45  733.9802
  46  850.8679
  47  789.3119
  48  713.4343
  49  674.0662
  50  767.2789
  51  700.5601
  52  639.1626
  53  721.5329
  54  805.0765
  55  807.4645
  56  749.0731
  57  722.4672
  58  669.5564
  59  653.7619
  60  694.5493
  61  799.8337
  62  784.1097
  63  734.723
  64  737.8222
  65  748.5042
  66  801.1459
  67  838.1813
  68  839.5463
  69  959.7315
  70  914.8373
  71  829.3829
  72  763.1979
  73  675.7369
  74  705.2399
  75  796.4211
  76  787.9274
  77  743.4015
  78  649.5497
  79  638.5826
  80  672.4594
  81  774.5046
  82  808.1582
  83  824.0439
  84  735.5564
  85  734.7011
  86  768.9554
  87  838.5576
  88  788.2381
  89  762.9105
  90  747.1443
  91  797.9011
  92  758.9265
  93  664.8416
  94  621.2443
  95  631.3903
  96  719.3604
  97  789.8002
  98  828.0592
  99  810.9405
 100  717.608
 101  748.4358
 102  704.1328
 103  686.2643
 104  580.374
 105  721.4246
 106  849.9845
 107  752.0944
 108  667.0213
 109  767.2855
 110  716.5392
 111  756.4697
 112  760.2307
 113  789.4113
 114  786.1962
 115  704.9117
 116  639.8143
 117  616.288
 118  719.3807
 119  822.413
 120  827.3893
 121  657.5865
 122  569.354
 123  541.4197
 124  627.0382
 125  597.6856
 126  698.748
 127  814.3717
 128  756.4441
 129  784.2149
 130  745.0863
 131  756.962
 132  676.2867
 133  714.144
 134  720.1295
 135  656.6273
 136  764.0528
 137  779.7279
 138  732.8934
 139  554.6884
 140  559.227
 141  636.8785
 142  567.9062
 143  706.8177
 144  767.9433
 145  789.4644
 146  811.7725
 147  788.6223
 148  880.7645
 149  768.2488
 150  667.4642
 151  658.0699
 152  653.5844
 153  727.6898
 154  757.5416
 155  755.1525
 156  733.8081
 157  700.5248
 158  699.7382
 159  737.7132
 160  679.5454
 161  677.4611
 162  731.4042
 163  766.5082
 164  798.4875
 165  816.1571
 166  802.6732
 167  778.2344
 168  820.5304
 169  825.5323
 170  835.6555
 171  749.9915
 172  785.6572
 173  729.8016
 174  747.4022
 175  618.7072
 176  561.6277
 177  703.2405
 178  712.3951
 179  642.6277
 180  615.2139
 181  792.0615
 182  848.3099
 183  741.4355
 184  733.5117
 185  737.616
 186  691.2606
 187  688.5754
 188  597.3126
 189  718.5131
 190  742.4756
 191  695.4548
 192  666.0692
 193  713.8123
 194  864.7922
 195  801.6989
 196  732.6031
 197  738.4586
 198  771.2652
 199  734.3702
 200  707.4792
 201  730.7844
 202  763.8293
 203  760.7294
 204  682.5756
 205  669.8568
 206  605.4435
 207  659.2222
 208  610.7547
 209  584.247
 210  741.6038
 211  703.4316
 212  716.0828
 213  693.9304
 214  507.5339
 215  684.502
 216  738.7982
 217  584.0903
 218  591.6846
 219  604.8594
 220  739.1309
 221  710.2486
 222  713.2944
 223  596.8545
 224  688.7725
 225  710.3838
 226  720.4442
 227  655.4752
 228  667.7894
 229  730.1403
 230  674.8668
 231  633.6225
 232  720.2858
 233  687.3062
 234  687.3017
 235  773.4913
 236  711.7032
 237  806.447
 238  785.5479
 239  754.3576
 240  738.7715
 241  717.8906
 242  563.2914
 243  520.9047
 244  722.477
 245  724.2591
 246  783.5359
 247  694.1229
 248  685.1384
 249  744.5955
 250  565.0907
 251  542.6798
 252  714.6165
 253  768.8933
 254  706.4586
 255  576.5507
 256  667.2435
 257  815.0302
 258  682.4221
 259  555.2918
 260  630.3745
 261  635.1958
 262  712.9182
 263  867.7299
 264  795.5974
 265  719.95
 266  611.0188
 267  651.1151
 268  766.8463
 269  747.5227
 270  656.4653
 271  597.3859
 272  606.4548
 273  578.1141
 274  585.2098
 275  582.7769
 276  647.1506
 277  627.7001
 278  628.4202
 279  653.4648
 280  581.3803
 281  644.2215
 282  786.1999
 283  779.1718
 284  755.1405
 285  737.1921
 286  762.8003
 287  720.7465
 288  607.6934
 289  690.1907
 290  721.1125
 291  755.8805
 292  851.8688
 293  712.5406
 294  725.442
 295  756.9657
 296  675.1168
 297  572.2564
 298  601.2225
 299  622.2795
 300  675.8769
 301  727.3834
 302  776.2277
 303  666.4684
 304  593.4189
 305  687.6557
 306  664.1981
 307  662.1625
 308  746.476
 309  800.4288
 310  759.4457
 311  682.5074
 312  646.5222
 313  518.1311
 314  668.8422
 315  710.3171
 316  582.6145
 317  605.2929
 318  724.2514
 319  732.7528
 320  721.3212
 321  686.946
 322  649.3694
 323  643.5828
 324  624.6182
 325  616.6456
 326  725.5863
 327  726.7878
 328  751.3317
 329  751.8932
 330  749.6932
 331  792.0591
 332  851.5908
 333  864.0531
 334  816.5117
 335  735.2385
 336  773.8615
 337  802.2203
 338  775.9653
 339  738.2231
 340  648.3195
 341  709.0276
 342  632.8732
 343  649.3579
 344  676.431
 345  703.9623
 346  692.9736
 347  689.3936
 348  666.4091
 349  719.3356
 350  776.4781
 351  685.7425
 352  717.3932
 353  796.6902
 354  768.0278
 355  636.8514
 356  712.7675
 357  677.2712
 358  598.2929
 359  729.0722
 360  737.6
 361  733.7681
 362  806.8696
 363  949.019
 364  841.9096
 365  714.8571
 366  789.2695
 367  711.1422
 368  601.3641
 369  602.1279
 370  798.5959
 371  724.3815
 372  729.0819
 373  785.4633
 374  760.9385
 375  691.1464
 376  705.5893
 377  753.3312
 378  632.5021
 379  659.4938
 380  788.062
 381  776.9371
 382  697.0626
 383  648.8625
 384  719.3251
 385  794.2914
 386  753.6965
 387  705.9726
 388  675.2286
 389  743.2616
 390  660.547
 391  696.6602
 392  854.2385
 393  823.8889
 394  725.0387
 395  791.2988
 396  766.0536
 397  770.0953
 398  877.7977
 399  802.9953
 400  754.4156
 401  631.5529
 402  724.6736
 403  693.4311
 404  792.2526
 405  727.6422
 406  650.5405
 407  648.9016
 408  687.8545
 409  759.6727
 410  794.5162
 411  694.1159
 412  757.8888
 413  844.2407
 414  717.313
 415  632.9814
 416  866.0503
 417  971.9147
 418  873.1746
 419  744.5935
 420  669.7508
 421  716.4525
 422  630.7369
 423  644.9494
 424  787.1293
 425  776.0804
 426  858.8033
 427  818.3589
 428  798.5292
 429  767.694
 430  783.0562
 431  794.6223
 432  830.9821
 433  813.888
 434  769.5746
 435  743.5954
 436  723.2913
 437  760.2383
 438  866.0656
 439  849.6846
 440  825.5537
 441  854.4122
 442  791.698
 443  852.1666
 444  765.2175
 445  737.7482
 446  798.1422
 447  763.6209
 448  785.3627
 449  802.9897
 450  788.3253
 451  685.6981
 452  745.6562
 453  775.5908
 454  830.0825
 455  812.2355
 456  869.5239
 457  858.9735
 458  833.3982
 459  839.3505
 460  849.9894
 461  788.2837
 462  812.6186
 463  843.1477
 464  820.9948
 465  902.9304
 466  799.1144
 467  810.5962
 468  786.3122
 469  706.3235
 470  766.5727
 471  795.7762
 472  762.917
 473  652.1002
 474  766.2889
 475  807.0031
 476  834.8182
 477  866.0564
 478  863.8329
 479  744.6053
 480  656.6294
 481  702.1664
 482  694.6732
 483  724.4746
 484  764.8101
 485  877.2933
 486  730.6213
 487  633.0363
 488  772.7407
 489  735.6514
 490  679.115
 491  719.018
 492  834.9261
 493  882.4896
 494  772.8392
 495  776.6829
 496  767.5947
 497  706.2184
 498  667.2044
 499  618.8372
 500  653.7437
 501  710.6248
 502  777.1769
 503  795.0099
 504  738.9294
 505  696.6594
 506  784.8102
 507  914.6861
 508  949.246
 509  1120.621
 510  1216.743
 511  1314.225
