# Input file       =  1199997843.109079_cleaned.dat
# Candidate        =  PSR_0332+5434
# Telescope        =  AR
# Epoch_topo       =  58132.864144781008
# Epoch_bary       =  N/A
# T_sample         =  0.002
# Data Folded      =  7340032
# Data Avg         =  0.066820470808378
# Data StdDev      =  1.00032629970881 
# Profile Bins     =  512
# Profile Avg      =  957.810101658433 
# Profile StdDev   =  119.772105231671 
# Reduced chi-sqr  =  0.781
# Prob(Noise)      <  1   (~0.0 sigma)
# P_topo (ms)      =  714.566833542897  +/- 0.000325
# P'_topo (s/s)    =  -0                +/- 1.71e-10
# P''_topo (s/s^2) =  0                 +/- 7.57e-14
# P_bary (ms)      =  N/A
# P'_bary (s/s)    =  N/A
# P''_bary (s/s^2) =  N/A
# P_orb (s)        =  N/A
# asin(i)/c (s)    =  N/A
# eccentricity     =  N/A
# w (rad)          =  N/A
# T_peri           =  N/A
######################################################
   0  895.4903
   1  824.1201
   2  1000.228
   3  1063.842
   4  1019.859
   5  956.902
   6  942.8217
   7  868.1359
   8  800.541
   9  936.465
  10  1047.866
  11  1026.764
  12  906.791
  13  825.9487
  14  933.3607
  15  981.121
  16  933.9344
  17  898.904
  18  981.344
  19  890.777
  20  925.8111
  21  926.0973
  22  921.7296
  23  924.8998
  24  1031.631
  25  929.3458
  26  904.9203
  27  1027.892
  28  929.3187
  29  914.5018
  30  906.1691
  31  1016.151
  32  1047.821
  33  919.207
  34  816.4506
  35  878.639
  36  918.2545
  37  961.0025
  38  893.2148
  39  874.538
  40  927.4473
  41  871.7385
  42  886.1522
  43  881.6091
  44  914.5011
  45  1118.685
  46  1013.516
  47  854.92
  48  920.8989
  49  915.6971
  50  973.138
  51  1031.104
  52  1041.048
  53  1041.693
  54  918.1656
  55  760.5159
  56  973.8314
  57  944.714
  58  997.2883
  59  1003.567
  60  1089.412
  61  1029.937
  62  924.488
  63  978.637
  64  972.7578
  65  1012.71
  66  955.2733
  67  939.9058
  68  1007.631
  69  952.7307
  70  875.3148
  71  873.4496
  72  917.321
  73  941.8937
  74  878.5194
  75  924.6496
  76  936.5859
  77  989.5586
  78  1089.235
  79  1091.009
  80  1050.422
  81  910.2139
  82  978.29
  83  1004.688
  84  985.1257
  85  999.1849
  86  941.2624
  87  904.2529
  88  977.5579
  89  996.4576
  90  896.1905
  91  874.3463
  92  1094.885
  93  1057.813
  94  1108.601
  95  1089.709
  96  1133.134
  97  1112.244
  98  1152.299
  99  1201.905
 100  1232.407
 101  1304.278
 102  1313.456
 103  1347.51
 104  1348.461
 105  1288.263
 106  1113.273
 107  1019.41
 108  920.5463
 109  825.2765
 110  970.7632
 111  998.0508
 112  915.6937
 113  863.9036
 114  950.8319
 115  899.4932
 116  944.7471
 117  1032.755
 118  1070.279
 119  999.465
 120  1036.731
 121  1002.812
 122  963.4983
 123  1013.484
 124  986.2079
 125  940.9761
 126  892.6734
 127  785.1663
 128  756.4969
 129  873.0225
 130  879.5568
 131  962.3131
 132  968.881
 133  917.1613
 134  990.1183
 135  972.106
 136  1000.415
 137  970.6675
 138  995.0938
 139  970.8256
 140  973.2171
 141  935.4888
 142  829.0464
 143  942.5255
 144  846.7714
 145  912.7381
 146  902.6407
 147  847.9412
 148  949.5283
 149  918.9069
 150  880.4569
 151  891.4911
 152  927.9714
 153  920.5857
 154  907.7593
 155  917.535
 156  986.2054
 157  962.828
 158  912.2603
 159  995.1427
 160  1023.785
 161  1055.957
 162  1044.078
 163  1000.682
 164  949.5706
 165  868.194
 166  945.166
 167  894.3239
 168  1002.434
 169  912.1131
 170  902.6646
 171  908.1125
 172  868.7863
 173  958.504
 174  954.1106
 175  854.2321
 176  883.0748
 177  1019.942
 178  1091.205
 179  889.476
 180  875.5266
 181  1002.817
 182  1001.758
 183  853.9211
 184  865.5511
 185  999.6874
 186  957.1408
 187  840.7958
 188  978.9816
 189  1029.562
 190  1024.434
 191  887.5317
 192  991.4468
 193  975.2695
 194  974.2717
 195  958.3052
 196  972.3254
 197  922.5763
 198  934.3403
 199  891.8447
 200  893.8399
 201  825.5132
 202  868.0195
 203  914.2343
 204  1013.295
 205  953.7344
 206  935.1295
 207  1017.294
 208  975.6846
 209  951.7892
 210  902.6871
 211  886.1241
 212  798.7578
 213  842.6381
 214  982.0655
 215  921.8027
 216  943.0377
 217  909.1956
 218  895.6102
 219  849.9855
 220  856.2495
 221  936.4375
 222  933.7688
 223  953.4979
 224  948.5566
 225  913.7494
 226  925.1096
 227  952.5135
 228  1104.68
 229  1033.25
 230  950.0992
 231  905.3423
 232  935.7892
 233  981.22
 234  917.5017
 235  1011.863
 236  946.176
 237  968.3126
 238  928.0356
 239  924.5164
 240  905.3916
 241  934.3538
 242  1016.196
 243  980.2032
 244  940.3285
 245  1034.473
 246  1063.861
 247  966.7347
 248  983.4468
 249  1002.361
 250  967.9556
 251  878.4176
 252  923.9941
 253  866.2287
 254  807.231
 255  855.0883
 256  1033.753
 257  987.7521
 258  954.1819
 259  976.3983
 260  907.0958
 261  890.8738
 262  956.5292
 263  1024.285
 264  997.9515
 265  970.8953
 266  976.4061
 267  920.2009
 268  965.1348
 269  1013.558
 270  982.8477
 271  978.8929
 272  1042.481
 273  911.0875
 274  890.3478
 275  948.6495
 276  954.7911
 277  996.6793
 278  1029.923
 279  983.6403
 280  917.9465
 281  1018.637
 282  1133.809
 283  1082.447
 284  1105.551
 285  942.3841
 286  996.5573
 287  1001.92
 288  918.4352
 289  888.5978
 290  891.3024
 291  941.8428
 292  940.6606
 293  987.7755
 294  956.0399
 295  946.6695
 296  928.2165
 297  969.6913
 298  1043.85
 299  979.8994
 300  1037.273
 301  998.1207
 302  937.1494
 303  949.2986
 304  986.2816
 305  1020.19
 306  998.5779
 307  983.4659
 308  1025.194
 309  1009.737
 310  971.9066
 311  1012.079
 312  891.6061
 313  844.9156
 314  901.3802
 315  933.7461
 316  995.8793
 317  911.0187
 318  898.5009
 319  1030.75
 320  897.762
 321  1016.164
 322  1027.432
 323  988.1202
 324  947.5793
 325  961.2047
 326  1005.551
 327  937.8315
 328  1032.03
 329  1094.728
 330  923.0138
 331  929.5648
 332  1050.914
 333  1076.056
 334  1050.13
 335  1067.661
 336  1125.327
 337  958.0149
 338  903.4985
 339  899.3264
 340  883.568
 341  887.0091
 342  863.3956
 343  900.2006
 344  928.9729
 345  964.0303
 346  938.9058
 347  904.9609
 348  983.8331
 349  1034.711
 350  1076.947
 351  1057.518
 352  963.816
 353  932.6619
 354  1031.747
 355  935.6848
 356  941.9577
 357  933.6843
 358  989.2557
 359  978.1946
 360  1037.249
 361  1079.364
 362  1050.946
 363  1000.688
 364  1023.547
 365  947.5715
 366  1042.475
 367  970.6091
 368  963.8808
 369  908.4692
 370  1022.323
 371  1067.364
 372  1005.858
 373  946.2341
 374  1032.782
 375  1035.862
 376  978.4591
 377  880.6158
 378  973.1832
 379  890.1973
 380  895.3635
 381  872.1689
 382  818.1375
 383  860.4691
 384  878.9744
 385  915.6682
 386  884.1506
 387  852.8831
 388  932.3711
 389  923.593
 390  878.7555
 391  907.1053
 392  981.9936
 393  1007.236
 394  866.433
 395  851.0378
 396  816.0593
 397  889.9992
 398  952.5707
 399  930.9995
 400  920.1431
 401  918.2674
 402  870.5958
 403  950.0453
 404  978.2249
 405  987.0708
 406  950.6519
 407  955.3788
 408  1050.974
 409  909.9257
 410  950.0443
 411  990.5527
 412  900.4897
 413  906.8973
 414  921.4871
 415  1023.343
 416  917.7828
 417  916.8822
 418  935.3633
 419  905.3995
 420  949.163
 421  1021.399
 422  1020.68
 423  945.0986
 424  846.1216
 425  965.6992
 426  951.7747
 427  1005.024
 428  998.7828
 429  948.2396
 430  863.9231
 431  1030.411
 432  1119.608
 433  1068.186
 434  1028.888
 435  1075.899
 436  994.0972
 437  922.6603
 438  1016.955
 439  987.2505
 440  975.5087
 441  1043.452
 442  971.6854
 443  950.8118
 444  1010.205
 445  973.1882
 446  932.2279
 447  971.438
 448  965.4946
 449  889.3163
 450  914.3137
 451  917.529
 452  910.4006
 453  873.8935
 454  909.8068
 455  893.2405
 456  931.2734
 457  970.5224
 458  1083.214
 459  936.3803
 460  1016.571
 461  1080.509
 462  1026.028
 463  935.0355
 464  933.2819
 465  959.869
 466  1000.397
 467  883.9937
 468  924.2694
 469  923.5153
 470  869.6072
 471  930.2981
 472  976.748
 473  994.4199
 474  943.9233
 475  946.3278
 476  1006.082
 477  1009.857
 478  997.2095
 479  947.4642
 480  933.4736
 481  1029.294
 482  1013.238
 483  965.6686
 484  867.0139
 485  892.3048
 486  919.7568
 487  930.7581
 488  866.7695
 489  878.1304
 490  934.1604
 491  907.6416
 492  899.6054
 493  962.8405
 494  869.3392
 495  967.0842
 496  855.3099
 497  855.444
 498  910.8531
 499  902.0366
 500  911.0013
 501  909.9266
 502  905.9069
 503  970.6541
 504  931.4634
 505  897.1072
 506  862.7292
 507  898.6425
 508  835.0452
 509  872.9478
 510  880.8947
 511  954.1501
