# Input file       =  1199896224.112061_cleaned.dat
# Candidate        =  PSR_0332+5434
# Telescope        =  AR
# Epoch_topo       =  58131.687998982190
# Epoch_bary       =  N/A
# T_sample         =  0.002
# Data Folded      =  7340032
# Data Avg         =  0.051046786963237
# Data StdDev      =  1.00012228535859 
# Profile Bins     =  512
# Profile Avg      =  731.797893042851 
# Profile StdDev   =  119.747677974055 
# Reduced chi-sqr  =  1.147
# Prob(Noise)      <  0.0118   (~2.3 sigma)
# P_topo (ms)      =  714.565665916367  +/- 0.0002
# P'_topo (s/s)    =  -0                +/- 1.05e-10
# P''_topo (s/s^2) =  0                 +/- 4.66e-14
# P_bary (ms)      =  N/A
# P'_bary (s/s)    =  N/A
# P''_bary (s/s^2) =  N/A
# P_orb (s)        =  N/A
# asin(i)/c (s)    =  N/A
# eccentricity     =  N/A
# w (rad)          =  N/A
# T_peri           =  N/A
######################################################
   0  1360.98
   1  1255.675
   2  1101.49
   3  849.9514
   4  837.9926
   5  873.3185
   6  695.7275
   7  636.0518
   8  686.8723
   9  700.418
  10  738.7005
  11  701.1226
  12  818.0345
  13  778.5207
  14  814.7615
  15  701.1185
  16  547.7789
  17  705.4158
  18  765.7596
  19  779.5045
  20  692.0336
  21  642.9862
  22  715.0018
  23  785.4905
  24  765.8429
  25  774.8826
  26  769.6917
  27  759.7932
  28  814.1942
  29  653.7482
  30  576.0204
  31  545.0737
  32  613.0734
  33  779.0486
  34  842.177
  35  730.0146
  36  781.8557
  37  752.4597
  38  655.3773
  39  578.6718
  40  630.5161
  41  602.428
  42  638.6678
  43  773.5648
  44  695.2789
  45  675.2561
  46  804.883
  47  731.022
  48  681.2075
  49  650.2393
  50  695.1433
  51  636.2458
  52  771.2694
  53  735.6494
  54  751.764
  55  754.3516
  56  779.2112
  57  794.4833
  58  779.9718
  59  656.0734
  60  655.5697
  61  741.332
  62  741.6576
  63  742.2269
  64  851.9287
  65  768.8475
  66  789.8485
  67  720.7526
  68  660.3915
  69  738.7497
  70  823.87
  71  762.0917
  72  811.8578
  73  777.8948
  74  774.976
  75  736.9931
  76  684.4126
  77  744.3451
  78  657.2129
  79  781.7415
  80  804.715
  81  681.9995
  82  613.4652
  83  672.4677
  84  768.9713
  85  915.4648
  86  928.4202
  87  927.0372
  88  910.7596
  89  813.2414
  90  733.2409
  91  758.5529
  92  790.6481
  93  756.5841
  94  779.2083
  95  865.9199
  96  826.494
  97  845.5768
  98  838.3444
  99  814.869
 100  780.0107
 101  640.1516
 102  615.9451
 103  625.2357
 104  644.3619
 105  748.3268
 106  811.4115
 107  768.0414
 108  780.7806
 109  797.641
 110  707.5522
 111  778.2299
 112  857.5932
 113  772.9492
 114  664.3063
 115  711.2827
 116  677.2927
 117  669.1633
 118  677.2722
 119  690.8784
 120  734.1524
 121  759.2549
 122  730.3812
 123  604.2222
 124  616.9943
 125  676.2324
 126  717.7626
 127  665.2764
 128  701.5308
 129  697.4718
 130  804.5275
 131  762.03
 132  724.6501
 133  719.0435
 134  735.1132
 135  727.9949
 136  737.3171
 137  699.63
 138  784.1161
 139  806.4857
 140  749.0203
 141  721.4123
 142  682.7548
 143  628.0501
 144  639.0803
 145  717.546
 146  737.6584
 147  778.4974
 148  784.5385
 149  711.7871
 150  745.2
 151  763.2728
 152  783.7614
 153  707.0309
 154  720.0388
 155  715.7654
 156  890.3296
 157  883.9042
 158  875.517
 159  784.2859
 160  717.4209
 161  641.9272
 162  745.2824
 163  801.8241
 164  948.0182
 165  822.665
 166  783.475
 167  846.2318
 168  675.8997
 169  687.6941
 170  827.4962
 171  967.4679
 172  902.037
 173  828.7007
 174  723.2026
 175  600.1267
 176  721.512
 177  810.0461
 178  830.3508
 179  834.5411
 180  736.1098
 181  764.6112
 182  713.008
 183  722.0068
 184  688.668
 185  703.7691
 186  731.9877
 187  752.8674
 188  820.4332
 189  717.4031
 190  681.5484
 191  775.5685
 192  798.2196
 193  747.9427
 194  773.5141
 195  760.5469
 196  846.0302
 197  811.3292
 198  671.9734
 199  728.8709
 200  750.558
 201  725.9891
 202  659.3631
 203  771.4066
 204  668.3695
 205  696.8505
 206  813.5619
 207  625.3849
 208  599.3423
 209  672.4846
 210  703.4611
 211  728.0684
 212  776.1365
 213  739.136
 214  670.7272
 215  578.0324
 216  543.2812
 217  648.7526
 218  710.4053
 219  839.6985
 220  779.5314
 221  641.1036
 222  666.052
 223  700.9379
 224  643.6464
 225  628.3686
 226  603.3595
 227  607.5238
 228  587.892
 229  622.84
 230  668.9793
 231  561.6898
 232  618.6321
 233  621.7085
 234  728.315
 235  733.3638
 236  814.8687
 237  838.7098
 238  709.8213
 239  758.3869
 240  736.4025
 241  619.1989
 242  640.248
 243  761.2457
 244  696.6265
 245  709.4609
 246  774.9224
 247  779.5342
 248  740.8155
 249  655.2191
 250  596.2471
 251  661.5869
 252  628.357
 253  548.9964
 254  565.8159
 255  702.3151
 256  882.9915
 257  877.937
 258  742.6343
 259  666.599
 260  601.4167
 261  616.6348
 262  718.9235
 263  684.5364
 264  652.3369
 265  689.3149
 266  847.099
 267  902.3676
 268  707.6794
 269  804.4413
 270  858.5385
 271  786.4985
 272  680.8949
 273  688.2149
 274  696.645
 275  708.7044
 276  800.6373
 277  675.4085
 278  721.0062
 279  724.7058
 280  700.1885
 281  764.4669
 282  774.0648
 283  715.6001
 284  680.3246
 285  764.2543
 286  775.2007
 287  723.7283
 288  657.1786
 289  565.4745
 290  651.4975
 291  669.1379
 292  661.4357
 293  735.153
 294  757.5588
 295  682.601
 296  721.5584
 297  825.7375
 298  857.6052
 299  881.8854
 300  696.0423
 301  809.9647
 302  764.9032
 303  740.3256
 304  780.0551
 305  693.8203
 306  697.2752
 307  661.8856
 308  676.2408
 309  721.912
 310  747.4301
 311  699.5993
 312  755.0222
 313  782.0583
 314  834.8276
 315  767.8708
 316  593.2822
 317  654.8335
 318  729.7384
 319  771.5375
 320  718.1313
 321  623.4613
 322  700.7552
 323  718.3963
 324  838.1555
 325  805.2184
 326  722.801
 327  708.7753
 328  749.6732
 329  725.3549
 330  712.3982
 331  762.4329
 332  691.5107
 333  770.1163
 334  759.6016
 335  687.7813
 336  734.993
 337  659.6353
 338  677.8807
 339  842.5809
 340  749.5464
 341  616.9035
 342  647.6375
 343  681.4195
 344  709.0567
 345  674.5602
 346  714.5135
 347  918.0875
 348  802.3389
 349  612.7516
 350  569.038
 351  766.3011
 352  707.8645
 353  777.3625
 354  726.2012
 355  751.9865
 356  728.5552
 357  729.4195
 358  689.7043
 359  647.7888
 360  689.8428
 361  706.0168
 362  827.4506
 363  784.8259
 364  590.2219
 365  617.1681
 366  752.9633
 367  755.3385
 368  743.5907
 369  704.3011
 370  718.4287
 371  720.3811
 372  715.1207
 373  685.9421
 374  683.9868
 375  633.0097
 376  728.3126
 377  714.2842
 378  672.728
 379  648.1528
 380  671.9207
 381  625.9979
 382  706.3323
 383  778.764
 384  811.813
 385  723.2966
 386  689.8703
 387  641.9955
 388  692.6771
 389  643.8286
 390  787.9236
 391  729.7692
 392  675.7513
 393  764.9303
 394  736.743
 395  777.3306
 396  699.6414
 397  636.0668
 398  760.033
 399  723.1421
 400  699.6152
 401  698.9324
 402  618.9958
 403  630.1053
 404  659.8566
 405  653.0576
 406  737.0912
 407  716.4134
 408  699.9224
 409  558.4213
 410  481.2545
 411  699.0972
 412  837.345
 413  731.4708
 414  700.9435
 415  685.3906
 416  645.3448
 417  744.4329
 418  751.894
 419  758.9757
 420  781.9429
 421  757.0552
 422  724.5466
 423  801.7498
 424  782.1508
 425  750.7335
 426  752.1114
 427  794.2211
 428  717.9969
 429  720.0084
 430  798.6375
 431  776.5742
 432  699.5276
 433  699.8281
 434  855.2043
 435  818.3687
 436  734.4683
 437  888.5084
 438  758.4875
 439  779.5432
 440  800.8369
 441  769.2833
 442  702.8107
 443  636.5156
 444  579.3989
 445  598.5697
 446  741.7616
 447  731.6469
 448  724.6508
 449  696.6366
 450  593.8245
 451  717.5848
 452  705.2039
 453  731.0582
 454  789.6797
 455  781.5413
 456  704.7678
 457  703.4767
 458  703.1671
 459  567.4703
 460  740.8054
 461  612.1779
 462  594.2874
 463  637.7104
 464  724.6894
 465  754.9798
 466  713.9743
 467  743.3641
 468  613.7667
 469  653.5079
 470  718.442
 471  694.7401
 472  703.4931
 473  745.2796
 474  715.9327
 475  704.3612
 476  692.0201
 477  665.1427
 478  696.688
 479  608.2576
 480  743.7288
 481  700.8213
 482  708.4147
 483  723.6191
 484  706.1415
 485  640.9469
 486  562.8649
 487  719.3474
 488  705.0825
 489  775.7935
 490  698.0074
 491  653.1611
 492  778.9837
 493  704.3444
 494  790.4863
 495  755.6314
 496  704.6686
 497  702.5924
 498  712.2715
 499  714.9512
 500  684.9969
 501  728.236
 502  667.4289
 503  696.1813
 504  949.3831
 505  947.6034
 506  871.9462
 507  962.3566
 508  998.3695
 509  954.8914
 510  1163.213
 511  1355.636
