# Input file       =  1199623241.089426_cleaned.dat
# Candidate        =  PSR_0332+5434
# Telescope        =  AR
# Epoch_topo       =  58128.528473257247
# Epoch_bary       =  N/A
# T_sample         =  0.002
# Data Folded      =  7143424
# Data Avg         =  0.492125366144781
# Data StdDev      =  7.27855702158779 
# Profile Bins     =  512
# Profile Avg      =  6866.46095863527 
# Profile StdDev   =  859.732852460505 
# Reduced chi-sqr  =  0.722
# Prob(Noise)      <  1   (~0.0 sigma)
# P_topo (ms)      =  714.563361522652  +/- 3.63e-05
# P'_topo (s/s)    =  -0                +/- 1.97e-11
# P''_topo (s/s^2) =  0                 +/- 8.92e-15
# P_bary (ms)      =  N/A
# P'_bary (s/s)    =  N/A
# P''_bary (s/s^2) =  N/A
# P_orb (s)        =  N/A
# asin(i)/c (s)    =  N/A
# eccentricity     =  N/A
# w (rad)          =  N/A
# T_peri           =  N/A
######################################################
   0  6805.853
   1  7361.758
   2  7635.042
   3  7214.959
   4  7459.671
   5  6282.351
   6  6250.552
   7  5952.263
   8  6747.886
   9  6757.206
  10  7164.376
  11  6673.293
  12  6557.876
  13  6846.295
  14  5822.19
  15  6312.093
  16  6856.262
  17  7226.402
  18  6197.269
  19  6637.571
  20  7274.636
  21  7201.019
  22  7569.008
  23  6834.452
  24  7045.846
  25  6367.681
  26  6229.664
  27  6620.672
  28  6937.527
  29  7508.403
  30  6650.742
  31  6957.095
  32  6517.52
  33  6779.963
  34  6422.866
  35  6628.649
  36  7790.027
  37  7970.577
  38  7977.683
  39  7204.885
  40  7024.807
  41  6450.896
  42  6676.954
  43  6480.124
  44  6104.205
  45  7248.765
  46  6753.31
  47  6823.204
  48  6683.907
  49  7710.36
  50  7655.793
  51  7701.608
  52  7174.839
  53  6895.579
  54  7275.48
  55  7109.838
  56  7123.739
  57  7188.113
  58  7755.41
  59  6732.277
  60  6509.717
  61  6427.71
  62  6849.909
  63  7129.523
  64  6628.903
  65  6985.207
  66  6724.614
  67  7337.985
  68  7128.383
  69  7076.913
  70  6838.322
  71  7139.831
  72  7030.462
  73  7044.126
  74  6906.348
  75  6744.733
  76  7248.663
  77  6782.862
  78  7155.053
  79  6547.041
  80  5864.47
  81  6388.898
  82  6012.648
  83  6903.894
  84  6296.957
  85  6798.872
  86  6615.022
  87  7138.982
  88  7302.155
  89  7120.477
  90  7457.384
  91  6739.718
  92  6559.969
  93  5942.142
  94  5506.752
  95  6284.902
  96  6655.272
  97  6256.227
  98  6094.064
  99  7283.165
 100  7212.388
 101  7228.525
 102  7392.364
 103  7382.385
 104  6931.952
 105  7118.457
 106  7306.132
 107  6920.898
 108  7409.584
 109  6876.801
 110  7213.933
 111  6700.482
 112  6654.917
 113  7281.522
 114  6774.327
 115  6909.046
 116  6012.623
 117  6818.81
 118  6961.243
 119  7261.917
 120  7481.583
 121  7646.583
 122  7052.319
 123  6479.566
 124  7207.348
 125  6182.005
 126  6178.56
 127  6520.937
 128  6828.431
 129  6487.375
 130  6320.751
 131  7132.686
 132  6912.751
 133  7029.836
 134  6322.059
 135  6876.775
 136  7381.9
 137  7132.274
 138  7262.369
 139  7080.28
 140  6864.948
 141  6283.044
 142  7154.11
 143  6551.933
 144  7038.314
 145  7433.825
 146  7402.658
 147  7833.164
 148  7163.991
 149  7249.182
 150  6547.484
 151  6393.298
 152  6634.113
 153  7446.043
 154  7857.541
 155  6491.666
 156  6843.767
 157  6986.766
 158  6677.805
 159  6110.655
 160  7063.86
 161  6566.488
 162  6588.315
 163  6543.078
 164  6294.255
 165  6197.529
 166  6058.443
 167  6943.405
 168  6518.476
 169  6532.954
 170  6661.62
 171  6804.588
 172  6698.887
 173  7365.19
 174  7699.249
 175  6991.776
 176  6974.511
 177  6390.734
 178  6945.697
 179  6506.155
 180  7238.916
 181  8303.637
 182  8223.466
 183  7208.846
 184  6108.95
 185  7015.759
 186  7095.142
 187  7218.477
 188  7281.366
 189  7324.863
 190  6984.042
 191  6329.182
 192  6737.793
 193  6778.143
 194  7461.09
 195  6866.595
 196  6880.039
 197  7019.273
 198  6967.603
 199  6932.647
 200  7355.125
 201  7607.043
 202  7178.545
 203  7124.27
 204  6593.21
 205  6465.783
 206  6755.146
 207  7057.726
 208  6813.327
 209  6155.028
 210  6657.968
 211  6252.376
 212  6912.237
 213  6702.756
 214  7397.844
 215  7288.825
 216  7118.429
 217  7364.168
 218  7269.559
 219  6816.724
 220  6458.126
 221  7052.09
 222  7316.044
 223  7379.907
 224  7297.143
 225  6921.418
 226  6235.188
 227  5743.766
 228  7051.731
 229  6552.652
 230  6833.53
 231  7183.336
 232  7489.402
 233  7244.613
 234  6871.957
 235  7772.797
 236  7063.327
 237  6830.529
 238  6434.257
 239  7421.491
 240  7731.976
 241  6750.944
 242  6385.891
 243  6338.316
 244  6794.905
 245  6126.645
 246  6715.493
 247  7034.544
 248  7386.99
 249  7408.498
 250  6990.456
 251  7050.479
 252  6431.614
 253  6805.062
 254  6721.09
 255  6906.756
 256  6616.996
 257  6339.303
 258  6218.973
 259  5877.059
 260  6662.12
 261  6235.49
 262  6289.732
 263  6526.603
 264  7047.427
 265  6526.899
 266  6629.315
 267  7324.49
 268  7707.877
 269  7774.272
 270  6971.373
 271  7182.015
 272  6239.112
 273  5630.287
 274  5491.509
 275  6395.465
 276  6992.758
 277  6158.749
 278  5890.044
 279  5428.17
 280  6254.427
 281  6144.688
 282  6428.568
 283  6221.228
 284  6207.151
 285  6666.487
 286  6688.307
 287  6960.034
 288  6779.303
 289  7814.626
 290  6585.016
 291  6247.945
 292  6913.604
 293  7202.759
 294  7794.694
 295  7219.946
 296  7602.349
 297  7502.544
 298  7738.173
 299  7203.868
 300  6834.039
 301  7378.348
 302  7431.823
 303  6852.992
 304  6488.893
 305  6663.613
 306  6618.988
 307  6826.771
 308  6230.69
 309  6772.738
 310  6703.158
 311  6649.584
 312  6171.798
 313  6700.357
 314  7279.954
 315  7077.804
 316  6808.274
 317  6220.844
 318  6314.005
 319  6422.286
 320  6458.291
 321  6859.913
 322  6902.373
 323  7263.84
 324  6766.792
 325  6692.062
 326  6438.493
 327  6304.792
 328  6470.998
 329  6628.482
 330  7471.685
 331  7426.837
 332  7508.522
 333  6435.168
 334  6642.764
 335  7012.422
 336  6750.589
 337  6776.97
 338  6906.823
 339  7554.47
 340  6811.138
 341  6628.08
 342  6603.37
 343  6840.989
 344  6757.679
 345  6421.936
 346  6925.492
 347  6639.484
 348  6927.904
 349  6480.257
 350  7398.692
 351  7268.806
 352  6958.735
 353  6907.428
 354  6520.057
 355  7017.257
 356  6511.536
 357  6989.954
 358  6599.389
 359  7135.845
 360  7309.259
 361  6689.675
 362  6263.845
 363  6273.701
 364  6257.998
 365  5533.166
 366  6014.68
 367  7079.487
 368  7913.015
 369  6934.984
 370  6362.002
 371  6893.77
 372  6932.199
 373  6392.973
 374  5342.204
 375  5940.653
 376  6434.511
 377  6177.885
 378  6143.271
 379  6387.857
 380  7204.065
 381  7135.746
 382  7243.164
 383  7558.824
 384  7998.758
 385  7796.655
 386  6884.823
 387  6755.785
 388  7169.142
 389  7488.941
 390  6073.552
 391  6513.364
 392  6412.598
 393  6436.335
 394  6566.879
 395  6510.997
 396  6836.674
 397  7227.947
 398  7498.237
 399  6690.64
 400  6923.013
 401  6660.295
 402  6597.29
 403  6828.688
 404  7197.964
 405  6768.654
 406  6063.3
 407  6793.036
 408  6036.23
 409  7054.654
 410  6742.793
 411  6185.862
 412  7044.246
 413  6643.769
 414  7061.182
 415  6341.171
 416  7031.83
 417  6821.644
 418  6906.378
 419  7030.55
 420  6504.942
 421  6027.136
 422  5947.877
 423  6142.373
 424  6060.298
 425  6462.767
 426  6446.949
 427  6291.511
 428  5666.345
 429  6182.014
 430  6646.309
 431  6358.623
 432  6863.673
 433  7185.057
 434  7558.196
 435  6871.252
 436  6924.057
 437  7056.22
 438  7364.84
 439  7298.461
 440  6728.36
 441  7266.781
 442  6798.936
 443  7326.39
 444  7144.643
 445  7325.063
 446  8107.253
 447  8401.64
 448  8480.101
 449  8866.285
 450  10076.78
 451  9276.079
 452  7615.402
 453  7415.512
 454  7130.635
 455  7345.654
 456  6430.976
 457  6951.443
 458  7402.59
 459  7099.486
 460  6302.05
 461  6542.812
 462  6602.222
 463  7173.802
 464  7505.445
 465  7203.828
 466  7672.86
 467  7038.637
 468  7441.626
 469  6843.758
 470  5975.833
 471  6631.529
 472  6218.205
 473  5898.005
 474  6031.324
 475  7105.205
 476  7076.191
 477  7238.945
 478  7286.193
 479  7866.398
 480  7401.844
 481  6621.411
 482  7138.784
 483  7331.791
 484  7500.553
 485  7024.017
 486  7444.494
 487  6466.042
 488  6632.399
 489  6938.829
 490  6315.506
 491  6979.076
 492  7044.135
 493  7144.945
 494  6505.185
 495  6988.59
 496  7206.952
 497  6455.231
 498  6880.313
 499  6506.647
 500  7103.66
 501  6743.622
 502  6730.057
 503  6501.992
 504  7161.161
 505  7239.534
 506  6566.85
 507  6878.386
 508  6692.878
 509  7172.514
 510  6455.646
 511  6676.688
