# Input file       =  1200255831.105539_cleaned.dat
# Candidate        =  PSR_0332+5434
# Telescope        =  AR
# Epoch_topo       =  58135.850116962261
# Epoch_bary       =  N/A
# T_sample         =  0.002
# Data Folded      =  7340032
# Data Avg         =  0.0677748091703895
# Data StdDev      =  3.69063940908687 
# Profile Bins     =  512
# Profile Avg      =  971.515871647036 
# Profile StdDev   =  441.891462621725 
# Reduced chi-sqr  =  0.804
# Prob(Noise)      <  1   (~0.0 sigma)
# P_topo (ms)      =  714.568802721472  +/- 9.11e-05
# P'_topo (s/s)    =  -0                +/- 4.81e-11
# P''_topo (s/s^2) =  0                 +/- 2.12e-14
# P_bary (ms)      =  N/A
# P'_bary (s/s)    =  N/A
# P''_bary (s/s^2) =  N/A
# P_orb (s)        =  N/A
# asin(i)/c (s)    =  N/A
# eccentricity     =  N/A
# w (rad)          =  N/A
# T_peri           =  N/A
######################################################
   0  1062.18
   1  968.6218
   2  657.4711
   3  732.0451
   4  1222.775
   5  1149.992
   6  708.1396
   7  785.5031
   8  1327.344
   9  1285.837
  10  1022.736
  11  1390.662
  12  1247.76
  13  1249.381
  14  1499.978
  15  910.7684
  16  612.464
  17  1004.011
  18  1162.645
  19  1088.52
  20  1083.994
  21  966.0471
  22  935.8109
  23  663.99
  24  599.604
  25  1100.676
  26  1209.928
  27  989.2418
  28  706.2887
  29  1197.329
  30  1260.959
  31  896.3254
  32  1110.049
  33  1045.263
  34  1200.433
  35  1143.39
  36  1107.556
  37  1167.393
  38  1040.919
  39  1230.789
  40  700.7935
  41  680.9891
  42  677.0679
  43  621.6918
  44  927.4021
  45  845.4994
  46  580.9315
  47  1142.045
  48  1247.411
  49  901.9211
  50  621.1042
  51  821.5658
  52  968.9611
  53  827.4142
  54  997.354
  55  1132.786
  56  1112.934
  57  1153.378
  58  1151.128
  59  917.57
  60  746.3791
  61  651.5509
  62  861.5132
  63  1149.327
  64  900.4731
  65  786.4377
  66  618.2847
  67  473.7047
  68  897.4709
  69  816.6612
  70  957.0316
  71  928.2631
  72  1066.464
  73  780.452
  74  400.5088
  75  282.6485
  76  511.4988
  77  801.8323
  78  1062.664
  79  1125.114
  80  1108.896
  81  1137.088
  82  854.7563
  83  676.4174
  84  379.6532
  85  260.9759
  86  565.659
  87  1098.066
  88  1144.601
  89  1043.013
  90  1146.986
  91  852.9059
  92  665.1169
  93  858.8354
  94  1039.94
  95  1106.423
  96  675.8602
  97  691.0682
  98  1007.198
  99  784.6842
 100  518.8546
 101  712.9684
 102  754.1304
 103  808.4734
 104  830.4399
 105  967.286
 106  807.6138
 107  821.6296
 108  1033.53
 109  885.8885
 110  719.4662
 111  1048.852
 112  906.8857
 113  720.3572
 114  737.5661
 115  685.4324
 116  786.3131
 117  890.47
 118  1135.787
 119  826.9309
 120  765.0083
 121  883.1356
 122  1036.33
 123  763.0157
 124  670.137
 125  567.1158
 126  774.9854
 127  1077.401
 128  882.6503
 129  963.8019
 130  1083.164
 131  1387.673
 132  1099.325
 133  972.0635
 134  937.4129
 135  623.3365
 136  582.8244
 137  990.0084
 138  976.1473
 139  949.0132
 140  893.7885
 141  1217.629
 142  1047.985
 143  1124.725
 144  1435.018
 145  1228.74
 146  928.6473
 147  1225.015
 148  1358.612
 149  1009.238
 150  1176.757
 151  1156.565
 152  1248.115
 153  998.3506
 154  929.4271
 155  696.6456
 156  487.8686
 157  383.3235
 158  558.5483
 159  625.8599
 160  591.4688
 161  878.7299
 162  790.5009
 163  581.8808
 164  844.489
 165  1046.603
 166  1057.483
 167  1122.018
 168  1142.309
 169  956.8789
 170  558.1202
 171  544.5303
 172  660.5637
 173  852.5784
 174  593.8859
 175  743.0022
 176  1015.13
 177  854.4163
 178  628.9587
 179  803.2747
 180  769.2892
 181  830.0891
 182  789.622
 183  820.8403
 184  787.108
 185  962.2849
 186  735.257
 187  750.2133
 188  872.0807
 189  955.3099
 190  604.8568
 191  558.9142
 192  929.3116
 193  897.7727
 194  638.2549
 195  536.5025
 196  761.9619
 197  878.9661
 198  640.9936
 199  676.9536
 200  640.4604
 201  1248.007
 202  1107.105
 203  1442.815
 204  1022.479
 205  734.867
 206  794.2434
 207  931.9691
 208  1188.031
 209  780.8433
 210  948.778
 211  989.8668
 212  1151.849
 213  827.0308
 214  732.8389
 215  1099.679
 216  968.2227
 217  967.1817
 218  1201.73
 219  1008.528
 220  709.9982
 221  390.6356
 222  457.7893
 223  312.6089
 224  278.3564
 225  737.3157
 226  745.2208
 227  868.4051
 228  755.4587
 229  771.1523
 230  798.7977
 231  837.2659
 232  945.7458
 233  983.2433
 234  1113.779
 235  1233.984
 236  1185.455
 237  1255.562
 238  895.7794
 239  909.3159
 240  751.1212
 241  658.8683
 242  762.9955
 243  883.3602
 244  1227.83
 245  1166.659
 246  788.1133
 247  1000.282
 248  981.5013
 249  1002.749
 250  1157.006
 251  1169.545
 252  882.978
 253  593.616
 254  844.5379
 255  1101.883
 256  1118.645
 257  773.4522
 258  880.1017
 259  821.497
 260  972.6362
 261  713.2883
 262  924.1708
 263  1445.028
 264  1291.304
 265  839.5886
 266  1051.906
 267  846.5165
 268  1149.522
 269  1287.003
 270  1391.214
 271  1124.038
 272  1107.342
 273  1064.827
 274  702.7687
 275  939.3239
 276  1110.708
 277  987.3991
 278  1161.12
 279  1083.11
 280  1390.249
 281  1320.839
 282  1021.924
 283  697.3398
 284  977.0832
 285  1074.916
 286  1067.114
 287  1100.295
 288  824.3188
 289  1234.481
 290  1278.214
 291  1568.275
 292  1437.143
 293  1578.365
 294  1386.372
 295  1761.832
 296  2188.883
 297  2923.564
 298  2503.969
 299  1803.872
 300  1401.063
 301  1509.072
 302  1430.583
 303  993.3044
 304  1239.904
 305  1191.156
 306  1024.246
 307  948.236
 308  824.5414
 309  1387.727
 310  1283.056
 311  1591.028
 312  1613.536
 313  1153.571
 314  1367.199
 315  1200.191
 316  892.7498
 317  1014.648
 318  971.7048
 319  963.2495
 320  903.5781
 321  915.6345
 322  728.3816
 323  745.6764
 324  785.9077
 325  1213.929
 326  1491.11
 327  1083.846
 328  886.0322
 329  1191.041
 330  827.0894
 331  743.9509
 332  933.5823
 333  1218.707
 334  1125.794
 335  848.7039
 336  963.828
 337  868.7523
 338  716.1389
 339  1027.16
 340  1063.481
 341  1013.608
 342  673.559
 343  670.6987
 344  859.3776
 345  1045.901
 346  1113.882
 347  1362.274
 348  1573.475
 349  1276.296
 350  1023.49
 351  789.702
 352  855.0034
 353  759.4828
 354  882.894
 355  972.9266
 356  956.9522
 357  1014.524
 358  1209.949
 359  1206.902
 360  761.2153
 361  513.9362
 362  873.038
 363  846.9765
 364  931.7419
 365  1050.916
 366  1351.806
 367  1337.615
 368  764.187
 369  570.2458
 370  602.7674
 371  728.7136
 372  890.2566
 373  856.8253
 374  844.3598
 375  737.3314
 376  584.0284
 377  723.6753
 378  689.4753
 379  478.1025
 380  1127.992
 381  1341.962
 382  1118.749
 383  916.7146
 384  685.4274
 385  698.1847
 386  649.8868
 387  1056.107
 388  1007.681
 389  646.1509
 390  970.7482
 391  1042.341
 392  1050.081
 393  674.6715
 394  600.5955
 395  972.6287
 396  934.0119
 397  857.7866
 398  945.5019
 399  1034.817
 400  827.8713
 401  917.5662
 402  906.8196
 403  485.3064
 404  553.4163
 405  815.5028
 406  689.8161
 407  630.4542
 408  644.0624
 409  735.1688
 410  751.3009
 411  643.1008
 412  802.204
 413  845.9973
 414  843.5591
 415  772.2497
 416  1171.998
 417  1230.867
 418  544.4511
 419  797.8206
 420  1015.738
 421  1017.827
 422  1459.95
 423  1521.104
 424  1324.121
 425  1018.947
 426  870.23
 427  1147.576
 428  593.6334
 429  630.0662
 430  1042.649
 431  1035.789
 432  1130.279
 433  895.9894
 434  1036.484
 435  1327.073
 436  1490.312
 437  1334.695
 438  1323.982
 439  1052.05
 440  1123.122
 441  1400.455
 442  917.6062
 443  780.6113
 444  967.7056
 445  1004.609
 446  963.0092
 447  1329.239
 448  1390.293
 449  1190.022
 450  1150.003
 451  1087.935
 452  1473.734
 453  875.1261
 454  965.9858
 455  1271.282
 456  830.425
 457  625.5683
 458  498.7159
 459  750.0776
 460  506.1966
 461  653.8728
 462  732.2538
 463  1217.978
 464  1114.411
 465  1005.717
 466  1045.661
 467  1251.593
 468  1397.946
 469  1408.68
 470  1391.008
 471  730.4449
 472  666.3958
 473  1471.891
 474  1847.673
 475  1232.046
 476  1245.48
 477  1362.019
 478  1099.985
 479  948.355
 480  973.0095
 481  1197.566
 482  1365.6
 483  971.6785
 484  1247.514
 485  1221.789
 486  1275.123
 487  1439.719
 488  1246.729
 489  1159.73
 490  1172.654
 491  760.5774
 492  773.9923
 493  807.632
 494  902.7735
 495  966.4294
 496  739.2792
 497  995.9556
 498  1024.942
 499  805.8604
 500  939.7879
 501  1043.568
 502  1249.887
 503  1375.82
 504  1139.124
 505  1176.262
 506  1243.973
 507  959.1404
 508  1406.554
 509  1436.558
 510  1082.213
 511  958.3943
