# Input file       =  1200312473.104338_cleaned.dat
# Candidate        =  PSR_0332+5434
# Telescope        =  AR
# Epoch_topo       =  58136.505695652057
# Epoch_bary       =  N/A
# T_sample         =  0.002
# Data Folded      =  7143424
# Data Avg         =  0.178917345534284
# Data StdDev      =  4.89558644947137 
# Profile Bins     =  1024
# Profile Avg      =  1248.20652024832 
# Profile StdDev   =  408.891384586802 
# Reduced chi-sqr  =  1.260
# Prob(Noise)      <  2.46e-08   (~5.5 sigma)
# P_topo (ms)      =  714.568868082105  +/- 2.4e-05
# P'_topo (s/s)    =  -0                +/- 1.3e-11
# P''_topo (s/s^2) =  0                 +/- 5.9e-15
# P_bary (ms)      =  N/A
# P'_bary (s/s)    =  N/A
# P''_bary (s/s^2) =  N/A
# P_orb (s)        =  N/A
# asin(i)/c (s)    =  N/A
# eccentricity     =  N/A
# w (rad)          =  N/A
# T_peri           =  N/A
######################################################
   0  983.1206
   1  1064.542
   2  1079.042
   3  1083.958
   4  1028.36
   5  943.3145
   6  967.4833
   7  1075.385
   8  1321.031
   9  1435.522
  10  1520.8
  11  1438.495
  12  1325.44
  13  1114.261
  14  1017.381
  15  878.196
  16  976.3873
  17  1052.285
  18  1266.924
  19  1343.637
  20  1353.066
  21  1147.111
  22  1118.19
  23  1234.596
  24  1478.19
  25  1728.211
  26  1855.141
  27  1898.418
  28  1840.165
  29  1712.947
  30  1347.847
  31  1175.474
  32  1085.951
  33  1082.571
  34  1084.24
  35  993.8209
  36  1049.824
  37  1049.088
  38  1082.051
  39  1169.589
  40  1489.141
  41  1626.666
  42  1644.518
  43  1614.585
  44  1607.854
  45  1466.114
  46  1241.082
  47  1223.085
  48  1110.155
  49  1056.888
  50  1094.294
  51  1255.709
  52  1266.718
  53  1180.642
  54  1152.761
  55  1227.013
  56  1369.338
  57  1489.315
  58  1709.991
  59  1763.971
  60  1790.708
  61  1449.827
  62  1358.527
  63  1149.51
  64  1015.595
  65  796.0671
  66  787.1469
  67  946.1655
  68  1166.68
  69  1218.366
  70  1177.299
  71  1142.338
  72  1111.955
  73  1269.092
  74  1299.691
  75  1506.068
  76  1425.541
  77  1317.433
  78  1141.856
  79  1073.56
  80  986.0019
  81  827.2686
  82  896.835
  83  1133.796
  84  1344.952
  85  1344.159
  86  1269.077
  87  1204.887
  88  1299.424
  89  1431.839
  90  1673.414
  91  1716.233
  92  1570.843
  93  1489.551
  94  1325.763
  95  1181.13
  96  1109.033
  97  1009.045
  98  869.0078
  99  827.0107
 100  870.5699
 101  908.8179
 102  953.8163
 103  978.924
 104  994.3429
 105  1012.416
 106  1052.542
 107  1204.398
 108  1396.807
 109  1420.293
 110  1441.087
 111  1357.687
 112  1313.681
 113  1142.398
 114  1018.278
 115  924.2178
 116  952.7154
 117  1053.037
 118  1066.689
 119  1077.593
 120  1213.459
 121  1455.427
 122  1450.758
 123  1517.932
 124  1557.119
 125  1761.757
 126  1706.071
 127  1578.425
 128  1281.331
 129  1091.875
 130  1027.032
 131  914.1913
 132  981.0558
 133  918.2273
 134  1143.592
 135  1079.857
 136  1098.175
 137  1043.926
 138  1257.784
 139  1284.162
 140  1461.062
 141  1464.478
 142  1501.155
 143  1291.386
 144  1178.463
 145  1222.904
 146  1128.14
 147  1096.112
 148  1006.498
 149  1121.595
 150  1086.787
 151  1211.03
 152  1265.3
 153  1421.821
 154  1339.594
 155  1457.504
 156  1517.739
 157  1627.942
 158  1763.464
 159  1709.048
 160  1660.809
 161  1419.048
 162  1267.245
 163  865.1689
 164  794.7219
 165  835.0622
 166  1123.7
 167  1201.956
 168  1204.635
 169  1087.56
 170  1018.169
 171  1016.467
 172  1136.482
 173  1568.475
 174  1603.942
 175  1690.337
 176  1502.186
 177  1298.881
 178  1138.128
 179  977.9799
 180  986.7015
 181  840.7647
 182  919.9537
 183  960.5828
 184  1102.672
 185  1082.051
 186  1223.279
 187  1377.694
 188  1643.478
 189  1637.228
 190  1807.333
 191  1801.409
 192  1670.274
 193  1505.378
 194  1238.773
 195  1145.389
 196  1050.56
 197  1079.489
 198  934.0319
 199  947.1904
 200  982.1622
 201  1103.22
 202  1134.632
 203  1221.984
 204  1205.781
 205  1246.51
 206  1243.479
 207  1290.54
 208  1485.938
 209  1440.459
 210  1346.933
 211  1076.975
 212  1031.862
 213  999.3408
 214  1037.004
 215  1054.133
 216  1108.891
 217  1192.082
 218  1375.041
 219  1374.698
 220  1410.783
 221  1526.697
 222  1551.825
 223  1663.639
 224  1556.543
 225  1708.21
 226  1599.667
 227  1443.64
 228  1126.936
 229  1016.351
 230  874.1982
 231  747.6555
 232  791.5688
 233  1011.005
 234  1216.716
 235  1300.472
 236  1312.855
 237  1085.13
 238  1081.824
 239  1105.724
 240  1414.774
 241  1430.848
 242  1361.707
 243  1279.519
 244  1216.409
 245  1049.648
 246  986.9158
 247  1003.657
 248  1132.782
 249  1166.478
 250  1228.815
 251  1250.042
 252  1159.747
 253  1326.975
 254  1378.753
 255  1613.91
 256  1716.093
 257  1581.883
 258  1585.459
 259  1445.24
 260  1457.807
 261  1249.956
 262  1091.118
 263  949.8839
 264  1055.802
 265  1037.743
 266  1173.26
 267  1104.838
 268  1136.357
 269  1100.984
 270  1116.437
 271  1091.384
 272  1041.411
 273  1239.909
 274  1324.606
 275  1515.968
 276  1427.2
 277  1196.482
 278  949.6508
 279  743.9717
 280  789.4238
 281  964.3846
 282  1049.675
 283  1091.293
 284  932.8979
 285  944.4801
 286  1084.65
 287  1214.08
 288  1519.971
 289  1567.089
 290  1583.364
 291  1434.093
 292  1308.161
 293  1269.786
 294  1138.78
 295  914.0852
 296  640.5495
 297  627.0782
 298  947.498
 299  1292.195
 300  1309.886
 301  1281.753
 302  1135.485
 303  1242.34
 304  1128.999
 305  1188.568
 306  1318.286
 307  1275.637
 308  1350.134
 309  1214.834
 310  1132.57
 311  842.1564
 312  808.0281
 313  901.9592
 314  1002.023
 315  1058.874
 316  1145.251
 317  1163.34
 318  1332.886
 319  1411.677
 320  1540.46
 321  1659.691
 322  1468.636
 323  1682.755
 324  1645.184
 325  1596.837
 326  1339.732
 327  1221.691
 328  1206.453
 329  1005.644
 330  882.7014
 331  996.9337
 332  1144.002
 333  1152.918
 334  1103.092
 335  1098.246
 336  1181.486
 337  1154.641
 338  1374.039
 339  1452.617
 340  1479.977
 341  1354.58
 342  1048.222
 343  910.4658
 344  809.0059
 345  705.9994
 346  727.6182
 347  801.9138
 348  1009.43
 349  1218.099
 350  1237.058
 351  1358.738
 352  1256.13
 353  1354.273
 354  1363.679
 355  1304.909
 356  1385.539
 357  1357.714
 358  1434.326
 359  1219.942
 360  1095.989
 361  930.8792
 362  838.1861
 363  877.119
 364  937.6442
 365  936.7682
 366  1099.132
 367  1137.704
 368  1245.318
 369  1223.903
 370  1167.886
 371  1377.514
 372  1432.546
 373  1616.135
 374  1570.395
 375  1393.246
 376  1157.116
 377  858.0318
 378  744.4907
 379  778.1386
 380  958.0865
 381  1182.558
 382  1221.896
 383  1273.825
 384  1464.563
 385  1362.763
 386  1439.335
 387  1364.522
 388  1702.512
 389  1756.399
 390  1629.394
 391  1481.976
 392  1254.035
 393  1132.357
 394  986.9975
 395  801.4615
 396  836.0237
 397  902.5872
 398  946.5074
 399  1044.969
 400  960.6141
 401  972.3923
 402  858.326
 403  1001.46
 404  1156.899
 405  1335.875
 406  1579.541
 407  1483.592
 408  1547.479
 409  1423.736
 410  1135.561
 411  964.8976
 412  980.6085
 413  1077.875
 414  1177.033
 415  1091.208
 416  1084.932
 417  889.871
 418  981.8484
 419  1261.119
 420  1435.996
 421  1616.502
 422  1528.744
 423  1619.157
 424  1485.988
 425  1464.16
 426  1259.831
 427  1120.365
 428  925.6292
 429  867.9718
 430  881.5847
 431  1174.668
 432  1310.414
 433  1332.369
 434  1268.647
 435  1212.12
 436  1420.118
 437  1371.986
 438  1442.476
 439  1394.062
 440  1409.65
 441  1274.093
 442  1150.343
 443  924.5435
 444  755.1789
 445  712.8333
 446  954.6909
 447  1133.042
 448  1178.387
 449  1296.177
 450  1214.917
 451  1485.911
 452  1320.226
 453  1518.115
 454  1531.347
 455  1645.866
 456  1635.984
 457  1487.251
 458  1364.256
 459  1141.578
 460  924.2543
 461  853.2343
 462  827.1395
 463  837.3344
 464  961.7812
 465  915.2949
 466  1043.476
 467  1057.047
 468  1242.704
 469  1228.559
 470  1240.889
 471  1555.323
 472  1643.165
 473  1714.23
 474  1351.718
 475  1032.903
 476  856.0472
 477  770.5117
 478  842.8521
 479  1018.931
 480  1112.901
 481  1296.523
 482  1271.224
 483  1264.251
 484  1376.047
 485  1441.593
 486  1711.588
 487  1662.526
 488  1748.664
 489  1569.284
 490  1443.849
 491  1481.489
 492  1265.788
 493  1082.812
 494  914.2701
 495  947.043
 496  1113.27
 497  1182.913
 498  1248.608
 499  1234.894
 500  1028.148
 501  1078.619
 502  970.9261
 503  1182.352
 504  1134.151
 505  1219.044
 506  1375.134
 507  1291.393
 508  1150.292
 509  880.5583
 510  841.8051
 511  831.0824
 512  975.3155
 513  1118.966
 514  1381.455
 515  1331.176
 516  1424.409
 517  1350.236
 518  1278.445
 519  1355.158
 520  1394.655
 521  1653.836
 522  1581.776
 523  1627.838
 524  1420.146
 525  1190.006
 526  1030.941
 527  1112.723
 528  1008.542
 529  938.5811
 530  882.9391
 531  1019.029
 532  1065.001
 533  986.1194
 534  1051.762
 535  986.8652
 536  1033.704
 537  1144.808
 538  1339.603
 539  1451.227
 540  1228.379
 541  1101.711
 542  970.1081
 543  737.2849
 544  783.0169
 545  911.3869
 546  1160.568
 547  1302.019
 548  1165.717
 549  1247.665
 550  1086.388
 551  1228.041
 552  1235.174
 553  1372.688
 554  1443.637
 555  1549.597
 556  1585.126
 557  1531.85
 558  1456.797
 559  1228.768
 560  922.1967
 561  830.3588
 562  1031.806
 563  1014.747
 564  1100.429
 565  987.3889
 566  1000.091
 567  979.1117
 568  904.35
 569  1085.717
 570  1134.548
 571  1397.794
 572  1447.915
 573  1501.357
 574  1394.372
 575  1266.447
 576  1086.171
 577  1102.99
 578  1097.65
 579  1312.006
 580  1373.518
 581  1338.083
 582  1292.354
 583  1189.617
 584  1553.847
 585  1633.178
 586  1729.038
 587  1537.452
 588  1584.021
 589  1649.782
 590  1702.434
 591  1520.412
 592  1301.533
 593  1042.586
 594  941.2417
 595  1025.494
 596  1088.067
 597  1228.681
 598  1293.079
 599  1389.416
 600  1236.397
 601  1265.474
 602  1373.37
 603  1601.252
 604  1658.42
 605  1504.056
 606  1511.93
 607  1459.585
 608  1307.417
 609  1116.694
 610  1146.466
 611  1225.755
 612  1372.786
 613  1588.619
 614  1870.254
 615  1922.362
 616  2037.172
 617  2069.145
 618  2233.138
 619  2289.88
 620  2174.043
 621  2099.488
 622  1902.377
 623  1718.233
 624  1453.15
 625  1212.102
 626  1035.025
 627  882.9884
 628  925.335
 629  1210.67
 630  1269.681
 631  1089.851
 632  996.0051
 633  974.4931
 634  1120.521
 635  1179.742
 636  1333.724
 637  1353.838
 638  1380.621
 639  1272.027
 640  1096.292
 641  951.2041
 642  954.5903
 643  937.5081
 644  1083.876
 645  1057.333
 646  1141.371
 647  1210.046
 648  1085.809
 649  1277.464
 650  1226.639
 651  1457.461
 652  1493.142
 653  1501.35
 654  1577.701
 655  1454.656
 656  1443.117
 657  1287.033
 658  1081.799
 659  905.262
 660  807.8148
 661  907.3631
 662  1075.582
 663  1140.305
 664  1261.234
 665  1030.034
 666  991.0467
 667  988.7207
 668  1067.785
 669  1280.302
 670  1276.664
 671  1463.236
 672  1413.089
 673  1331.42
 674  1169.983
 675  1021.897
 676  917.7815
 677  1150.745
 678  1363.869
 679  1537.253
 680  1383.476
 681  1392.412
 682  1409.376
 683  1301.226
 684  1337.929
 685  1441.012
 686  1662.506
 687  1651.839
 688  1540.706
 689  1605.638
 690  1518.262
 691  1318.61
 692  1101.776
 693  942.9019
 694  944.8677
 695  1069.903
 696  1159.503
 697  1364.486
 698  1074.71
 699  1143.66
 700  1047.575
 701  1267.279
 702  1358.531
 703  1526.838
 704  1614.936
 705  1516.384
 706  1279.823
 707  1097.802
 708  983.4419
 709  956.0403
 710  948.8103
 711  1035.793
 712  1290.707
 713  1246.31
 714  1281.042
 715  1234.131
 716  1342.125
 717  1454.435
 718  1576.092
 719  1637.788
 720  1588.571
 721  1505.942
 722  1391.95
 723  1281.274
 724  1089.917
 725  946.2615
 726  842.7596
 727  996.3666
 728  1199.027
 729  1278.087
 730  1271.172
 731  1062.187
 732  1085.508
 733  1001.284
 734  1115.575
 735  1076.349
 736  1161.917
 737  1204.218
 738  1337.784
 739  1188.204
 740  1058.701
 741  822.6965
 742  936.0807
 743  979.2371
 744  1025.615
 745  1139.633
 746  1231.471
 747  1249.26
 748  1170.432
 749  1300.485
 750  1356.386
 751  1456.322
 752  1419.596
 753  1596.546
 754  1622.676
 755  1584.89
 756  1315.447
 757  1056.307
 758  976.0401
 759  885.4126
 760  1054.908
 761  1038.983
 762  1212.996
 763  1127.327
 764  1127.363
 765  1126.823
 766  1190.528
 767  1255.089
 768  1201.591
 769  1360.728
 770  1323.45
 771  1245.511
 772  1024.435
 773  840.2925
 774  591.3416
 775  572.6288
 776  833.8583
 777  1225.114
 778  1293.056
 779  1399.604
 780  1429.238
 781  1414.772
 782  1400.856
 783  1413.883
 784  1658.026
 785  1677.136
 786  1760.081
 787  1666.261
 788  1541.468
 789  1455.645
 790  1248.056
 791  1056.424
 792  989.2987
 793  1002.551
 794  1189.964
 795  1307.472
 796  1310.978
 797  1307.907
 798  1052.186
 799  1083.542
 800  1179.472
 801  1394.809
 802  1365.023
 803  1234.882
 804  1113.572
 805  1012.748
 806  870.5135
 807  816.5895
 808  862.5797
 809  935.8243
 810  1164.526
 811  1450.106
 812  1639.285
 813  1323.472
 814  1322.544
 815  1323.789
 816  1563.713
 817  1637.103
 818  1676.683
 819  1673.825
 820  1541.67
 821  1549.496
 822  1407.618
 823  1212.522
 824  947.5897
 825  1035.891
 826  1113.976
 827  1188.185
 828  1234.159
 829  1343.251
 830  1362.431
 831  1176.975
 832  1263.853
 833  1222.325
 834  1369.086
 835  1424.615
 836  1604.816
 837  1592.438
 838  1271.231
 839  962.4168
 840  794.7625
 841  838.4134
 842  922.0393
 843  1030.349
 844  1155.286
 845  1309.941
 846  1140.35
 847  1198.566
 848  1298.737
 849  1644.438
 850  1808.709
 851  1917.424
 852  1886.598
 853  1713.801
 854  1560.394
 855  1443.073
 856  1293.804
 857  1179.52
 858  1083.746
 859  999.1612
 860  1238.872
 861  1188.967
 862  1405.454
 863  1239.54
 864  1206.818
 865  1205.047
 866  1201.607
 867  1447.616
 868  1370.202
 869  1469.536
 870  1464.208
 871  1352.649
 872  1080.475
 873  999.5163
 874  886.2953
 875  1043.048
 876  1126.085
 877  1433.582
 878  1490.078
 879  1589.22
 880  1455.77
 881  1334.914
 882  1299.954
 883  1403.491
 884  1602.47
 885  1703.653
 886  1624.523
 887  1351.865
 888  1324.39
 889  1147.957
 890  1072.848
 891  986.585
 892  1166.881
 893  1275.563
 894  1271.434
 895  1246.523
 896  1171.242
 897  1256.569
 898  1276.912
 899  1433.272
 900  1401.983
 901  1401.432
 902  1402.445
 903  1383.213
 904  1255.322
 905  1134.78
 906  964.6158
 907  898.7036
 908  1105.188
 909  1192.774
 910  1420.318
 911  1303.392
 912  1375.215
 913  1407.928
 914  1353.776
 915  1439.127
 916  1586.791
 917  1717.285
 918  1802.415
 919  1840.525
 920  1694.471
 921  1411.839
 922  1147.833
 923  1093.218
 924  997.6639
 925  1060.529
 926  1072.019
 927  1180.215
 928  1264.196
 929  1250.773
 930  1174.331
 931  1115.609
 932  1273.558
 933  1498
 934  1649.118
 935  1644.967
 936  1614.908
 937  1407.07
 938  1228.741
 939  973.4661
 940  970.0078
 941  988.5338
 942  1092.106
 943  1268.205
 944  1347.293
 945  1367.857
 946  1146.461
 947  1177.744
 948  1230.403
 949  1500.805
 950  1523.773
 951  1579.559
 952  1499.148
 953  1431.739
 954  1201.525
 955  1080.571
 956  987.9125
 957  1077.813
 958  1052.726
 959  1040.585
 960  1183.463
 961  1204.57
 962  1337.105
 963  1144.845
 964  1213.312
 965  1159.912
 966  1395.575
 967  1641.15
 968  1771.191
 969  1479.33
 970  1201.278
 971  999.2468
 972  1002.432
 973  986.2927
 974  883.6746
 975  1012.764
 976  1106.767
 977  1248.22
 978  1153.964
 979  1265.358
 980  1394.422
 981  1550.595
 982  1683.646
 983  1684.767
 984  1731.759
 985  1621.367
 986  1547.587
 987  1407.578
 988  1285.529
 989  1053.743
 990  999.0636
 991  866.6888
 992  978.749
 993  1182.039
 994  1288.302
 995  1278.698
 996  1131.244
 997  1274.946
 998  1318.915
 999  1497.419
1000  1449.891
1001  1614.207
1002  1441.023
1003  1360.476
1004  1050.196
1005  854.6154
1006  832.4333
1007  970.049
1008  1197.231
1009  1133.243
1010  1252.732
1011  1327.984
1012  1494.577
1013  1436.85
1014  1470.951
1015  1485.536
1016  1561.78
1017  1603.742
1018  1623.072
1019  1454.766
1020  1245.318
1021  1249.57
1022  1152.751
1023  1163.361
