# Input file       =  1200226254.109845_cleaned.dat
# Candidate        =  PSR_0332+5434
# Telescope        =  AR
# Epoch_topo       =  58135.507790623204
# Epoch_bary       =  N/A
# T_sample         =  0.002
# Data Folded      =  7208960
# Data Avg         =  0.114300271722658
# Data StdDev      =  4.36032147614486 
# Profile Bins     =  1024
# Profile Avg      =  804.68007835046  
# Profile StdDev   =  365.851499603765 
# Reduced chi-sqr  =  0.723
# Prob(Noise)      <  1   (~0.0 sigma)
# P_topo (ms)      =  714.568231172983  +/- 7.75e-05
# P'_topo (s/s)    =  -0                +/- 4.16e-11
# P''_topo (s/s^2) =  0                 +/- 1.87e-14
# P_bary (ms)      =  N/A
# P'_bary (s/s)    =  N/A
# P''_bary (s/s^2) =  N/A
# P_orb (s)        =  N/A
# asin(i)/c (s)    =  N/A
# eccentricity     =  N/A
# w (rad)          =  N/A
# T_peri           =  N/A
######################################################
   0  807.438
   1  848.9112
   2  889.1724
   3  699.0975
   4  730.1427
   5  617.4223
   6  562.1298
   7  561.5358
   8  614.5485
   9  780.3422
  10  941.1459
  11  916.7509
  12  943.8729
  13  645.7614
  14  583.304
  15  610.9303
  16  758.5539
  17  866.8953
  18  664.6002
  19  635.1802
  20  720.5792
  21  821.3856
  22  1016.735
  23  919.308
  24  1008.295
  25  980.4332
  26  972.9175
  27  989.389
  28  906.3091
  29  907.2648
  30  1036.773
  31  973.4105
  32  1038.438
  33  863.3416
  34  881.7743
  35  837.9974
  36  761.6182
  37  858.1512
  38  705.0292
  39  706.1609
  40  690.116
  41  885.4615
  42  1015.605
  43  978.9534
  44  867.1797
  45  686.9227
  46  694.2562
  47  714.0117
  48  623.8455
  49  656.5629
  50  729.6616
  51  802.1339
  52  894.5263
  53  926.1369
  54  1004.179
  55  862.1924
  56  830.0181
  57  989.67
  58  1098.033
  59  1097.197
  60  1080.967
  61  937.3647
  62  888.7166
  63  735.3278
  64  769.1509
  65  837.6555
  66  815.9814
  67  873.4464
  68  725.0756
  69  791.0187
  70  662.1074
  71  639.8878
  72  565.1617
  73  575.4335
  74  623.3354
  75  779.7278
  76  749.8617
  77  618.817
  78  460.4967
  79  446.4061
  80  527.6154
  81  602.9553
  82  715.21
  83  642.5593
  84  630.899
  85  643.0905
  86  704.7607
  87  804.171
  88  817.2752
  89  853.603
  90  862.439
  91  931.442
  92  1014.436
  93  865.1045
  94  744.8537
  95  798.3262
  96  820.3444
  97  876.7305
  98  719.5784
  99  868.0244
 100  867.1667
 101  686.5247
 102  703.955
 103  687.5125
 104  711.678
 105  545.6423
 106  558.7339
 107  672.5731
 108  775.353
 109  810.9262
 110  763.5065
 111  535.9211
 112  543.9684
 113  610.1418
 114  795.2341
 115  675.9089
 116  519.3768
 117  539.8339
 118  586.1526
 119  643.5709
 120  624.0228
 121  634.3314
 122  791.6066
 123  877.9392
 124  988.0825
 125  1026.226
 126  855.8057
 127  784.2168
 128  754.8896
 129  851.3119
 130  974.0056
 131  886.8522
 132  875.4565
 133  751.3134
 134  856.8936
 135  871.6148
 136  677.117
 137  619.2519
 138  576.088
 139  686.4971
 140  668.0887
 141  611.5631
 142  757.8177
 143  801.388
 144  723.4446
 145  630.6407
 146  593.1636
 147  732.8342
 148  622.7781
 149  644.0434
 150  689.2388
 151  798.5673
 152  898.428
 153  887.7679
 154  860.0084
 155  713.9775
 156  693.2949
 157  829.5909
 158  890.5032
 159  872.0506
 160  893.7629
 161  863.8414
 162  858.0909
 163  739.4852
 164  648.9499
 165  629.1232
 166  617.2117
 167  714.5717
 168  823.8605
 169  793.5197
 170  694.558
 171  465.5226
 172  475.4427
 173  506.9475
 174  574.6234
 175  662.8177
 176  771.2938
 177  836.2646
 178  850.0767
 179  715.5097
 180  666.8771
 181  671.5872
 182  817.0363
 183  809.8571
 184  694.8251
 185  670.7876
 186  698.1229
 187  842.8251
 188  876.7433
 189  862.7618
 190  809.022
 191  797.5333
 192  902.8219
 193  985.6081
 194  923.724
 195  729.5003
 196  618.6655
 197  813.1863
 198  972.0556
 199  865.0151
 200  687.3165
 201  552.6263
 202  637.4938
 203  603.5283
 204  583.0233
 205  629.1473
 206  601.6112
 207  751.0109
 208  902.0408
 209  934.0925
 210  743.273
 211  515.7439
 212  495.3419
 213  547.3951
 214  654.9718
 215  901.093
 216  951.8331
 217  971.1362
 218  891.0674
 219  978.2109
 220  974.9328
 221  1007.531
 222  1009.264
 223  1168.382
 224  973.6978
 225  936.715
 226  870.6014
 227  999.006
 228  982.7424
 229  847.3098
 230  772.8378
 231  621.4711
 232  715.8535
 233  674.1093
 234  845.6183
 235  850.9315
 236  874.5186
 237  823.913
 238  798.5576
 239  698.5585
 240  650.5428
 241  508.2936
 242  540.6693
 243  490.6266
 244  548.7284
 245  677.9783
 246  777.6514
 247  878.6782
 248  816.0097
 249  766.1327
 250  755.0716
 251  818.5325
 252  750.0648
 253  683.3117
 254  720.6061
 255  868.2394
 256  997.7861
 257  1154.5
 258  1285.109
 259  1156.516
 260  1169.409
 261  1022.634
 262  969.7993
 263  818.0977
 264  819.1972
 265  856.0496
 266  737.0967
 267  776.496
 268  679.0164
 269  557.7414
 270  618.313
 271  756.526
 272  938.9865
 273  1033.146
 274  1018.721
 275  976.2546
 276  791.0132
 277  674.8923
 278  636.3228
 279  650.7592
 280  884.4061
 281  937.039
 282  954.2466
 283  857.7934
 284  765.2385
 285  864.2171
 286  879.631
 287  881.5239
 288  962.4569
 289  999.3847
 290  1086.671
 291  970.9442
 292  1030.199
 293  1013.012
 294  849.9261
 295  813.7455
 296  782.1351
 297  864.225
 298  846.8052
 299  903.5046
 300  852.7023
 301  775.8413
 302  735.7269
 303  743.76
 304  654.2849
 305  727.1917
 306  814.3513
 307  976.7867
 308  836.7567
 309  827.655
 310  761.6028
 311  680.4924
 312  671.0179
 313  703.305
 314  805.2712
 315  797.5527
 316  785.8229
 317  822.9527
 318  879.7917
 319  896.8204
 320  934.7914
 321  938.7809
 322  1051.453
 323  1187.059
 324  1278.731
 325  1332.94
 326  1161.929
 327  1022.826
 328  875.2882
 329  675.9924
 330  659.7227
 331  651.901
 332  804.9625
 333  698.3062
 334  711.7283
 335  703.879
 336  814.3444
 337  818.3123
 338  869.5351
 339  845.082
 340  905.6767
 341  902.2302
 342  783.554
 343  726.6368
 344  710.8992
 345  869.5718
 346  965.953
 347  1001.605
 348  980.9272
 349  871.1069
 350  944.1898
 351  971.331
 352  966.5292
 353  970.701
 354  872.7273
 355  878.3013
 356  871.5569
 357  967.2566
 358  923.3538
 359  754.8845
 360  748.3238
 361  772.1479
 362  795.1682
 363  714.9126
 364  718.8237
 365  899.978
 366  959.1166
 367  1017.341
 368  879.8685
 369  850.1291
 370  780.5728
 371  781.9174
 372  790.8817
 373  759.7641
 374  752.34
 375  761.9876
 376  733.3464
 377  674.1556
 378  508.0113
 379  516.2839
 380  637.7444
 381  675.0775
 382  669.5588
 383  782.3162
 384  912.3014
 385  948.5386
 386  972.5618
 387  1027.533
 388  1059.945
 389  951.6824
 390  1026.934
 391  967.1678
 392  943.8235
 393  918.6667
 394  814.5041
 395  867.251
 396  833.7915
 397  958.0439
 398  891.6645
 399  738.7967
 400  587.7632
 401  517.3683
 402  475.2517
 403  536.1494
 404  653.2607
 405  935.53
 406  947.5153
 407  873.8278
 408  702.5878
 409  645.6325
 410  690.919
 411  770.2737
 412  681.8904
 413  641.1362
 414  699.7082
 415  923.5436
 416  802.9124
 417  799.9025
 418  818.3496
 419  947.6271
 420  947.5856
 421  925.1837
 422  930.514
 423  919.0981
 424  890.9828
 425  963.1629
 426  907.4202
 427  828.9429
 428  758.0802
 429  787.5565
 430  812.2196
 431  756.121
 432  654.7332
 433  801.6876
 434  801.9075
 435  899.59
 436  755.6365
 437  709.6486
 438  695.8619
 439  879.2064
 440  867.8861
 441  789.4705
 442  607.9693
 443  575.1192
 444  510.5888
 445  515.4434
 446  629.8506
 447  760.4124
 448  823.5779
 449  804.9486
 450  802.7588
 451  763.3935
 452  691.5428
 453  827.8178
 454  929.3891
 455  960.1774
 456  806.2029
 457  820.0963
 458  856.2876
 459  808.3528
 460  765.0788
 461  811.085
 462  833.9753
 463  884.7757
 464  866.642
 465  895.6879
 466  837.0767
 467  722.2491
 468  744.7524
 469  737.1473
 470  679.3666
 471  675.0228
 472  627.3985
 473  672.4295
 474  706.4743
 475  727.1348
 476  640.4644
 477  614.8578
 478  618.3134
 479  729.7467
 480  804.1572
 481  899.7556
 482  917.6003
 483  791.9825
 484  788.3527
 485  769.1802
 486  934.0793
 487  894.4481
 488  957.554
 489  861.4789
 490  886.4166
 491  797.4277
 492  891.8224
 493  845.459
 494  885.92
 495  880.9661
 496  884.6455
 497  782.6962
 498  785.1686
 499  820.1108
 500  830.0324
 501  706.2545
 502  698.246
 503  773.9709
 504  827.8582
 505  845.6727
 506  788.3783
 507  724.4797
 508  541.5406
 509  353.7848
 510  288.1782
 511  390.6284
 512  595.5969
 513  713.8548
 514  798.7216
 515  890.7357
 516  951.2513
 517  992.149
 518  963.2324
 519  961.7177
 520  1017.546
 521  1101.859
 522  1108.048
 523  1075.078
 524  983.4261
 525  901.7568
 526  830.1592
 527  771.5763
 528  725.9337
 529  671.8232
 530  770.1548
 531  735.9199
 532  807.0828
 533  817.7963
 534  864.7761
 535  784.2197
 536  816.7122
 537  915.9329
 538  985.1136
 539  863.8336
 540  811.2006
 541  767.1084
 542  808.8289
 543  789.2012
 544  780.0378
 545  765.6367
 546  662.1989
 547  542.7528
 548  529.1843
 549  594.1667
 550  734.1293
 551  878.6328
 552  954.3896
 553  1018.571
 554  908.9108
 555  890.5773
 556  847.5597
 557  813.5712
 558  780.0334
 559  739.3567
 560  846.6271
 561  875.8195
 562  863.6866
 563  896.877
 564  735.142
 565  753.5866
 566  685.4701
 567  635.3196
 568  654.3329
 569  706.5156
 570  922.2122
 571  872.7507
 572  851.8495
 573  712.2456
 574  697.7624
 575  709.7515
 576  649.2524
 577  649.4147
 578  719.4527
 579  829.5059
 580  942.3357
 581  969.0259
 582  1060.885
 583  1018.661
 584  998.5771
 585  911.6832
 586  1009.719
 587  1142.141
 588  1317.29
 589  1238.702
 590  1164.48
 591  992.9164
 592  951.8873
 593  869.3172
 594  698.4818
 595  695.7241
 596  636.1011
 597  571.5648
 598  502.802
 599  649.5693
 600  808.3997
 601  874.914
 602  831.7859
 603  922.6666
 604  994.4586
 605  1018.802
 606  953.4102
 607  1012.195
 608  978.2764
 609  881.0986
 610  790.0069
 611  838.1904
 612  875.6982
 613  992.4958
 614  1046.935
 615  1197.71
 616  1354.63
 617  1626.693
 618  1636.25
 619  1778.095
 620  1651.178
 621  1571.821
 622  1444.282
 623  1387.882
 624  1169.1
 625  875.2902
 626  709.2789
 627  710.8665
 628  710.6698
 629  709.5127
 630  809.0931
 631  839.3139
 632  795.1356
 633  717.7059
 634  784.3539
 635  813.2236
 636  823.02
 637  802.2238
 638  832.8813
 639  793.5931
 640  806.7655
 641  770.4791
 642  744.7333
 643  675.5917
 644  710.0768
 645  917.4767
 646  953.8276
 647  900.4656
 648  900.1995
 649  950.0695
 650  1062.867
 651  958.8426
 652  860.1685
 653  898.3422
 654  1002.357
 655  1127.825
 656  916.613
 657  806.8679
 658  598.1978
 659  654.9954
 660  771.8704
 661  895.6038
 662  830.2996
 663  841.8778
 664  853.6756
 665  883.2307
 666  798.674
 667  892.8159
 668  895.8977
 669  819.1043
 670  804.6348
 671  814.3693
 672  894.7952
 673  815.6049
 674  641.9604
 675  587.5463
 676  511.706
 677  669.433
 678  815.9853
 679  930.3041
 680  816.5046
 681  670.5908
 682  698.2217
 683  708.0267
 684  773.6404
 685  914.9677
 686  1076.857
 687  1135.406
 688  1138.283
 689  1044.122
 690  989.9207
 691  899.0201
 692  874.5374
 693  973.6512
 694  835.9294
 695  804.6877
 696  663.0061
 697  648.7068
 698  732.1868
 699  657.507
 700  634.7717
 701  595.9373
 702  749.6124
 703  772.892
 704  620.2173
 705  727.597
 706  843.5253
 707  922.962
 708  840.691
 709  776.8545
 710  813.4778
 711  786.5124
 712  708.7002
 713  884.722
 714  913.3577
 715  1033.407
 716  994.3718
 717  887.2219
 718  937.0447
 719  916.2078
 720  1005.153
 721  886.2038
 722  826.054
 723  871.8514
 724  721.0179
 725  711.2119
 726  718.8074
 727  725.7837
 728  812.7505
 729  848.0163
 730  956.265
 731  797.5838
 732  723.7346
 733  830.6353
 734  925.4893
 735  825.0437
 736  683.7444
 737  661.9059
 738  819.7458
 739  778.0865
 740  727.1796
 741  677.4469
 742  692.768
 743  791.5256
 744  797.2703
 745  852.6318
 746  807.3835
 747  802.3011
 748  868.7516
 749  885.8586
 750  853.0872
 751  927.4504
 752  958.603
 753  1036.109
 754  1020.11
 755  994.4198
 756  754.7766
 757  522.8353
 758  639.4308
 759  744.0664
 760  807.5241
 761  783.4029
 762  735.5704
 763  739.2562
 764  480.6259
 765  477.7359
 766  500.1283
 767  696.2394
 768  769.3247
 769  847.3998
 770  876.1297
 771  816.9627
 772  762.9255
 773  835.8268
 774  761.8412
 775  753.8834
 776  666.8267
 777  595.4951
 778  707.7559
 779  609.1381
 780  694.8663
 781  612.0739
 782  608.582
 783  764.9781
 784  774.9954
 785  962.3743
 786  1030.613
 787  1217.191
 788  1265.811
 789  1002.727
 790  775.6494
 791  607.6045
 792  629.8292
 793  745.6978
 794  832.1803
 795  888.2207
 796  925.4916
 797  837.4137
 798  888.7104
 799  652.295
 800  693.7408
 801  655.2501
 802  751.2034
 803  788.1724
 804  704.4131
 805  711.7858
 806  620.0477
 807  648.2482
 808  693.5415
 809  639.5871
 810  774.748
 811  792.4941
 812  882.6842
 813  1046.532
 814  1011.859
 815  980.9077
 816  873.9062
 817  966.7942
 818  1153.564
 819  1129.798
 820  1238.462
 821  1134.765
 822  1009.09
 823  913.1051
 824  704.0405
 825  764.8912
 826  634.3955
 827  516.6762
 828  469.8869
 829  406.8976
 830  506.4098
 831  573.2806
 832  584.5354
 833  636.8614
 834  629.686
 835  856.6616
 836  836.5209
 837  646.8149
 838  543.0361
 839  507.3148
 840  602.173
 841  655.4652
 842  523.31
 843  435.2098
 844  330.7068
 845  544.8679
 846  722.6554
 847  578.7745
 848  589.5215
 849  615.4753
 850  892.0958
 851  839.6898
 852  750.5165
 853  743.7961
 854  552.8853
 855  418.6154
 856  524.4012
 857  599.5215
 858  781.6253
 859  620.2617
 860  710.9935
 861  710.8821
 862  544.1025
 863  489.3251
 864  483.9761
 865  549.3632
 866  561.1179
 867  560.4672
 868  650.2203
 869  531.0521
 870  374.1518
 871  476.7913
 872  570.9161
 873  659.0319
 874  480.1377
 875  521.0185
 876  712.6624
 877  858.856
 878  998.2946
 879  848.3165
 880  886.833
 881  813.5117
 882  798.5449
 883  760.5771
 884  864.8319
 885  1044.529
 886  1106.166
 887  865.7821
 888  841.9911
 889  729.6504
 890  697.4495
 891  774.172
 892  714.0182
 893  838.2644
 894  697.8491
 895  770.7449
 896  812.4738
 897  748.6873
 898  859.8455
 899  786.5506
 900  826.4931
 901  730.795
 902  687.164
 903  757.5314
 904  694.4975
 905  562.7274
 906  591.7556
 907  604.4009
 908  714.847
 909  586.3261
 910  698.2837
 911  884.7231
 912  867.2534
 913  981.1209
 914  983.5332
 915  1082.046
 916  1175.989
 917  1222.326
 918  1343.907
 919  1249.248
 920  1195.744
 921  1229.51
 922  1092.063
 923  976.1586
 924  687.9824
 925  670.4583
 926  742.6817
 927  731.0933
 928  739.1423
 929  610.4408
 930  545.7778
 931  674.6974
 932  778.4564
 933  881.164
 934  789.2972
 935  797.6115
 936  877.5596
 937  715.8585
 938  665.4818
 939  509.1082
 940  704.1141
 941  782.1708
 942  823.652
 943  883.9459
 944  921.3423
 945  898.9578
 946  832.983
 947  715.8557
 948  812.8512
 949  876.6787
 950  950.6653
 951  884.9477
 952  803.9395
 953  890.7163
 954  1008.423
 955  1019.85
 956  985.1127
 957  774.3026
 958  851.8484
 959  752.0615
 960  811.7899
 961  763.2764
 962  587.3138
 963  704.3152
 964  767.9388
 965  857.6096
 966  785.8375
 967  766.5034
 968  928.3679
 969  909.9016
 970  797.056
 971  774.9944
 972  508.2966
 973  551.2283
 974  446.3582
 975  549.4444
 976  672.5374
 977  674.8639
 978  897.7062
 979  951.5882
 980  1042.811
 981  1160.049
 982  1016.444
 983  1085.209
 984  1067.696
 985  1085.329
 986  1128.571
 987  1057.45
 988  1182.805
 989  1158.247
 990  1073.136
 991  973.7534
 992  749.0573
 993  824.4343
 994  779.1919
 995  646.5304
 996  626.5025
 997  469.034
 998  514.0496
 999  479.1028
1000  659.0165
1001  780.6129
1002  648.9618
1003  575.2591
1004  564.0167
1005  712.7717
1006  757.4097
1007  614.783
1008  751.2161
1009  772.6027
1010  771.3541
1011  701.6548
1012  717.0667
1013  845.5645
1014  898.1494
1015  846.6274
1016  867.6432
1017  758.3887
1018  855.6453
1019  918.6697
1020  787.6192
1021  805.2111
1022  642.3391
1023  789.1176
