# Input file       =  1200585540.105412_cleaned.dat
# Candidate        =  PSR_0332+5434
# Telescope        =  AR
# Epoch_topo       =  58139.666193349673
# Epoch_bary       =  N/A
# T_sample         =  0.002
# Data Folded      =  7340032
# Data Avg         =  0.305720335412063
# Data StdDev      =  4.47354245054405 
# Profile Bins     =  512
# Profile Avg      =  4382.40356073703 
# Profile StdDev   =  535.630820963999 
# Reduced chi-sqr  =  0.844
# Prob(Noise)      <  0.996   (~0.0 sigma)
# P_topo (ms)      =  714.570797158616  +/- 0.000252
# P'_topo (s/s)    =  -0                +/- 1.33e-10
# P''_topo (s/s^2) =  0                 +/- 5.87e-14
# P_bary (ms)      =  N/A
# P'_bary (s/s)    =  N/A
# P''_bary (s/s^2) =  N/A
# P_orb (s)        =  N/A
# asin(i)/c (s)    =  N/A
# eccentricity     =  N/A
# w (rad)          =  N/A
# T_peri           =  N/A
######################################################
   0  4293.079
   1  4543.987
   2  4370.539
   3  4128.509
   4  4005.491
   5  3622.779
   6  3510.291
   7  3528.969
   8  3752.008
   9  3987.136
  10  3921.942
  11  4049.843
  12  3838.547
  13  3575.927
  14  3669.496
  15  3447.202
  16  3673.485
  17  3769.138
  18  4328.292
  19  4438.178
  20  4440.167
  21  4457.815
  22  3840.735
  23  3738.484
  24  3844.478
  25  3959.37
  26  3783.76
  27  4283.56
  28  4050.102
  29  4038.943
  30  4203.71
  31  4387.988
  32  4732.226
  33  4430.95
  34  4181.693
  35  4117.349
  36  4387.233
  37  3963.898
  38  4175.76
  39  4570.748
  40  4539.587
  41  4166.291
  42  4251.15
  43  4270.992
  44  3974.672
  45  4370.066
  46  4661.108
  47  4746.018
  48  4876.36
  49  4432.103
  50  4462.132
  51  4639.159
  52  4654.013
  53  4768.154
  54  4722.54
  55  4546.633
  56  4642.166
  57  4753.038
  58  4584.557
  59  4635.095
  60  4376.354
  61  4317.203
  62  4359.995
  63  4595.8
  64  4552.75
  65  4101.177
  66  4400.563
  67  4248.024
  68  4485.427
  69  4252.525
  70  4287.503
  71  4246.05
  72  4613.954
  73  4539.619
  74  4243.628
  75  4216.788
  76  3882.58
  77  4039.79
  78  4138.246
  79  4501.823
  80  4523.458
  81  4911.183
  82  4863.953
  83  4403.977
  84  4402.166
  85  4821.705
  86  4415.513
  87  4349.577
  88  4838.94
  89  4587.539
  90  4232.944
  91  3988.385
  92  4577.052
  93  4779.17
  94  4637.946
  95  4272.326
  96  3931.477
  97  4087.466
  98  4227.396
  99  4033.557
 100  4180.56
 101  4158.144
 102  4273.842
 103  4205.57
 104  4302.207
 105  4185.542
 106  4353.258
 107  4572.241
 108  4406.182
 109  4282.268
 110  3974.901
 111  4266.467
 112  4275.688
 113  4505.252
 114  4439.397
 115  4392.043
 116  4166.832
 117  3787.582
 118  4260.616
 119  4302.866
 120  4426.982
 121  4349.694
 122  3865.195
 123  3538.055
 124  3690.4
 125  4239.864
 126  4189.148
 127  4167.035
 128  4208.566
 129  3978.986
 130  3804.611
 131  3992.648
 132  3835.711
 133  3702.642
 134  3529.003
 135  3288.605
 136  3349.684
 137  3526.66
 138  3644.688
 139  3659.236
 140  3863.046
 141  3698.64
 142  4037.442
 143  4449.517
 144  4221.521
 145  4052.385
 146  3806.065
 147  4291.614
 148  4382.382
 149  4154.325
 150  4691.239
 151  4436.707
 152  4482.477
 153  4152.806
 154  4195.117
 155  3917.392
 156  4179.067
 157  4432.489
 158  4066.576
 159  4063.747
 160  4039.943
 161  4234.165
 162  3851.302
 163  3716.358
 164  3929.304
 165  4085.742
 166  4058.487
 167  4329.392
 168  4316.409
 169  4534.277
 170  4493.262
 171  4116.464
 172  4154.867
 173  4377.355
 174  4481.007
 175  4355.453
 176  4377.025
 177  4583.011
 178  4153.601
 179  4440.495
 180  4435.466
 181  4612.904
 182  4208.804
 183  4380.224
 184  4486.964
 185  4384.307
 186  4696.538
 187  4721.759
 188  4563.226
 189  4401.947
 190  4438.02
 191  4764.083
 192  4933.81
 193  4810.291
 194  4546.458
 195  4321.969
 196  4275.51
 197  4369.646
 198  4177.694
 199  4272.56
 200  4173.454
 201  4334.111
 202  4010.413
 203  3868.95
 204  4134
 205  4510.083
 206  4498.857
 207  4105.784
 208  4522.602
 209  4274.906
 210  4337.268
 211  4666.174
 212  4267.599
 213  4474.579
 214  4366.184
 215  4592.999
 216  4664.157
 217  4825.569
 218  4714.057
 219  4474.691
 220  4521.291
 221  4350.958
 222  4293.69
 223  3920.228
 224  4158.364
 225  4249.384
 226  4406.419
 227  4234.152
 228  4160.931
 229  4671.517
 230  4291.975
 231  3983.336
 232  4061.289
 233  4080.98
 234  4198.619
 235  4517.105
 236  4829.564
 237  4659.2
 238  4408.071
 239  4136.937
 240  4233.09
 241  3922.703
 242  4254.736
 243  4545.251
 244  4514.595
 245  4502.398
 246  4522.006
 247  5124.001
 248  4959.115
 249  5227.314
 250  4919.919
 251  4673.764
 252  4555.961
 253  4248.384
 254  4249.672
 255  4531.348
 256  4665.498
 257  4598.513
 258  4837.339
 259  4749.826
 260  4627.941
 261  4211.9
 262  4348.233
 263  4621.628
 264  4699.185
 265  4732.897
 266  4519.693
 267  4840.029
 268  4767.53
 269  4398.509
 270  4400.188
 271  4205.104
 272  4618.233
 273  4814.898
 274  4861.861
 275  4550.091
 276  4165.387
 277  4202.108
 278  4498.522
 279  4494.394
 280  4094.412
 281  4028.503
 282  4161.875
 283  4376.202
 284  4638.919
 285  4623.766
 286  4419.444
 287  4449.181
 288  4806.25
 289  3944.161
 290  3983.823
 291  3979.07
 292  4242.687
 293  4489.676
 294  4628.353
 295  4228.916
 296  4049.883
 297  4634.063
 298  4708
 299  4473.894
 300  3933.382
 301  4206.387
 302  4612.941
 303  4841.921
 304  5604.841
 305  6085.599
 306  6123.732
 307  5748.655
 308  5304.083
 309  4566.089
 310  4255.558
 311  4077.183
 312  3936.804
 313  3968.898
 314  3813.729
 315  4255.302
 316  4294.294
 317  4408.367
 318  4030.694
 319  3876.811
 320  4439.992
 321  4307.964
 322  4777.01
 323  4338.348
 324  4295.447
 325  4389.115
 326  4379.741
 327  4385.363
 328  4432.677
 329  4354.654
 330  3972.31
 331  4193.157
 332  4360.519
 333  4287.541
 334  4414.439
 335  4307.995
 336  4695.25
 337  4778.485
 338  4612.228
 339  4279.464
 340  4371.566
 341  4262.214
 342  3991.67
 343  4062.381
 344  4215.847
 345  4110.285
 346  4568.015
 347  4676.63
 348  4541.562
 349  4280.375
 350  4390.983
 351  4622.762
 352  4609.528
 353  4787.536
 354  4775.2
 355  4741.957
 356  4531.693
 357  4165.855
 358  4421.969
 359  4483.725
 360  4682.568
 361  4588.328
 362  4422.726
 363  4522.872
 364  4413.749
 365  4419.313
 366  4299.922
 367  4640.022
 368  4840.136
 369  4857.053
 370  4355.92
 371  4332.637
 372  4604.049
 373  4631.636
 374  4725.522
 375  4141.095
 376  4206.124
 377  4153.349
 378  3980.953
 379  3765.532
 380  4204.886
 381  4637.558
 382  4575.707
 383  4822.8
 384  4386.603
 385  4538.327
 386  4577.137
 387  4753.486
 388  4539.592
 389  4855.944
 390  5091.93
 391  4980.027
 392  5262.724
 393  5185.807
 394  5108.943
 395  5028.045
 396  5139.195
 397  5273.188
 398  4787.071
 399  4711.899
 400  4550.921
 401  4948.386
 402  4771.151
 403  4583.715
 404  4563.702
 405  4572.262
 406  4341.952
 407  4455.934
 408  4430.768
 409  4426.649
 410  4685.617
 411  4740.348
 412  4830.943
 413  5001.932
 414  4789.008
 415  4723.643
 416  4807.302
 417  4768.885
 418  4805.637
 419  5032.802
 420  4881.169
 421  4923.53
 422  4797.095
 423  4616.101
 424  4324.634
 425  4361.168
 426  4528.787
 427  4752.619
 428  4539.742
 429  3885.752
 430  4252.96
 431  4506.06
 432  4862.193
 433  4748.497
 434  4843.091
 435  4727.484
 436  4437.947
 437  4582.541
 438  4535.455
 439  4565.404
 440  4724.665
 441  4931.16
 442  4779.174
 443  4397.501
 444  4824.637
 445  4892.259
 446  4593.32
 447  4194.78
 448  4389.066
 449  4551.151
 450  4111.828
 451  4415.227
 452  4341.002
 453  4768.963
 454  4705.598
 455  4805.846
 456  4416.751
 457  4215.765
 458  4264.422
 459  4411.142
 460  4435.553
 461  4265.367
 462  4668.811
 463  4482.133
 464  4700.034
 465  4885.925
 466  4566.534
 467  3953.806
 468  4197.571
 469  4593.538
 470  4391.043
 471  4316.933
 472  4548.854
 473  4467.119
 474  4149.06
 475  4069.008
 476  4051.201
 477  4198.563
 478  4557.507
 479  4040.991
 480  4148.295
 481  4258.392
 482  4111.965
 483  3902.042
 484  3815.2
 485  4047.206
 486  4155.754
 487  4629.954
 488  4447.083
 489  4405.288
 490  3928.186
 491  3843.143
 492  4185.094
 493  4287.872
 494  4438.564
 495  4156.495
 496  4100.37
 497  4103.322
 498  4356.448
 499  4092.506
 500  4250.681
 501  4237.522
 502  4172.269
 503  4351.761
 504  4324.604
 505  4676.48
 506  4428.476
 507  4638.502
 508  4535.863
 509  4119.02
 510  3640.707
 511  3986.897
