# Input file       =  1200757855.109703_cleaned.dat
# Candidate        =  PSR_0332+5434
# Telescope        =  AR
# Epoch_topo       =  58141.660579973417
# Epoch_bary       =  N/A
# T_sample         =  0.002
# Data Folded      =  7340032
# Data Avg         =  0.0661709039604557
# Data StdDev      =  1.0002259141203  
# Profile Bins     =  512
# Profile Avg      =  948.631022584143 
# Profile StdDev   =  119.760085760351 
# Reduced chi-sqr  =  0.886
# Prob(Noise)      <  0.97   (~0.0 sigma)
# P_topo (ms)      =  714.571919966461  +/- 0.000235
# P'_topo (s/s)    =  -0                +/- 1.24e-10
# P''_topo (s/s^2) =  0                 +/- 5.46e-14
# P_bary (ms)      =  N/A
# P'_bary (s/s)    =  N/A
# P''_bary (s/s^2) =  N/A
# P_orb (s)        =  N/A
# asin(i)/c (s)    =  N/A
# eccentricity     =  N/A
# w (rad)          =  N/A
# T_peri           =  N/A
######################################################
   0  818.058
   1  855.9189
   2  913.5165
   3  901.8105
   4  817.827
   5  856.7463
   6  928.8219
   7  990.2468
   8  992.108
   9  865.6696
  10  1005.864
  11  1017.915
  12  922.4453
  13  833.6976
  14  915.2037
  15  841.3082
  16  1018.697
  17  965.0684
  18  898.5359
  19  911.1718
  20  973.2224
  21  936.992
  22  900.6828
  23  927.2693
  24  924.7733
  25  944.6946
  26  883.2462
  27  856.3356
  28  898.5632
  29  841.3511
  30  871.349
  31  918.1491
  32  921.4203
  33  968.2101
  34  972.1279
  35  952.9541
  36  741.7926
  37  818.8691
  38  930.7381
  39  1040.399
  40  881.2073
  41  858.3208
  42  892.4797
  43  784.2618
  44  885.8138
  45  816.9438
  46  892.1766
  47  888.9949
  48  880.0861
  49  862.2111
  50  820.5145
  51  822.2932
  52  826.3723
  53  846.3667
  54  856.9899
  55  859.1287
  56  872.6407
  57  906.7466
  58  961.8188
  59  1067.502
  60  992.0334
  61  1006.537
  62  1085.319
  63  1219.194
  64  1323.321
  65  1361.516
  66  1392.776
  67  1366.367
  68  1112.578
  69  978.9629
  70  1016.58
  71  937.082
  72  941.645
  73  945.0906
  74  937.8231
  75  1012.883
  76  1052.852
  77  1018.925
  78  986.6501
  79  1047.707
  80  959.5356
  81  868.3374
  82  949.2293
  83  944.9244
  84  885.134
  85  832.7213
  86  866.0133
  87  877.4787
  88  841.0307
  89  861.6032
  90  982.2287
  91  967.5629
  92  980.0524
  93  922.7153
  94  982.4153
  95  996.4814
  96  996.2473
  97  933.6792
  98  976.0071
  99  940.0565
 100  866.2818
 101  773.2015
 102  851.3533
 103  894.2589
 104  846.7651
 105  838.7573
 106  903.3823
 107  922.9431
 108  918.4805
 109  942.8716
 110  835.4195
 111  886.4741
 112  971.6899
 113  939.1395
 114  1005.169
 115  1020.346
 116  1068.092
 117  1035.927
 118  1020.735
 119  957.2493
 120  824.8879
 121  947.6708
 122  1062.178
 123  1071.371
 124  1037.139
 125  1057.714
 126  921.0096
 127  852.1008
 128  887.2832
 129  809.9154
 130  791.1705
 131  861.3862
 132  897.8565
 133  939.4791
 134  979.7448
 135  944.575
 136  966.5775
 137  1055.128
 138  991.6083
 139  922.6469
 140  1056.177
 141  1078.201
 142  987.579
 143  1068.918
 144  904.8652
 145  887.9068
 146  925.655
 147  974.611
 148  913.3967
 149  909.459
 150  944.5771
 151  950.2775
 152  937.4088
 153  933.8141
 154  909.3364
 155  898.4667
 156  902.1084
 157  909.4066
 158  977.1138
 159  1034.124
 160  977.5547
 161  911.423
 162  968.1603
 163  977.0037
 164  956.7128
 165  973.7222
 166  1000.649
 167  935.7571
 168  884.3065
 169  796.4533
 170  934.2806
 171  880.6946
 172  959.9659
 173  868.4977
 174  939.9154
 175  1031.246
 176  1012.229
 177  939.0647
 178  999.9228
 179  1011.111
 180  958.8539
 181  978.8436
 182  910.7991
 183  909.1219
 184  947.7429
 185  1016.945
 186  941.7596
 187  926.7631
 188  1064.29
 189  1081.301
 190  1048.207
 191  988.3993
 192  1020.062
 193  972.7006
 194  946.6462
 195  1035.629
 196  933.4102
 197  914.2867
 198  929.1707
 199  958.4851
 200  1006.419
 201  944.2595
 202  882.3994
 203  894.3772
 204  947.4235
 205  929.3962
 206  947.782
 207  971.0806
 208  924.1197
 209  985.8668
 210  991.3319
 211  899.0823
 212  804.4945
 213  922.5828
 214  1002.365
 215  989.2602
 216  927.1373
 217  1016.827
 218  1008.544
 219  1032.816
 220  905.3843
 221  939.8375
 222  928.7956
 223  982.0516
 224  896.1436
 225  874.5037
 226  896.7606
 227  959.5937
 228  963.8482
 229  889.4803
 230  871.16
 231  974.1718
 232  962.0848
 233  985.5724
 234  983.7789
 235  977.5776
 236  1004.069
 237  999.9996
 238  994.839
 239  991.3267
 240  1013.619
 241  945.6919
 242  860.0466
 243  855.324
 244  901.6093
 245  977.4268
 246  981.9277
 247  1166.746
 248  1138.429
 249  1158.371
 250  1079.038
 251  1010.773
 252  987.4725
 253  961.04
 254  924.6652
 255  950.5229
 256  1014.598
 257  1024.242
 258  991.887
 259  1013.985
 260  995.9245
 261  949.4849
 262  978.4454
 263  1001.714
 264  1094.223
 265  1027.629
 266  985.0078
 267  1037.075
 268  1007.986
 269  1025.062
 270  1045.565
 271  1024.007
 272  946.4665
 273  923.6624
 274  979.515
 275  881.046
 276  824.0718
 277  951.8386
 278  1014.573
 279  1035.114
 280  1026.5
 281  979.2971
 282  1070.998
 283  1069.064
 284  917.3972
 285  872.9413
 286  839.256
 287  795.8677
 288  788.2773
 289  833.2222
 290  807.9322
 291  828.7363
 292  974.5627
 293  937.7751
 294  870.4603
 295  864.6602
 296  930.7141
 297  922.7128
 298  952.798
 299  989.8051
 300  952.6958
 301  886.1242
 302  974.7748
 303  950.3985
 304  947.5151
 305  966.0446
 306  917.771
 307  895.9669
 308  932.23
 309  984.2991
 310  928.4077
 311  941.6998
 312  1009.118
 313  930.5989
 314  894.8826
 315  951.4368
 316  1066.804
 317  1024.965
 318  1034.426
 319  998.6412
 320  1074.012
 321  1030.545
 322  1063.455
 323  1050.571
 324  1049.547
 325  1067.273
 326  1007.69
 327  919.9005
 328  1017.039
 329  1014.265
 330  923.2706
 331  920.354
 332  954.6142
 333  873.8884
 334  958.5957
 335  1073.993
 336  988.8085
 337  866.0179
 338  958.671
 339  1007.191
 340  987.6763
 341  1064.306
 342  1077.47
 343  1014.507
 344  1005.904
 345  985.2499
 346  1002.859
 347  1004.63
 348  1054.511
 349  1104.835
 350  991.2328
 351  882.7753
 352  883.243
 353  1018.178
 354  1141.328
 355  987.1246
 356  966.1006
 357  986.7122
 358  896.439
 359  977.7576
 360  1027.225
 361  1005.578
 362  1056.461
 363  1018.921
 364  942.3687
 365  854.3607
 366  930.339
 367  938.3401
 368  1047.892
 369  1022.919
 370  968.2861
 371  1044.875
 372  979.7304
 373  1043.384
 374  1088.465
 375  1000.916
 376  974.1496
 377  1021.635
 378  1073.435
 379  1037.13
 380  1002.506
 381  1010.505
 382  1055.792
 383  976.501
 384  975.5533
 385  934.7267
 386  882.0211
 387  859.3416
 388  960.722
 389  1013.833
 390  1009.813
 391  1003.037
 392  1030.548
 393  1036.555
 394  988.8871
 395  938.4614
 396  935.3198
 397  886.1135
 398  915.5526
 399  963.1998
 400  834.6827
 401  866.6167
 402  913.4341
 403  1006.423
 404  922.8379
 405  946.1883
 406  998.2184
 407  978.0615
 408  908.6367
 409  885.6395
 410  857.5945
 411  958.0961
 412  1010.949
 413  1023.881
 414  915.2407
 415  827.1708
 416  948.9555
 417  944.3619
 418  935.7432
 419  902.7507
 420  1043.392
 421  1062.79
 422  1012.009
 423  1012.958
 424  974.8024
 425  940.5162
 426  878.2385
 427  996.8308
 428  970.1422
 429  922.8124
 430  896.919
 431  897.1979
 432  963.425
 433  906.2438
 434  850.2789
 435  849.8889
 436  856.6381
 437  908.9443
 438  946.848
 439  899.8787
 440  836.0986
 441  876.3537
 442  935.1664
 443  919.6678
 444  921.8516
 445  930.3513
 446  926.9008
 447  884.4247
 448  979.905
 449  1010.941
 450  1071.87
 451  943.2144
 452  929.5296
 453  955.2852
 454  979.8239
 455  963.8347
 456  1015.802
 457  972.8752
 458  896.973
 459  899.7439
 460  814.9321
 461  774.1241
 462  853.423
 463  927.201
 464  882.0124
 465  900.067
 466  912.0015
 467  965.0913
 468  918.2103
 469  997.6042
 470  907.9586
 471  890.2091
 472  891.1777
 473  815.9661
 474  752.7601
 475  819.1269
 476  912.7612
 477  977.5543
 478  930.7007
 479  923.939
 480  944.4438
 481  957.8038
 482  846.6522
 483  950.7139
 484  941.9142
 485  942.6609
 486  872.1973
 487  844.3915
 488  817.2562
 489  869.9949
 490  834.9135
 491  780.185
 492  902.8194
 493  941.3938
 494  832.3544
 495  918.5695
 496  910.9166
 497  883.9661
 498  847.4171
 499  806.946
 500  835.8113
 501  918.2781
 502  875.8281
 503  814.5894
 504  815.8162
 505  875.2881
 506  854.595
 507  932.1555
 508  792.0393
 509  836.6788
 510  999.1234
 511  902.202
