# Input file       =  1200154712.110376_cleaned.dat
# Candidate        =  PSR_0332+5434
# Telescope        =  AR
# Epoch_topo       =  58134.679758221944
# Epoch_bary       =  N/A
# T_sample         =  0.002
# Data Folded      =  7340032
# Data Avg         =  0.0916096594550515
# Data StdDev      =  3.19775444496352 
# Profile Bins     =  1024
# Profile Avg      =  656.907841413723 
# Profile StdDev   =  270.734816487196 
# Reduced chi-sqr  =  1.005
# Prob(Noise)      <  0.45   (~0.1 sigma)
# P_topo (ms)      =  714.56770546189   +/- 0.000444
# P'_topo (s/s)    =  -0                +/- 2.34e-10
# P''_topo (s/s^2) =  0                 +/- 1.03e-13
# P_bary (ms)      =  N/A
# P'_bary (s/s)    =  N/A
# P''_bary (s/s^2) =  N/A
# P_orb (s)        =  N/A
# asin(i)/c (s)    =  N/A
# eccentricity     =  N/A
# w (rad)          =  N/A
# T_peri           =  N/A
######################################################
   0  717.907
   1  685.3553
   2  735.1724
   3  667.5327
   4  694.3839
   5  719.1702
   6  798.5231
   7  765.8303
   8  778.6356
   9  729.3473
  10  753.8469
  11  675.1837
  12  643.1787
  13  588.8154
  14  618.451
  15  526.735
  16  488.7076
  17  527.939
  18  613.9067
  19  588.9798
  20  609.0813
  21  591.9128
  22  689.0896
  23  596.6451
  24  625.376
  25  610.7698
  26  612.8828
  27  585.4521
  28  522.5497
  29  544.2761
  30  502.0266
  31  490.2361
  32  491.5742
  33  574.0502
  34  586.7502
  35  617.6711
  36  679.866
  37  760.718
  38  777.4431
  39  743.6794
  40  722.0917
  41  763.0268
  42  695.3525
  43  746.4109
  44  757.4256
  45  811.332
  46  798.7416
  47  719.621
  48  738.3451
  49  694.6429
  50  627.5192
  51  605.9888
  52  544.9904
  53  538.6248
  54  478.1302
  55  540.023
  56  606.8301
  57  692.5086
  58  690.355
  59  699.442
  60  686.2231
  61  676.3514
  62  698.1038
  63  779.8391
  64  687.2523
  65  558.0379
  66  446.186
  67  556.2115
  68  573.8615
  69  531.0624
  70  482.9836
  71  495.1266
  72  487.9196
  73  395.7831
  74  326.573
  75  409.1406
  76  532.1176
  77  587.4473
  78  611.9769
  79  602.9587
  80  589.3183
  81  578.6893
  82  607.1626
  83  667.9176
  84  643.0958
  85  564.0065
  86  603.9714
  87  613.1148
  88  600.7875
  89  626.9343
  90  569.5132
  91  560.7604
  92  569.3703
  93  699.3654
  94  716.5179
  95  643.7462
  96  582.8925
  97  650.0601
  98  676.4413
  99  666.1229
 100  621.5388
 101  581.913
 102  646.6815
 103  735.4649
 104  897.1156
 105  867.7016
 106  782.7551
 107  752.5978
 108  641.2253
 109  471.6506
 110  443.4961
 111  594.0119
 112  800.5594
 113  832.2526
 114  844.1511
 115  746.7645
 116  680.4902
 117  593.5564
 118  578.5955
 119  618.7126
 120  642.5533
 121  690.2941
 122  645.0922
 123  652.2883
 124  620.453
 125  584.3556
 126  541.3026
 127  462.7506
 128  429.4025
 129  465.3289
 130  546.8317
 131  615.2996
 132  622.4484
 133  590.2859
 134  572.0333
 135  501.5633
 136  421.4114
 137  434.7734
 138  462.1794
 139  595.4289
 140  666.2535
 141  638.0802
 142  496.4363
 143  424.5945
 144  410.591
 145  508.7848
 146  548.6428
 147  634.8293
 148  665.9802
 149  662.1121
 150  617.3414
 151  600.8733
 152  484.0128
 153  519.5327
 154  461.2586
 155  546.4204
 156  608.0474
 157  740.9291
 158  770.5855
 159  699.0737
 160  519.4065
 161  531.4328
 162  581.1217
 163  706.7803
 164  728.3072
 165  679.5478
 166  590.3813
 167  400.2451
 168  384.5957
 169  337.2404
 170  376.101
 171  444.3131
 172  616.3193
 173  681.6307
 174  554.3592
 175  565.5644
 176  519.459
 177  582.4292
 178  584.3931
 179  590.6125
 180  549.8364
 181  554.3807
 182  562.7485
 183  606.3364
 184  555.5884
 185  510.5761
 186  508.0301
 187  546.7412
 188  625.6066
 189  640.7346
 190  695.9738
 191  696.4651
 192  747.7947
 193  749.2307
 194  708.3873
 195  623.9319
 196  683.3964
 197  673.1447
 198  650.4173
 199  624.0105
 200  683.7224
 201  718.7207
 202  655.588
 203  662.3063
 204  716.5723
 205  761.0363
 206  873.9366
 207  986.8587
 208  867.9675
 209  657.6252
 210  585.2715
 211  629.4403
 212  623.6926
 213  554.3745
 214  601.6669
 215  677.1133
 216  672.1252
 217  601.8387
 218  637.6534
 219  708.3323
 220  689.8876
 221  586.6302
 222  571.0153
 223  600.1909
 224  623.8438
 225  634.1632
 226  672.1399
 227  617.5662
 228  534.8282
 229  461.4111
 230  471.2437
 231  498.2705
 232  494.7942
 233  513.8295
 234  594.2396
 235  591.1921
 236  604.5637
 237  552.8733
 238  520.3448
 239  474.9698
 240  512.0754
 241  534.6155
 242  565.3572
 243  524.087
 244  606.9375
 245  612.5173
 246  727.3309
 247  819.0652
 248  867.8752
 249  793.0455
 250  789.3913
 251  732.6025
 252  671.121
 253  552.6976
 254  526.409
 255  609.8281
 256  678.5656
 257  741.3439
 258  643.9623
 259  569.4922
 260  560.8886
 261  670.0912
 262  701.4507
 263  697.0985
 264  660.8578
 265  723.6271
 266  756.5018
 267  724.4329
 268  693.3871
 269  829.5473
 270  926.6592
 271  881.4519
 272  823.4808
 273  637.4058
 274  640.5433
 275  652.155
 276  718.8387
 277  661.9991
 278  542.2303
 279  546.4764
 280  572.6129
 281  623.4913
 282  695.415
 283  721.0233
 284  757.2339
 285  678.7576
 286  626.5457
 287  582.5783
 288  627.9835
 289  643.1797
 290  635.9915
 291  677.5989
 292  641.5356
 293  589.3594
 294  607.2404
 295  656.3865
 296  739.6761
 297  713.1379
 298  752.3775
 299  755.4163
 300  898.2756
 301  996.7806
 302  983.6404
 303  837.8464
 304  856.5865
 305  907.856
 306  925.5854
 307  939.7141
 308  938.2019
 309  957.2925
 310  1033.2
 311  1047.604
 312  980.5068
 313  939.0856
 314  953.4996
 315  1029.058
 316  955.2058
 317  1008.942
 318  924.8533
 319  846.5486
 320  818.9658
 321  800.3966
 322  796.118
 323  691.1586
 324  697.4696
 325  832.6301
 326  940.1793
 327  939.4148
 328  933.0494
 329  972.3876
 330  938.4573
 331  981.5535
 332  882.9318
 333  931.1542
 334  890.735
 335  972.5797
 336  1001.714
 337  970.2507
 338  1033.495
 339  1070.676
 340  1006.423
 341  907.8276
 342  879.3986
 343  949.4591
 344  916.395
 345  867.4287
 346  712.9094
 347  737.7944
 348  764.9475
 349  857.3112
 350  803.5791
 351  845.6898
 352  865.5981
 353  855.9841
 354  799.5869
 355  847.2258
 356  824.9393
 357  767.7614
 358  803.5814
 359  834.1068
 360  854.2981
 361  715.5322
 362  683.402
 363  697.1652
 364  714.163
 365  722.0343
 366  749.9163
 367  864.393
 368  905.3973
 369  881.5672
 370  757.7762
 371  714.9031
 372  667.2834
 373  733.4943
 374  834.5126
 375  869.9359
 376  906.2072
 377  839.5546
 378  804.3067
 379  760.8946
 380  732.7467
 381  665.6897
 382  690.6205
 383  740.6096
 384  802.945
 385  757.6453
 386  631.489
 387  641.4909
 388  651.6655
 389  641.0938
 390  583.3182
 391  574.8539
 392  605.769
 393  609.8698
 394  586.3614
 395  688.3285
 396  808.6064
 397  958.032
 398  887.9952
 399  819.351
 400  735.1038
 401  731.0362
 402  682.697
 403  726.5381
 404  667.0554
 405  728.5316
 406  614.978
 407  637.829
 408  608.9587
 409  674.355
 410  708.0858
 411  687.8041
 412  735.6037
 413  726.4383
 414  752.9994
 415  675.793
 416  618.4429
 417  702.1827
 418  687.8671
 419  688.7731
 420  595.9111
 421  576.7083
 422  563.7135
 423  557.8291
 424  547.8585
 425  540.642
 426  577.137
 427  626.2996
 428  661.1343
 429  539.73
 430  579.8331
 431  560.3465
 432  608.7755
 433  638.8382
 434  645.7766
 435  714.6941
 436  765.673
 437  871.2531
 438  946.4498
 439  840.9301
 440  852.0747
 441  825.374
 442  754.058
 443  626.215
 444  615.899
 445  601.7401
 446  604.0555
 447  542.8953
 448  601.8773
 449  569.1759
 450  650.0256
 451  689.1951
 452  707.4451
 453  628.6406
 454  634.0966
 455  695.3455
 456  715.2921
 457  736.439
 458  663.2609
 459  600.5318
 460  509.711
 461  545.7444
 462  605.3171
 463  646.5657
 464  603.2597
 465  698.3182
 466  816.3328
 467  824.106
 468  705.5648
 469  694.6539
 470  684.1205
 471  595.6212
 472  497.0573
 473  575.9631
 474  650.4946
 475  673.6813
 476  582.1559
 477  545.1539
 478  510.03
 479  498.1536
 480  549.5811
 481  476.8126
 482  518.4343
 483  510.1999
 484  616.8308
 485  594.7787
 486  578.3773
 487  601.8293
 488  493.8485
 489  461.9491
 490  484.3059
 491  544.6734
 492  504.6792
 493  513.2
 494  657.144
 495  797.5123
 496  747.5789
 497  690.7137
 498  678.8162
 499  640.795
 500  619.8806
 501  650.7165
 502  652.5043
 503  622.1271
 504  483.0818
 505  515.4567
 506  511.1136
 507  496.9955
 508  487.8319
 509  563.4863
 510  635.2484
 511  696.9422
 512  715.6349
 513  679.601
 514  618.619
 515  586.5283
 516  680.0082
 517  639.1064
 518  681.7704
 519  662.0237
 520  653.3784
 521  586.4437
 522  629.1077
 523  712.5678
 524  783.9903
 525  723.9781
 526  662.1909
 527  600.9506
 528  627.0462
 529  683.5078
 530  731.7181
 531  642.0825
 532  596.7683
 533  517.8589
 534  533.6859
 535  504.8716
 536  544.2012
 537  591.231
 538  638.6417
 539  578.1474
 540  562.6177
 541  562.0164
 542  566.199
 543  571.064
 544  502.8362
 545  533.7407
 546  526.2972
 547  627.7748
 548  734.0767
 549  742.313
 550  761.1642
 551  771.0106
 552  779.8843
 553  677.3267
 554  657.2883
 555  669.4146
 556  589.904
 557  526.7144
 558  516.3582
 559  556.6821
 560  590.5403
 561  530.4698
 562  577.8231
 563  552.0359
 564  612.2908
 565  663.9287
 566  781.5895
 567  764.9865
 568  675.639
 569  576.0501
 570  640.5775
 571  694.5249
 572  653.9332
 573  530.8091
 574  429.4705
 575  495.1922
 576  491.9172
 577  522.1361
 578  505.4623
 579  473.7485
 580  433.8166
 581  433.3314
 582  435.7896
 583  574.8951
 584  654.8936
 585  669.2799
 586  631.5091
 587  657.2427
 588  686.5746
 589  677.2578
 590  535.3987
 591  529.6439
 592  507.9688
 593  467.7784
 594  454.2121
 595  511.5627
 596  554.0433
 597  552.6343
 598  462.8303
 599  609.0341
 600  636.89
 601  745.0707
 602  722.927
 603  737.936
 604  672.0867
 605  630.8987
 606  687.7655
 607  691.7683
 608  762.0745
 609  842.5998
 610  1042.558
 611  1124.99
 612  1219.384
 613  1283.324
 614  1334.247
 615  1345.773
 616  1396.327
 617  1467.533
 618  1520.516
 619  1552.028
 620  1531.59
 621  1434.384
 622  1335.685
 623  1198.022
 624  1079.423
 625  897.4631
 626  805.7773
 627  882.5065
 628  893.434
 629  880.527
 630  799.9921
 631  871.8306
 632  889.0309
 633  872.8444
 634  875.1269
 635  869.5148
 636  834.0955
 637  699.8816
 638  721.8491
 639  769.8326
 640  849.3107
 641  861.0362
 642  890.278
 643  815.4557
 644  705.0727
 645  598.9588
 646  705.7731
 647  739.6233
 648  781.3483
 649  750.8589
 650  667.2995
 651  625.2534
 652  645.384
 653  628.8518
 654  603.9412
 655  580.4491
 656  682.5453
 657  721.0785
 658  743.1559
 659  752.3782
 660  661.6109
 661  561.3892
 662  582.0001
 663  628.9425
 664  666.7842
 665  556.6976
 666  494.1576
 667  518.2301
 668  487.3383
 669  543.1083
 670  545.7127
 671  548.6555
 672  522.4967
 673  594.9271
 674  608.9883
 675  620.3629
 676  591.4368
 677  691.5805
 678  724.9025
 679  705.0604
 680  662.553
 681  558.6195
 682  459.7001
 683  501.4781
 684  477.4164
 685  542.3846
 686  535.3555
 687  624.2153
 688  587.5769
 689  613.7091
 690  570.9568
 691  617.4719
 692  569.908
 693  633.6528
 694  617.2701
 695  626.1392
 696  576.4279
 697  529.8093
 698  589.5983
 699  725.3398
 700  733.5549
 701  662.6877
 702  562.2364
 703  527.3506
 704  622.5851
 705  664.7278
 706  718.6821
 707  692.9374
 708  638.0754
 709  612.0676
 710  522.1845
 711  520.0916
 712  471.5784
 713  550.8112
 714  584.4606
 715  661.9117
 716  657.0298
 717  573.2067
 718  552.5675
 719  551.3817
 720  614.3691
 721  579.4761
 722  523.3619
 723  503.3735
 724  535.7924
 725  507.1504
 726  452.8682
 727  299.8214
 728  367.1446
 729  396.1079
 730  499.0686
 731  497.3258
 732  538.1548
 733  553.9014
 734  606.6273
 735  622.8669
 736  672.484
 737  731.9018
 738  702.182
 739  648.6252
 740  520.7299
 741  495.6605
 742  526.0311
 743  629.3022
 744  699.5581
 745  695.6055
 746  697.0055
 747  601.2475
 748  599.2555
 749  485.6946
 750  544.1554
 751  535.3757
 752  604.4208
 753  611.6724
 754  587.9585
 755  688.4156
 756  781.0266
 757  734.8384
 758  631.8381
 759  613.1744
 760  634.5633
 761  612.4167
 762  589.6656
 763  677.8337
 764  609.6
 765  579.3123
 766  500.1881
 767  591.3497
 768  581.0364
 769  613.3091
 770  643.6854
 771  776.4292
 772  758.8519
 773  614.2747
 774  587.5543
 775  604.332
 776  656.4164
 777  641.5059
 778  626.3901
 779  637.8936
 780  713.4633
 781  718.2944
 782  734.3273
 783  630.3443
 784  703.4514
 785  630.9407
 786  612.3568
 787  532.0837
 788  577.1605
 789  572.3206
 790  549.6151
 791  534.2829
 792  550.5881
 793  464.104
 794  402.6855
 795  500.883
 796  677.4327
 797  711.7549
 798  759.8779
 799  804.3122
 800  798.6323
 801  811.3273
 802  867.1683
 803  916.8651
 804  807.579
 805  784.0832
 806  690.5131
 807  667.9449
 808  614.3704
 809  683.668
 810  649.5955
 811  559.0496
 812  547.9288
 813  582.1698
 814  631.7755
 815  738.2865
 816  824.2454
 817  855.3013
 818  713.7555
 819  524.3811
 820  372.2267
 821  376.2837
 822  523.5894
 823  682.0101
 824  713.8569
 825  738.486
 826  703.8414
 827  674.6506
 828  740.6503
 829  727.3314
 830  674.1523
 831  690.4177
 832  709.8919
 833  724.5676
 834  668.6973
 835  731.76
 836  724.065
 837  690.8797
 838  591.467
 839  591.1705
 840  573.3416
 841  694.6967
 842  712.0607
 843  697.6099
 844  650.736
 845  583.23
 846  484.773
 847  430.7688
 848  376.7638
 849  493.304
 850  550.7086
 851  645.5949
 852  670.1581
 853  599.7283
 854  510.9436
 855  536.5154
 856  633.8505
 857  679.8074
 858  523.5277
 859  388.2155
 860  318.5085
 861  243.5292
 862  264.1924
 863  269.2331
 864  276.0539
 865  333.181
 866  457.1694
 867  544.7816
 868  539.6334
 869  520.1687
 870  582.713
 871  598.5748
 872  621.7621
 873  618.7936
 874  588.7567
 875  514.4862
 876  516.3672
 877  522.1706
 878  618.7571
 879  612.0328
 880  599.2314
 881  587.7261
 882  562.2386
 883  598.5164
 884  532.4222
 885  636.1372
 886  613.52
 887  662.777
 888  670.1399
 889  676.6071
 890  591.332
 891  572.5511
 892  520.3026
 893  615.7682
 894  654.6353
 895  788.2071
 896  744.013
 897  613.1716
 898  506.144
 899  525.0289
 900  588.098
 901  633.9363
 902  696.3006
 903  846.2261
 904  784.7612
 905  783.0516
 906  812.2447
 907  854.1276
 908  844.3459
 909  800.74
 910  819.0887
 911  806.5153
 912  692.2908
 913  601.5853
 914  602.3917
 915  660.5995
 916  716.2831
 917  788.1216
 918  787.2993
 919  787.2448
 920  795.1493
 921  769.2594
 922  772.05
 923  835.2239
 924  863.2645
 925  788.9239
 926  687.6437
 927  731.8529
 928  659.7189
 929  563.9248
 930  529.0907
 931  553.9948
 932  610.4374
 933  579.4146
 934  615.9468
 935  646.4786
 936  664.7477
 937  615.0803
 938  684.7217
 939  683.3561
 940  718.61
 941  696.1031
 942  719.4518
 943  622.37
 944  527.0113
 945  504.4244
 946  525.8547
 947  552.9836
 948  525.2903
 949  543.9474
 950  565.088
 951  617.1177
 952  598.8064
 953  653.4819
 954  670.0632
 955  598.9089
 956  509.9318
 957  489.7099
 958  475.7408
 959  555.0486
 960  508.5252
 961  425.4504
 962  386.6046
 963  561.635
 964  693.3651
 965  746.8821
 966  709.4456
 967  741.6121
 968  656.2551
 969  560.8362
 970  497.6067
 971  618.8458
 972  766.186
 973  798.9234
 974  780.3693
 975  713.1576
 976  709.6055
 977  731.2745
 978  658.991
 979  609.3106
 980  544.9774
 981  553.3978
 982  571.9236
 983  570.3217
 984  584.5482
 985  580.5467
 986  618.3185
 987  770.8921
 988  770.7124
 989  678.7942
 990  587.9671
 991  568.6776
 992  604.6411
 993  500.0692
 994  416.1432
 995  517.0585
 996  567.689
 997  689.1181
 998  592.6816
 999  665.9497
1000  646.3218
1001  614.4779
1002  539.6271
1003  497.4979
1004  495.5109
1005  430.5502
1006  525.4488
1007  618.5472
1008  614.7132
1009  518.0987
1010  629.8354
1011  630.834
1012  633.9888
1013  615.3127
1014  689.9139
1015  588.5101
1016  510.1547
1017  494.7796
1018  534.5724
1019  521.274
1020  460.1992
1021  464.0429
1022  590.2191
1023  644.2863
