# Input file       =  1200772773.113199_cleaned.dat
# Candidate        =  PSR_0332+5434
# Telescope        =  AR
# Epoch_topo       =  58141.833242050918
# Epoch_bary       =  N/A
# T_sample         =  0.002
# Data Folded      =  7340032
# Data Avg         =  0.531539587809156
# Data StdDev      =  6.9747992828413  
# Profile Bins     =  512
# Profile Avg      =  7620.13186497122 
# Profile StdDev   =  835.11389625308  
# Reduced chi-sqr  =  0.598
# Prob(Noise)      <  1   (~0.0 sigma)
# P_topo (ms)      =  714.572349277293  +/- 2.84e-05
# P'_topo (s/s)    =  -0                +/- 1.5e-11
# P''_topo (s/s^2) =  0                 +/- 6.62e-15
# P_bary (ms)      =  N/A
# P'_bary (s/s)    =  N/A
# P''_bary (s/s^2) =  N/A
# P_orb (s)        =  N/A
# asin(i)/c (s)    =  N/A
# eccentricity     =  N/A
# w (rad)          =  N/A
# T_peri           =  N/A
######################################################
   0  8182.401
   1  8146.736
   2  7578.589
   3  7784.231
   4  7483.869
   5  7707.284
   6  7217.323
   7  7653.683
   8  7776.049
   9  7462.434
  10  7249.303
  11  7441.345
  12  7437.155
  13  7220.069
  14  7415.585
  15  7432.703
  16  7681.367
  17  8091.078
  18  7819.856
  19  8372.603
  20  7457.259
  21  7217.872
  22  7450.359
  23  6914.602
  24  7027.741
  25  7184.039
  26  6849.703
  27  6100.306
  28  6553.628
  29  7151.203
  30  7228.343
  31  7664.475
  32  7780.678
  33  7923.48
  34  7804.022
  35  8162.266
  36  7629.352
  37  7313.125
  38  7351.824
  39  7732.678
  40  8093.103
  41  7974.038
  42  7867.98
  43  8575.269
  44  8748.269
  45  8195.382
  46  7818.644
  47  8156.201
  48  8048.68
  49  8285.222
  50  8291.075
  51  8377.002
  52  7558.748
  53  7841.32
  54  7979.712
  55  7408.192
  56  6940.558
  57  7514.869
  58  7673.154
  59  7436.943
  60  7654.706
  61  8166.774
  62  8286.1
  63  7786.319
  64  8424.819
  65  8776.68
  66  8113.234
  67  7412.556
  68  7605.703
  69  7431.079
  70  6800.873
  71  7394.971
  72  7700.9
  73  6866.11
  74  7215.255
  75  7915.039
  76  7998.254
  77  7098.153
  78  8017.578
  79  8356.777
  80  8120.205
  81  7644.806
  82  8232.733
  83  8022.394
  84  7535.958
  85  7710.642
  86  8445.62
  87  8312.447
  88  7243.582
  89  7638.505
  90  8263.315
  91  8326.805
  92  7762.016
  93  7983.215
  94  7832.912
  95  7181.3
  96  7732.377
  97  7781.818
  98  7543.282
  99  7912.844
 100  8441.302
 101  8400.829
 102  7262.578
 103  7783.338
 104  7766.162
 105  7822.41
 106  7595.262
 107  8529.778
 108  8487.74
 109  7052.042
 110  6840.642
 111  6974.496
 112  6720.448
 113  6621.293
 114  7591.336
 115  8064.968
 116  7907.699
 117  7599.186
 118  7411.107
 119  8059.545
 120  7621.245
 121  7671.873
 122  7526.079
 123  7485.496
 124  7151.209
 125  7743.895
 126  7912.547
 127  7395.647
 128  7867.461
 129  7991.029
 130  7785.92
 131  7533.24
 132  7591.72
 133  7683.102
 134  8200.705
 135  7783.035
 136  8099.045
 137  7543.092
 138  7094.603
 139  7573.884
 140  8047.036
 141  7782.59
 142  7633.12
 143  7816.428
 144  8198.473
 145  7165.014
 146  7375.207
 147  7918.134
 148  7654.659
 149  7014.767
 150  7633.82
 151  7541.684
 152  7437.496
 153  7668.327
 154  7548.305
 155  7686.998
 156  7242.256
 157  7732.352
 158  8068.676
 159  7564.841
 160  7595.058
 161  7943.382
 162  8182.45
 163  7642.153
 164  7628.059
 165  7359.06
 166  6798.387
 167  7042.815
 168  7286.634
 169  7600.126
 170  6937.973
 171  6830.016
 172  7270.862
 173  7076.983
 174  7375.211
 175  7299.554
 176  7343.187
 177  7395.378
 178  7018.636
 179  7640.535
 180  7353.044
 181  7139.312
 182  7183.53
 183  7076.286
 184  7112.447
 185  7237.266
 186  7771.11
 187  7702.539
 188  7607.431
 189  7617.292
 190  7617.853
 191  7492.771
 192  7361.683
 193  8004.048
 194  8319.275
 195  7688.363
 196  7287.874
 197  7891.057
 198  8362.891
 199  7284.667
 200  7652.36
 201  8159.95
 202  7523.094
 203  7164.923
 204  7497.256
 205  7689.978
 206  7200.539
 207  7441.977
 208  7627.817
 209  6845.586
 210  6606.751
 211  7476.734
 212  8012.144
 213  7424.48
 214  7409.212
 215  7932.535
 216  7556.082
 217  7033.016
 218  7123.542
 219  7222.891
 220  6638.884
 221  6653.447
 222  7525.596
 223  7554.562
 224  7498.634
 225  7667.476
 226  7877.205
 227  7863.725
 228  7520.285
 229  7692.829
 230  7754.838
 231  7908.519
 232  7985.05
 233  7675.564
 234  7817.417
 235  7728.901
 236  7344.418
 237  7304.312
 238  6600.679
 239  7114.945
 240  8322.294
 241  7757.406
 242  7000.873
 243  7919.793
 244  7455.753
 245  7126.176
 246  6701.252
 247  6706.173
 248  6811.171
 249  6711.645
 250  7669.7
 251  7183.125
 252  7058.262
 253  6866.981
 254  7170.008
 255  7402.249
 256  6615.873
 257  6945.99
 258  7636.452
 259  7627.405
 260  7231.654
 261  7565.964
 262  8037.411
 263  7724.576
 264  7622.777
 265  7666.801
 266  7124.13
 267  6551.523
 268  7345.256
 269  7737.547
 270  7371.511
 271  6683.64
 272  7573.663
 273  7639.82
 274  7266.171
 275  7896.669
 276  7975.036
 277  7816.161
 278  7711.947
 279  8089.333
 280  7837.033
 281  6901.193
 282  6776.818
 283  7403.768
 284  7670.039
 285  7096.015
 286  7473.23
 287  7542.805
 288  7422.256
 289  8002.345
 290  7929.37
 291  8162.33
 292  7795.047
 293  7950.25
 294  7617.032
 295  7369.805
 296  7157.794
 297  7431.312
 298  7189.068
 299  6783.144
 300  7611.651
 301  8314.985
 302  8238.619
 303  7633.982
 304  7828.216
 305  8188.602
 306  8634.996
 307  9169.378
 308  9644.927
 309  9314.178
 310  8722.599
 311  8526.742
 312  7844.143
 313  7730.623
 314  7924.416
 315  8216.313
 316  8298.561
 317  7384.506
 318  8235.199
 319  7932.729
 320  7694.178
 321  7546.665
 322  7923.507
 323  7307.648
 324  7282.002
 325  7788.987
 326  7901.874
 327  7988.429
 328  7492.309
 329  7861.12
 330  7759.2
 331  7397.198
 332  7538.458
 333  7533.72
 334  7516.437
 335  7282.649
 336  7475.342
 337  7654.466
 338  7830
 339  7076.096
 340  7971.466
 341  7762.583
 342  7460.949
 343  8301.742
 344  8115.987
 345  7841.393
 346  7990.247
 347  7447.253
 348  7172.564
 349  7408.996
 350  7874.59
 351  8180.881
 352  7243.049
 353  7520.351
 354  7547.412
 355  8278.554
 356  8102.786
 357  7533.759
 358  7629.415
 359  7662.415
 360  6832.973
 361  7210.945
 362  8122.391
 363  7884.326
 364  7555.446
 365  7986.943
 366  8175.177
 367  7511.31
 368  7396.128
 369  7942.021
 370  8213.215
 371  8112.199
 372  8110.695
 373  8690.171
 374  8084.928
 375  7868.271
 376  7906.917
 377  7677.928
 378  7038.845
 379  7597.171
 380  7635.242
 381  7535.217
 382  6851.867
 383  7440.363
 384  7868.646
 385  7649.412
 386  7659.789
 387  7924.916
 388  8205.832
 389  7253.861
 390  6913.929
 391  7721.447
 392  7192.479
 393  7997.415
 394  8837.643
 395  7774.221
 396  6844.486
 397  7261.997
 398  7451.585
 399  6979.247
 400  7589.745
 401  8183.31
 402  8803.838
 403  7650.737
 404  8167.122
 405  8225.922
 406  8213.355
 407  8053.477
 408  8214.803
 409  8706.782
 410  8107.944
 411  8120.786
 412  8215.499
 413  7126.25
 414  6746.152
 415  7612.9
 416  7812.748
 417  7466.464
 418  8013.954
 419  8756.173
 420  8727.416
 421  7932.167
 422  7900.411
 423  8035.712
 424  7770.615
 425  7431.918
 426  7781.681
 427  8254.403
 428  7423.907
 429  8458.955
 430  8248.94
 431  7579.243
 432  7303.508
 433  7639.665
 434  7610.224
 435  7213.051
 436  7230.741
 437  7483.861
 438  7319.439
 439  7062.331
 440  7260.983
 441  7558.859
 442  7669.242
 443  7238.279
 444  7447.729
 445  7449.221
 446  7438.049
 447  7507.95
 448  7719.556
 449  7597.093
 450  7495.989
 451  8250.073
 452  7638.56
 453  6671.022
 454  7450.333
 455  7250.732
 456  7156.72
 457  7130.708
 458  7616.407
 459  7627.446
 460  7415.264
 461  7594.043
 462  8071.036
 463  7695.131
 464  7267.635
 465  7401.358
 466  7463.085
 467  7205.184
 468  7143.665
 469  7544.014
 470  7728.776
 471  6993.699
 472  6962.196
 473  7684.536
 474  7318.636
 475  7247.539
 476  8121.319
 477  7429.6
 478  7232.293
 479  7141.987
 480  7437.355
 481  7536.691
 482  6769.867
 483  6915.656
 484  7429.33
 485  7721.614
 486  7452.368
 487  7529.656
 488  7405.299
 489  7252.368
 490  8055.119
 491  8426.728
 492  7979.064
 493  7431.006
 494  7505.218
 495  7160.422
 496  6698.164
 497  7309.797
 498  7888.486
 499  7580.165
 500  7161.48
 501  7052.932
 502  7478.934
 503  7478.128
 504  7887.063
 505  8548.059
 506  7861.182
 507  7420.037
 508  7887.071
 509  7301.599
 510  6725.797
 511  6842.156
