# Input file       =  1200829442.095395_cleaned.dat
# Candidate        =  PSR_0332+5434
# Telescope        =  AR
# Epoch_topo       =  58142.489133048555
# Epoch_bary       =  N/A
# T_sample         =  0.002
# Data Folded      =  7405568
# Data Avg         =  0.0882814903073913
# Data StdDev      =  3.30543363324874 
# Profile Bins     =  1024
# Profile Avg      =  638.463509308314 
# Profile StdDev   =  281.097931966011 
# Reduced chi-sqr  =  1.264
# Prob(Noise)      <  1.62e-08   (~5.5 sigma)
# P_topo (ms)      =  714.572351485492  +/- 4.77e-05
# P'_topo (s/s)    =  -0                +/- 2.5e-11
# P''_topo (s/s^2) =  0                 +/- 1.09e-14
# P_bary (ms)      =  N/A
# P'_bary (s/s)    =  N/A
# P''_bary (s/s^2) =  N/A
# P_orb (s)        =  N/A
# asin(i)/c (s)    =  N/A
# eccentricity     =  N/A
# w (rad)          =  N/A
# T_peri           =  N/A
######################################################
   0  552.7024
   1  490.9405
   2  389.545
   3  347.4713
   4  463.8354
   5  635.7866
   6  752.5668
   7  708.3983
   8  683.29
   9  563.2031
  10  596.5706
  11  671.1442
  12  709.7156
  13  620.3615
  14  340.996
  15  413.3049
  16  544.7817
  17  720.0785
  18  712.9993
  19  656.2192
  20  594.4169
  21  705.7623
  22  862.1489
  23  995.2347
  24  891.3942
  25  902.5648
  26  966.9068
  27  1009.027
  28  948.2809
  29  722.4755
  30  572.4048
  31  640.4528
  32  523.1161
  33  491.6945
  34  356.1751
  35  489.3086
  36  628.9855
  37  689.1728
  38  663.1663
  39  557.4269
  40  573.9615
  41  522.2108
  42  470.0425
  43  454.4115
  44  466.5487
  45  565.623
  46  536.8029
  47  497.4711
  48  551.8185
  49  599.673
  50  616.9484
  51  585.1174
  52  528.4766
  53  490.5944
  54  533.6779
  55  630.924
  56  709.7911
  57  675.1486
  58  719.0102
  59  793.4268
  60  876.0786
  61  871.8795
  62  762.718
  63  696.8276
  64  524.2792
  65  548.139
  66  580.0322
  67  619.3428
  68  570.481
  69  581.8868
  70  578.5618
  71  548.9642
  72  476.6114
  73  413.6414
  74  442.0143
  75  587.6968
  76  637.2597
  77  578.7266
  78  579.3552
  79  463.711
  80  349.0881
  81  214.4449
  82  255.0134
  83  343.4844
  84  424.6196
  85  537.8984
  86  680.6157
  87  762.9984
  88  868.175
  89  943.9295
  90  963.9813
  91  877.9758
  92  826.111
  93  870.9089
  94  820.6068
  95  793.1053
  96  756.7588
  97  706.0621
  98  706.4879
  99  721.6292
 100  663.1096
 101  588.5704
 102  585.0806
 103  676.1181
 104  666.3843
 105  624.9258
 106  514.6273
 107  572.2114
 108  656.8293
 109  632.2759
 110  558.456
 111  497.7388
 112  456.399
 113  400.8798
 114  333.5118
 115  337.803
 116  421.6065
 117  454.8834
 118  646.4332
 119  664.0574
 120  665.3348
 121  617.8029
 122  639.3813
 123  754.4892
 124  764.2645
 125  820.5161
 126  716.5306
 127  649.8239
 128  643.0412
 129  604.9702
 130  505.6627
 131  563.7283
 132  613.7485
 133  649.8502
 134  612.6635
 135  655.8127
 136  635.556
 137  631.4343
 138  579.4315
 139  486.104
 140  422.8581
 141  481.6304
 142  581.6884
 143  596.6287
 144  432.1921
 145  351.1472
 146  378.4007
 147  391.5801
 148  389.3585
 149  375.8154
 150  461.427
 151  543.7646
 152  667.8989
 153  700.3904
 154  763.7314
 155  654.174
 156  631.0837
 157  556.6262
 158  650.6245
 159  757.7558
 160  751.6904
 161  597.3983
 162  480.3142
 163  482.0557
 164  560.2955
 165  447.2606
 166  476.0903
 167  495.7348
 168  573.8715
 169  553.0614
 170  509.4194
 171  450.5919
 172  400.0431
 173  577.6402
 174  680.5482
 175  679.9297
 176  578.4648
 177  478.35
 178  535.7887
 179  497.111
 180  414.271
 181  411.6843
 182  441.3675
 183  518.2372
 184  734.6265
 185  817.1528
 186  853.6279
 187  739.046
 188  889.3962
 189  1017.872
 190  1039.257
 191  972.3475
 192  882.9301
 193  852.6409
 194  702.949
 195  565.9334
 196  562.9882
 197  512.6951
 198  598.0922
 199  588.8309
 200  638.3989
 201  532.7231
 202  533.8041
 203  500.3782
 204  451.6683
 205  477.1307
 206  659.6463
 207  667.2391
 208  677.0413
 209  532.0493
 210  522.539
 211  496.5984
 212  530.6254
 213  525.3542
 214  649.0375
 215  576.7255
 216  648.4584
 217  698.4226
 218  793.7784
 219  839.7334
 220  767.0849
 221  846.1543
 222  912.3606
 223  1016.439
 224  971.7834
 225  910.087
 226  764.5424
 227  664.5681
 228  529.1419
 229  622.1236
 230  582.22
 231  634.8739
 232  575.4971
 233  529.1026
 234  596.1285
 235  643.3619
 236  669.3931
 237  559.8674
 238  478.0421
 239  472.9682
 240  477.195
 241  521.4194
 242  500.9277
 243  524.5521
 244  501.914
 245  446.2101
 246  352.3997
 247  354.6409
 248  416.4477
 249  575.7603
 250  691.4841
 251  823.8921
 252  875.6089
 253  953.9703
 254  929.08
 255  769.2433
 256  684.0627
 257  551.4703
 258  625.7726
 259  689.7646
 260  775.1959
 261  756.6694
 262  575.5923
 263  514.3606
 264  519.2678
 265  585.6536
 266  675.0862
 267  769.3141
 268  769.3492
 269  612.1111
 270  529.8583
 271  516.5505
 272  522.9899
 273  575.1231
 274  577.7055
 275  637.1628
 276  585.6175
 277  489.481
 278  485.1038
 279  442.4393
 280  373.7002
 281  444.5453
 282  611.0229
 283  707.9997
 284  788.327
 285  905.7791
 286  898.5951
 287  809.4698
 288  701.6336
 289  852.8866
 290  944.0599
 291  890.9764
 292  720.8352
 293  672.3992
 294  680.8098
 295  669.4572
 296  529.0255
 297  432.4491
 298  377.8456
 299  448.2729
 300  488.2958
 301  509.9733
 302  527.9338
 303  520.215
 304  519.039
 305  499.9742
 306  513.7242
 307  516.0641
 308  563.5351
 309  551.0999
 310  462.2787
 311  481.7811
 312  528.8834
 313  570.3907
 314  563.3162
 315  602.1897
 316  715.2738
 317  772.5737
 318  712.9182
 319  728.5135
 320  802.4078
 321  977.0969
 322  1017.717
 323  977.3455
 324  842.4702
 325  781.2385
 326  796.5134
 327  752.6467
 328  675.6771
 329  640.7665
 330  682.676
 331  661.8796
 332  627.4464
 333  560.0378
 334  678.6373
 335  620.1032
 336  562.5814
 337  501.2583
 338  502.634
 339  545.6283
 340  537.7083
 341  547.5276
 342  528.1359
 343  474.3767
 344  383.4962
 345  357.527
 346  460.4559
 347  675.6443
 348  727.9128
 349  867.6707
 350  818.3563
 351  747.7057
 352  695.9516
 353  693.2272
 354  710.1179
 355  686.4455
 356  869.2667
 357  906.1467
 358  912.6501
 359  789.033
 360  666.0968
 361  525.6642
 362  546.8842
 363  586.5165
 364  567.2966
 365  458.757
 366  510.3609
 367  652.8836
 368  702.9789
 369  658.4736
 370  594.0361
 371  628.3691
 372  591.4269
 373  599.0521
 374  525.1824
 375  309.2395
 376  250.796
 377  242.4266
 378  387.0128
 379  418.5288
 380  527.2173
 381  497.3572
 382  614.0762
 383  740.1102
 384  894.1888
 385  822.1241
 386  774.3406
 387  839.3571
 388  935.5112
 389  998.5978
 390  941.6237
 391  945.6715
 392  716.2428
 393  687.7211
 394  574.2927
 395  505.4883
 396  337.8811
 397  436.4883
 398  571.298
 399  786.6218
 400  841.5502
 401  877.2401
 402  786.6483
 403  817.9431
 404  851.5204
 405  813.4634
 406  659.6775
 407  562.8814
 408  572.0634
 409  557.0176
 410  476.5536
 411  410.1592
 412  421.959
 413  316.7756
 414  353.9006
 415  341.3981
 416  519.0916
 417  722.7985
 418  852.3155
 419  839.2173
 420  702.608
 421  592.9921
 422  685.251
 423  698.5677
 424  730.6367
 425  700.1721
 426  731.0768
 427  594.2528
 428  473.3998
 429  431.3828
 430  643.4451
 431  582.9841
 432  678.2572
 433  740.6936
 434  678.0925
 435  532.9846
 436  377.3003
 437  547.1981
 438  549.3819
 439  496.6726
 440  392.3097
 441  525.3403
 442  567.5457
 443  605.1802
 444  509.1918
 445  424.9684
 446  349.2434
 447  429.4343
 448  547.7335
 449  631.521
 450  664.4949
 451  642.3676
 452  750.6417
 453  880.6481
 454  873.6497
 455  850.7886
 456  768.1819
 457  775.2183
 458  790.6524
 459  833.0177
 460  796.8188
 461  650.2944
 462  580.0206
 463  485.5607
 464  472.2933
 465  509.4414
 466  559.915
 467  679.7668
 468  706.8665
 469  664.6901
 470  574.1175
 471  478.5895
 472  539.0582
 473  583.1096
 474  555.3478
 475  466.4248
 476  465.141
 477  419.5798
 478  344.3961
 479  253.1355
 480  319.1933
 481  394.0784
 482  583.4221
 483  629.7912
 484  584.4429
 485  599.8399
 486  780.5742
 487  933.8864
 488  899.3991
 489  829.7069
 490  745.3221
 491  662.2665
 492  666.3414
 493  692.3958
 494  697.9003
 495  649.0813
 496  574.2054
 497  563.6406
 498  498.366
 499  412.9074
 500  405.798
 501  502.2376
 502  614.5436
 503  719.3632
 504  619.8562
 505  582.3658
 506  521.4919
 507  539.4536
 508  551.8884
 509  546.8619
 510  492.0187
 511  491.4037
 512  533.686
 513  533.4967
 514  568.4932
 515  664.272
 516  756.2833
 517  735.5648
 518  775.0442
 519  746.4579
 520  858.0215
 521  846.6661
 522  840.5721
 523  846.1884
 524  846.1484
 525  744.2538
 526  672.299
 527  560.9636
 528  519.7573
 529  485.1171
 530  613.8525
 531  745.5482
 532  830.2341
 533  846.921
 534  793.4197
 535  769.4228
 536  725.1664
 537  613.2985
 538  522.394
 539  491.0017
 540  417.8951
 541  364.6819
 542  269.7614
 543  310.1953
 544  387.494
 545  484.6868
 546  467.7941
 547  506.9557
 548  510.5522
 549  710.404
 550  702.1235
 551  832.2846
 552  801.7187
 553  1031.401
 554  1017.816
 555  976.8947
 556  771.1194
 557  636.352
 558  635.0884
 559  574.0948
 560  554.3396
 561  580.5942
 562  690.1207
 563  794.7579
 564  721.1747
 565  716.3755
 566  556.8947
 567  546.7888
 568  495.6096
 569  470.7209
 570  504.8521
 571  618.4309
 572  760.0656
 573  733.4565
 574  651.3805
 575  478.1372
 576  466.6647
 577  476.192
 578  573.258
 579  706.8469
 580  798.4988
 581  746.2377
 582  734.3524
 583  682.4962
 584  795.2538
 585  815.2703
 586  976.5443
 587  876.783
 588  880.9767
 589  783.3361
 590  777.726
 591  694.7847
 592  705.2695
 593  654.5571
 594  724.4403
 595  701.61
 596  851.8521
 597  788.366
 598  859.0711
 599  741.2008
 600  846.0157
 601  700.8383
 602  670.8756
 603  681.0284
 604  722.9996
 605  719.3062
 606  625.0697
 607  575.0972
 608  613.5792
 609  688.9647
 610  861.3138
 611  1007.453
 612  1253.552
 613  1406.515
 614  1512.585
 615  1589.123
 616  1493.223
 617  1427.715
 618  1498.139
 619  1442.449
 620  1411.027
 621  1257.707
 622  1232.101
 623  1041.729
 624  842.1201
 625  725.339
 626  731.9458
 627  681.1
 628  627.8387
 629  615.6378
 630  622.8994
 631  678.8325
 632  726.6718
 633  747.4794
 634  574.7757
 635  555.3635
 636  753.8937
 637  922.2515
 638  855.0076
 639  728.9458
 640  649.1046
 641  606.0787
 642  502.0038
 643  460.6105
 644  550.7975
 645  622.6785
 646  688.0331
 647  703.9276
 648  720.7751
 649  845.5078
 650  957.3757
 651  1067.324
 652  992.877
 653  1059.128
 654  971.1118
 655  833.7455
 656  716.2226
 657  752.4624
 658  877.7664
 659  806.6497
 660  690.1351
 661  598.3339
 662  591.4655
 663  706.4421
 664  723.1902
 665  707.7537
 666  637.0465
 667  591.3155
 668  530.168
 669  559.6084
 670  537.7246
 671  685.9763
 672  621.8685
 673  728.3488
 674  706.8839
 675  663.8652
 676  573.9615
 677  556.7053
 678  657.3195
 679  691.8953
 680  677.98
 681  692.6714
 682  646.5466
 683  697.3217
 684  763.8527
 685  828.1289
 686  896.297
 687  799.9443
 688  830.8766
 689  722.2668
 690  635.5241
 691  643.0208
 692  612.9389
 693  651.3534
 694  598.6577
 695  693.8768
 696  703.7084
 697  688.8653
 698  706.4659
 699  586.9211
 700  543.5665
 701  586.9518
 702  687.9058
 703  667.4142
 704  552.1124
 705  507.9033
 706  573.4442
 707  626.2236
 708  577.5928
 709  582.4712
 710  667.5546
 711  797.1025
 712  794.9989
 713  792.7045
 714  745.6639
 715  747.261
 716  655.8364
 717  717.7147
 718  787.8516
 719  908.3052
 720  853.4126
 721  860.7346
 722  691.1354
 723  718.4681
 724  606.7246
 725  708.3132
 726  639.9965
 727  684.5089
 728  751.7329
 729  795.9031
 730  733.3507
 731  615.2575
 732  577.8905
 733  568.6738
 734  593.6563
 735  563.83
 736  561.3944
 737  517.8785
 738  535.856
 739  502.4153
 740  413.5737
 741  364.3939
 742  397.9612
 743  536.0072
 744  655.5453
 745  783.502
 746  781.4323
 747  694.9837
 748  733.4849
 749  713.5557
 750  764.0176
 751  792.0743
 752  887.1288
 753  886.6141
 754  879.6309
 755  824.4301
 756  751.2392
 757  633.3797
 758  671.5587
 759  695.7336
 760  659.6922
 761  536.657
 762  465.4767
 763  501.4786
 764  438.2585
 765  392.4903
 766  414.9272
 767  372.1586
 768  498.0321
 769  490.3271
 770  459.1213
 771  389.8949
 772  401.2985
 773  454.3823
 774  486.0515
 775  452.6714
 776  364.6487
 777  389.9968
 778  472.3614
 779  636.0449
 780  795.0346
 781  846.0102
 782  816.7053
 783  830.0551
 784  861.7219
 785  854.9153
 786  865.9683
 787  828.5322
 788  858.44
 789  682.0913
 790  643.8856
 791  614.2516
 792  638.9703
 793  620.8193
 794  641.1584
 795  567.0855
 796  521.4692
 797  402.5207
 798  597.2173
 799  705.8119
 800  775.3361
 801  746.9653
 802  655.4932
 803  580.5406
 804  442.5202
 805  351.7433
 806  344.8866
 807  379.1431
 808  378.4594
 809  377.2216
 810  392.8799
 811  496.9174
 812  632.0491
 813  696.6888
 814  732.9794
 815  780.3116
 816  903.8712
 817  879.6514
 818  792.418
 819  848.1707
 820  755.4387
 821  761.5695
 822  646.085
 823  649.7738
 824  580.1557
 825  580.2244
 826  566.3655
 827  501.3972
 828  439.9533
 829  440.0607
 830  514.8333
 831  611.9821
 832  517.8767
 833  544.1819
 834  580.6662
 835  619.3367
 836  635.7401
 837  516.4188
 838  456.0708
 839  419.235
 840  457.8947
 841  374.9489
 842  312.1977
 843  274.787
 844  473.5587
 845  652.2189
 846  731.0494
 847  655.184
 848  706.079
 849  788.7824
 850  861.6315
 851  882.5953
 852  852.5778
 853  811.26
 854  853.1789
 855  796.6542
 856  730.7913
 857  535.8456
 858  492.1411
 859  455.7927
 860  504.8112
 861  567.2347
 862  516.9747
 863  448.61
 864  417.3629
 865  472.5202
 866  635.2081
 867  717.0312
 868  671.8256
 869  559.3713
 870  430.7384
 871  543.5099
 872  606.2054
 873  538.7773
 874  495.2039
 875  465.9893
 876  570.8933
 877  611.4694
 878  723.3153
 879  799.4565
 880  801.1118
 881  834.4146
 882  827.7003
 883  869.8478
 884  808.7725
 885  775.5612
 886  811.2578
 887  812.8754
 888  746.0374
 889  736.5496
 890  621.1218
 891  521.7787
 892  471.6015
 893  541.0409
 894  528.3592
 895  570.5607
 896  605.8134
 897  585.9764
 898  612.9872
 899  633.6092
 900  620.0453
 901  545.1467
 902  474.2798
 903  387.644
 904  455.98
 905  457.4771
 906  503.4073
 907  460.9725
 908  490.3708
 909  414.3753
 910  443.8995
 911  452.6832
 912  589.6519
 913  623.3688
 914  738.0272
 915  876.1498
 916  1000.372
 917  915.8778
 918  760.2665
 919  820.4099
 920  827.1075
 921  717.2538
 922  646.3044
 923  636.5699
 924  606.6512
 925  502.6366
 926  408.9502
 927  432.1627
 928  402.8643
 929  450.7258
 930  466.9214
 931  494.5752
 932  415.8703
 933  418.6202
 934  515.2541
 935  519.9773
 936  573.3063
 937  583.2637
 938  468.7733
 939  373.4456
 940  382.9859
 941  438.4366
 942  474.3033
 943  458.7798
 944  534.7613
 945  536.6257
 946  608.9501
 947  676.722
 948  693.7523
 949  763.5253
 950  806.0883
 951  821.3414
 952  804.3729
 953  725.3804
 954  746.1395
 955  668.2714
 956  665.6808
 957  668.0088
 958  616.4692
 959  608.7702
 960  655.1957
 961  688.8094
 962  572.088
 963  461.7019
 964  454.3395
 965  459.5216
 966  494.8017
 967  618.8671
 968  634.421
 969  545.7145
 970  372.3492
 971  384.4026
 972  518.0985
 973  506.3228
 974  522.4995
 975  534.6084
 976  554.7792
 977  691.5696
 978  731.4099
 979  786.5273
 980  796.5004
 981  902.9404
 982  951.2255
 983  766.5054
 984  696.6255
 985  692.5931
 986  799.1766
 987  916.5804
 988  849.0684
 989  719.3218
 990  492.9257
 991  433.284
 992  550.994
 993  676.9832
 994  657.8787
 995  511.7154
 996  432.1094
 997  587.3364
 998  647.1342
 999  748.4363
1000  640.3427
1001  628.3292
1002  510.424
1003  387.1646
1004  406.3583
1005  348.1237
1006  292.8077
1007  262.215
1008  325.9799
1009  471.479
1010  619.5869
1011  657.4797
1012  720.2675
1013  577.0551
1014  626.2548
1015  669.5023
1016  660.6208
1017  600.1533
1018  496.2225
1019  554.771
1020  636.3547
1021  731.2587
1022  775.2917
1023  689.889
