# Input file       =  1200327044.107096_cleaned.dat
# Candidate        =  PSR_0332+5434
# Telescope        =  AR
# Epoch_topo       =  58136.674341517311
# Epoch_bary       =  N/A
# T_sample         =  0.002
# Data Folded      =  7340032
# Data Avg         =  0.810744762063095
# Data StdDev      =  6.44118384168076 
# Profile Bins     =  1024
# Profile Avg      =  5811.42161923705 
# Profile StdDev   =  545.336659005918 
# Reduced chi-sqr  =  0.530
# Prob(Noise)      <  1   (~0.0 sigma)
# P_topo (ms)      =  714.56898962011   +/- 0.000138
# P'_topo (s/s)    =  -0                +/- 7.3e-11
# P''_topo (s/s^2) =  0                 +/- 3.22e-14
# P_bary (ms)      =  N/A
# P'_bary (s/s)    =  N/A
# P''_bary (s/s^2) =  N/A
# P_orb (s)        =  N/A
# asin(i)/c (s)    =  N/A
# eccentricity     =  N/A
# w (rad)          =  N/A
# T_peri           =  N/A
######################################################
   0  5847.451
   1  5954.266
   2  5915.149
   3  6004.989
   4  6042.233
   5  5986.19
   6  5853.715
   7  5780.409
   8  5765.259
   9  5727.379
  10  5796.313
  11  5739.607
  12  5835.281
  13  5826.226
  14  5814.15
  15  5838.172
  16  5663.75
  17  5683.062
  18  5801.136
  19  5809.829
  20  5779.932
  21  5827.254
  22  6186.787
  23  6413.222
  24  6168.813
  25  6049.733
  26  5847.359
  27  5819.783
  28  5764.382
  29  5677.178
  30  5775.77
  31  5670.172
  32  5946.742
  33  5999.556
  34  6182.841
  35  6128.865
  36  6147.163
  37  6302.819
  38  6357.792
  39  6519.172
  40  6382.79
  41  6202.327
  42  6084.603
  43  6007.424
  44  5863.095
  45  5812.239
  46  5912.405
  47  6091.745
  48  6093.458
  49  5978.507
  50  5917.072
  51  6063.774
  52  6012.063
  53  6101.981
  54  6072.577
  55  6262.624
  56  6188.218
  57  6112.606
  58  6049.076
  59  5962.569
  60  5881.494
  61  5923.882
  62  6042.41
  63  6134.327
  64  6083.375
  65  6046.844
  66  6274.584
  67  6339.193
  68  6222.003
  69  6221.816
  70  6364.54
  71  6364.517
  72  6192.45
  73  5922.126
  74  6036.168
  75  6152.793
  76  6034.19
  77  5863.689
  78  5769.99
  79  5838.214
  80  6135.507
  81  5963.592
  82  6190.519
  83  6003.886
  84  6099.926
  85  5974.916
  86  6064.714
  87  6140.151
  88  6294.328
  89  5904.358
  90  5850.843
  91  5788.88
  92  6015.495
  93  5948.319
  94  6045.572
  95  6070.051
  96  5920.698
  97  5660.968
  98  5683.11
  99  5759.817
 100  5780.082
 101  5984.672
 102  6021.895
 103  6118.471
 104  6114.014
 105  6013.459
 106  5790.465
 107  5556.04
 108  5552.893
 109  5526.569
 110  5490.738
 111  5625.764
 112  5690.801
 113  5863.709
 114  5763.683
 115  5910.14
 116  5912.426
 117  5932.398
 118  5752.242
 119  5828.095
 120  6197.858
 121  6238.145
 122  6119.989
 123  5817.772
 124  5714.482
 125  5675.434
 126  5557.703
 127  5696.853
 128  5666.147
 129  5723.068
 130  5689.806
 131  5815.076
 132  5907.095
 133  6037.618
 134  6191.435
 135  6193.714
 136  6210.418
 137  6083.446
 138  5758.997
 139  5639.068
 140  5441.404
 141  5395.685
 142  5513.577
 143  5513.86
 144  5724.969
 145  5673.96
 146  5836.047
 147  5844.49
 148  5924.64
 149  5961.864
 150  5865.055
 151  5880.483
 152  6070.47
 153  6106.754
 154  6099.257
 155  5807.969
 156  5700.763
 157  5291.062
 158  5482.492
 159  5356.434
 160  5531.714
 161  5460.343
 162  5552.831
 163  5698.282
 164  5809.078
 165  5887.854
 166  5904.014
 167  5557.102
 168  5537.791
 169  5522.941
 170  5709.095
 171  5714.935
 172  5637.202
 173  5681.002
 174  5854.529
 175  5844.223
 176  5825.895
 177  5907.173
 178  5818.796
 179  5785.6
 180  5792.301
 181  6023.988
 182  6112.276
 183  5825.742
 184  5753.083
 185  5737.203
 186  5891.812
 187  6015.902
 188  6053.362
 189  5999.824
 190  5803.657
 191  5788.605
 192  5851.746
 193  5863.983
 194  5879.061
 195  5805.548
 196  5902.709
 197  5845.832
 198  5890.706
 199  5709.053
 200  5588.922
 201  5599.856
 202  5593.306
 203  5634.888
 204  5715.342
 205  5771.688
 206  5825.57
 207  5919.846
 208  6034.275
 209  6057.574
 210  5892.296
 211  6053.83
 212  6199.657
 213  6114.181
 214  5895.114
 215  5762.491
 216  5889.407
 217  5901.252
 218  5916.719
 219  5782.25
 220  5795.736
 221  5715.395
 222  5714.395
 223  5550.806
 224  5472.27
 225  5629.459
 226  5467.48
 227  5389.41
 228  5347.778
 229  5423.042
 230  5243.957
 231  5344.591
 232  5569.073
 233  5816.686
 234  5827.989
 235  5912.739
 236  5771.753
 237  5481.53
 238  5517.859
 239  5663.268
 240  5618.087
 241  5668.017
 242  5710.781
 243  5720.911
 244  5950.715
 245  5776.438
 246  5909.52
 247  5693.151
 248  5719.777
 249  5871.829
 250  5738.621
 251  5757.93
 252  5790.062
 253  5775.98
 254  5815.156
 255  5657.956
 256  5789.464
 257  5819.073
 258  5904.225
 259  5848.623
 260  5777.653
 261  5504.901
 262  5724.39
 263  5903.359
 264  6082.002
 265  6086.167
 266  6008.463
 267  5956.756
 268  6017.251
 269  5940.105
 270  5971.724
 271  5971.538
 272  5887.228
 273  5989.2
 274  5843.921
 275  5969.022
 276  5950.097
 277  5908.098
 278  5984.512
 279  6053.591
 280  5980.167
 281  5828.454
 282  5515.065
 283  5605.108
 284  5686.499
 285  5776.238
 286  5801.254
 287  5725.463
 288  5777.907
 289  5909.149
 290  5991.789
 291  6006.449
 292  6057.694
 293  6172.91
 294  5966.758
 295  5713.886
 296  5635.59
 297  5973.959
 298  5999.077
 299  6048.377
 300  5986.136
 301  5884.833
 302  5623.699
 303  5690.35
 304  5790.843
 305  5815.819
 306  5903.615
 307  5855.143
 308  5711.899
 309  5489.72
 310  5327.258
 311  5490.128
 312  5448.746
 313  5425.313
 314  5472.417
 315  5463.984
 316  5725.12
 317  5695.026
 318  5623.778
 319  5641.93
 320  5605.083
 321  5723.721
 322  5585.836
 323  5406.453
 324  5598.572
 325  5846.438
 326  5941.745
 327  5883.277
 328  5774.423
 329  5777.913
 330  5882.586
 331  5684.882
 332  5740.079
 333  5862.254
 334  5839.879
 335  5832.105
 336  5644.938
 337  5888.871
 338  6015.777
 339  6013.688
 340  6013.194
 341  5954.645
 342  5911.079
 343  5846.745
 344  5828.328
 345  6044.19
 346  6206.873
 347  6192.452
 348  6144.788
 349  5990.42
 350  5834.509
 351  5704.22
 352  5771.856
 353  5879.646
 354  5951
 355  5801.06
 356  5800.238
 357  5754.015
 358  5779.608
 359  5897.356
 360  5713.325
 361  5726.131
 362  5795.256
 363  5818.453
 364  5634.41
 365  5609.801
 366  5710.626
 367  5710.379
 368  5706.899
 369  5982.298
 370  6260.059
 371  6255.68
 372  6124.831
 373  6235.812
 374  6215.806
 375  6160.509
 376  5998.748
 377  6006.402
 378  5795.816
 379  5604.119
 380  5501.264
 381  5759.104
 382  5913.239
 383  5892.855
 384  5818.077
 385  5841.817
 386  5940.775
 387  6166.124
 388  6148.355
 389  6269.028
 390  6191.55
 391  6011.089
 392  5674.504
 393  5341.331
 394  5502.522
 395  5567.133
 396  5546.188
 397  5466.185
 398  5431.393
 399  5725.474
 400  5641.854
 401  5539.566
 402  5618.803
 403  5856.677
 404  5981.796
 405  6035.426
 406  6113.311
 407  6115.326
 408  6150.643
 409  6083.652
 410  6166.238
 411  6061.805
 412  6000.896
 413  5894.944
 414  5875.404
 415  5796.256
 416  6002.288
 417  5918.47
 418  6049.243
 419  5994.731
 420  5990.894
 421  5871.044
 422  5683.599
 423  5853.851
 424  5828.907
 425  5675.623
 426  5646.855
 427  5721.229
 428  5769.647
 429  5619.326
 430  5764.709
 431  5886.593
 432  5811.68
 433  5638.546
 434  5613.183
 435  5854.191
 436  5728.12
 437  5672.817
 438  5766.536
 439  5984.416
 440  6201.254
 441  6001.153
 442  6014.162
 443  5938.253
 444  6020.726
 445  6176.73
 446  6045.485
 447  5860.395
 448  5801.397
 449  5668.316
 450  5638.119
 451  5661.412
 452  5993.804
 453  6271.98
 454  6057.087
 455  5930.858
 456  5791.958
 457  5831.938
 458  5565.7
 459  5691.348
 460  5816.757
 461  6060.67
 462  5954.54
 463  5999.348
 464  6053.917
 465  6080.643
 466  6091.445
 467  6128.666
 468  6071.058
 469  6068.753
 470  6078.144
 471  6112.121
 472  5915.888
 473  5633.329
 474  5455.377
 475  5440.602
 476  5371.021
 477  5491.919
 478  5648.79
 479  5520.816
 480  5491.742
 481  5671.023
 482  5970.562
 483  5944.151
 484  5782.679
 485  5917.891
 486  5927.904
 487  5686.914
 488  5541.96
 489  5642.081
 490  5746.886
 491  5676.91
 492  5640.746
 493  5571.009
 494  5483.812
 495  5404.53
 496  5592.557
 497  5858.781
 498  5721.118
 499  5732.283
 500  5546.28
 501  5577.526
 502  5794.622
 503  5816.094
 504  5772.693
 505  5613.008
 506  5697.936
 507  5710.514
 508  5581.337
 509  5536.615
 510  5656.759
 511  5615.743
 512  5802.56
 513  5867.499
 514  6015.993
 515  6008.361
 516  5987.236
 517  5914.466
 518  6058.264
 519  6024.182
 520  6077.871
 521  5909.826
 522  5737.124
 523  5700.978
 524  5726.879
 525  5754.326
 526  5756.187
 527  5841.788
 528  6067.674
 529  5977.269
 530  5943.12
 531  5831.081
 532  5846.31
 533  5937.357
 534  5932.906
 535  5896.187
 536  5740.569
 537  5714.235
 538  5665.111
 539  5651.388
 540  5695.587
 541  5754.193
 542  5974.833
 543  5802.441
 544  5593.74
 545  5775.999
 546  5928.457
 547  5957.463
 548  5763.274
 549  5639.905
 550  5770.745
 551  5706.942
 552  5741.937
 553  5733.335
 554  5937.116
 555  5870.854
 556  5778.406
 557  5568.762
 558  5601.833
 559  5669.018
 560  5406.743
 561  5457.586
 562  5431.159
 563  5549.256
 564  5605.598
 565  5747.891
 566  6005.371
 567  5964.134
 568  5835.198
 569  5833.358
 570  5739.723
 571  5990.353
 572  5881.304
 573  5859.824
 574  5785.504
 575  6037.461
 576  5834.591
 577  5729.421
 578  5644.001
 579  5842.435
 580  5882.218
 581  5836.03
 582  5993.095
 583  5933.13
 584  5761.393
 585  5782.744
 586  5851.833
 587  5961.57
 588  6035.161
 589  6076.487
 590  6107.218
 591  5961.777
 592  6122.668
 593  6091.208
 594  5694.895
 595  5587.931
 596  5678.211
 597  5956.987
 598  6016.142
 599  5974.217
 600  5891.836
 601  5852.963
 602  5779.044
 603  5734.994
 604  5750.48
 605  5732.458
 606  5947.095
 607  5940.985
 608  5942.835
 609  5767.451
 610  5740.817
 611  5908.055
 612  6322.168
 613  6321.702
 614  6381.637
 615  6305.398
 616  6387.926
 617  6321.348
 618  6192.258
 619  6065.651
 620  6126.843
 621  5952.446
 622  5866.896
 623  5680.545
 624  5794.306
 625  5742.717
 626  5525.466
 627  5373.793
 628  5413.279
 629  5271.141
 630  5216.205
 631  5380.507
 632  5705.833
 633  5989.758
 634  5976.607
 635  5892.891
 636  5853.243
 637  5918.703
 638  5851.197
 639  5742.475
 640  5604.292
 641  5590.672
 642  5665.903
 643  5576.228
 644  5645.37
 645  5690.132
 646  5590.452
 647  5803.289
 648  5682.361
 649  5832.909
 650  5759.365
 651  5632.506
 652  5799.353
 653  5937.904
 654  6028.492
 655  6016.53
 656  5848.406
 657  5865.438
 658  5616.647
 659  5592.076
 660  5529.967
 661  5620.119
 662  5710.012
 663  5905.473
 664  6073.94
 665  6080.389
 666  6124.777
 667  6132.226
 668  6181.605
 669  6234.658
 670  5875.217
 671  5722.919
 672  5583.867
 673  5828.692
 674  6158.98
 675  5891.938
 676  5879.032
 677  5762.812
 678  5853.712
 679  5849.071
 680  5659.616
 681  5717.549
 682  5885.956
 683  5901.275
 684  5915.44
 685  5698.322
 686  5629.786
 687  5684.275
 688  5998.912
 689  6111.395
 690  6061.032
 691  5999.678
 692  6010.044
 693  6024.209
 694  5696.661
 695  5655.911
 696  5530.011
 697  5835.39
 698  5977.128
 699  5779.963
 700  5736.329
 701  5848.808
 702  5999.569
 703  6157.299
 704  5992.817
 705  6064.544
 706  5899.259
 707  5734.493
 708  5772.47
 709  5790.061
 710  5841.274
 711  5773.827
 712  5672.737
 713  5796.751
 714  5856.022
 715  5943.182
 716  5595.551
 717  5651.612
 718  5778.289
 719  6174.848
 720  6131.73
 721  5976.061
 722  5840.948
 723  5781.218
 724  5846.759
 725  5801.801
 726  5627.632
 727  5554.039
 728  5674.504
 729  5834.888
 730  5879.336
 731  5914.951
 732  5704.928
 733  5538.758
 734  5358.331
 735  5535.064
 736  5624.955
 737  5542.976
 738  5693.345
 739  5864.126
 740  6051.246
 741  6029.439
 742  5738.257
 743  5546.578
 744  5427.962
 745  5570.229
 746  5513.314
 747  5400.501
 748  5246.649
 749  5474.817
 750  5588.956
 751  5738.136
 752  5723.186
 753  5671.198
 754  5730.562
 755  5655.686
 756  5542.805
 757  5420.438
 758  5438.771
 759  5560.071
 760  5734.249
 761  5603.947
 762  5771.275
 763  5782.907
 764  5968.909
 765  5769.007
 766  5651.299
 767  5751.415
 768  5919.042
 769  5910.607
 770  5803.743
 771  5845.461
 772  5824.132
 773  5738.812
 774  5765.702
 775  5588.063
 776  5728.881
 777  5669.319
 778  5805.176
 779  5750.235
 780  5735.134
 781  5885.809
 782  5982.622
 783  5965.735
 784  5810.862
 785  5719.861
 786  5920.223
 787  6056.899
 788  6113.121
 789  5838.38
 790  5666.418
 791  5669.937
 792  5847.874
 793  5696.432
 794  5482.159
 795  5373.843
 796  5382.644
 797  5310.088
 798  5290.215
 799  5293.573
 800  5575.136
 801  5565.938
 802  5530.172
 803  5302.914
 804  5315.189
 805  5518.632
 806  5667.112
 807  5776.046
 808  5855.937
 809  5848.711
 810  5668.229
 811  5416.479
 812  5390.521
 813  5323.422
 814  5398.827
 815  5327.205
 816  5466.875
 817  5536.659
 818  5394.155
 819  5405.633
 820  5415.81
 821  5627.587
 822  5761.008
 823  5756.446
 824  5889.641
 825  5760.778
 826  5604.591
 827  5479.778
 828  5436.014
 829  5586.996
 830  5639.327
 831  5598.95
 832  5435.098
 833  5520.53
 834  5527.022
 835  5681.391
 836  5545.358
 837  5408.966
 838  5310.889
 839  5162.822
 840  5355.441
 841  5508.328
 842  5569.204
 843  5659.317
 844  5675.458
 845  5836.068
 846  5768.752
 847  5640.091
 848  5631.801
 849  5560.138
 850  5631.394
 851  5735.075
 852  5727.766
 853  5723.802
 854  5876.903
 855  5738.103
 856  5637.76
 857  5399.188
 858  5370.183
 859  5307.876
 860  5465.54
 861  5687.431
 862  5834.729
 863  5684.134
 864  5695.379
 865  5787.457
 866  5888.279
 867  5806.012
 868  5907.088
 869  5860.203
 870  5900.595
 871  5448.31
 872  5401.732
 873  5449.867
 874  5757.125
 875  5823.422
 876  5817.679
 877  5736.681
 878  5781.905
 879  5786.342
 880  5709.348
 881  5720.235
 882  5653.891
 883  5673.104
 884  5721.697
 885  5665.816
 886  5728.607
 887  5517.614
 888  5468.991
 889  5515.836
 890  5583.439
 891  5687.534
 892  5546.47
 893  5588.295
 894  5465.406
 895  5608.329
 896  5664.517
 897  5794.692
 898  5886.725
 899  5963.946
 900  6047.75
 901  5803.027
 902  5958.874
 903  5922.814
 904  5734.885
 905  5597.399
 906  5650.126
 907  5869.527
 908  5809.839
 909  5570.334
 910  5560.74
 911  5547.783
 912  5660.812
 913  5839.173
 914  5905.837
 915  5968.731
 916  5912.089
 917  5867.975
 918  5850.928
 919  5874.94
 920  5744.772
 921  5654.295
 922  5529.589
 923  5554.09
 924  5711.823
 925  5674.445
 926  5788.319
 927  5873.91
 928  5833.282
 929  5830.099
 930  5906.939
 931  6149.847
 932  6185.288
 933  5853.274
 934  5761.731
 935  5768.343
 936  5890.244
 937  5831.128
 938  5931.593
 939  5975.418
 940  6034.623
 941  5923.486
 942  5831.972
 943  5864.785
 944  6002.228
 945  6015.545
 946  5893.411
 947  5615.033
 948  5720.083
 949  5718.187
 950  5769.793
 951  5707.924
 952  5644.283
 953  5739.317
 954  5667.113
 955  5607.748
 956  5635.814
 957  5710.704
 958  5804.097
 959  5864.576
 960  5912.928
 961  6080.262
 962  6133.565
 963  6205.275
 964  6161.731
 965  6063.26
 966  5805.107
 967  5827.037
 968  5885.603
 969  6010.55
 970  5811.528
 971  5620.482
 972  5612.172
 973  5700.9
 974  5711.035
 975  5724.264
 976  5799.318
 977  5968.611
 978  6069.823
 979  6095.248
 980  6007.286
 981  5804.676
 982  5785.282
 983  5771.309
 984  5766.341
 985  5724.982
 986  5713.751
 987  5766.542
 988  5884.833
 989  6127.125
 990  6095.945
 991  5974.82
 992  5844.497
 993  5884.415
 994  5968.413
 995  5752.14
 996  5797.245
 997  5791.93
 998  5882.467
 999  5865.651
1000  5703.972
1001  5682.424
1002  5690.322
1003  5843.432
1004  5941.847
1005  5855.945
1006  5713.074
1007  5721.548
1008  5982.703
1009  6273.698
1010  6601.184
1011  6389.414
1012  6381.112
1013  6266.92
1014  6352.981
1015  6508.41
1016  6238.16
1017  6083.395
1018  5846.539
1019  5573.088
1020  5511.297
1021  5437.712
1022  5647.408
1023  5868.37
