# Input file       =  1200255831.105539_cleaned.dat
# Candidate        =  PSR_0332+5434
# Telescope        =  AR
# Epoch_topo       =  58135.850116962261
# Epoch_bary       =  N/A
# T_sample         =  0.002
# Data Folded      =  7340032
# Data Avg         =  0.0677748091703895
# Data StdDev      =  3.69063940908687 
# Profile Bins     =  512
# Profile Avg      =  971.515871625115 
# Profile StdDev   =  441.891462621725 
# Reduced chi-sqr  =  0.801
# Prob(Noise)      <  1   (~0.0 sigma)
# P_topo (ms)      =  714.568802867453  +/- 0.000391
# P'_topo (s/s)    =  -0                +/- 2.06e-10
# P''_topo (s/s^2) =  0                 +/- 9.1e-14
# P_bary (ms)      =  N/A
# P'_bary (s/s)    =  N/A
# P''_bary (s/s^2) =  N/A
# P_orb (s)        =  N/A
# asin(i)/c (s)    =  N/A
# eccentricity     =  N/A
# w (rad)          =  N/A
# T_peri           =  N/A
######################################################
   0  1041.482
   1  1199.037
   2  1396.727
   3  1184.368
   4  1152.589
   5  1271.355
   6  948.2884
   7  1340.736
   8  1459.886
   9  1163
  10  918.04
  11  1059.449
  12  1011.619
  13  678.3328
  14  707.55
  15  1136.147
  16  1241.962
  17  730.9308
  18  767.1328
  19  1221.042
  20  1373.614
  21  994.2883
  22  1327.03
  23  1305.063
  24  1201.897
  25  1513.093
  26  1033.766
  27  580.6711
  28  913.1127
  29  1224.514
  30  1051.893
  31  1127.503
  32  924.5831
  33  982.9888
  34  709.0953
  35  569.0225
  36  1021.243
  37  1226.186
  38  1048.627
  39  714.0662
  40  1094.262
  41  1308.16
  42  901.082
  43  1119.708
  44  1044.623
  45  1165.46
  46  1175.741
  47  1082.724
  48  1199.448
  49  1006.606
  50  1236.576
  51  780.374
  52  668.6405
  53  696.1738
  54  622.2863
  55  843.7116
  56  930.001
  57  559.5665
  58  1032.085
  59  1297.045
  60  945.8342
  61  624.1425
  62  789.2349
  63  993.1475
  64  835.2208
  65  944.3206
  66  1135.83
  67  1108.405
  68  1149.787
  69  1166.747
  70  957.8788
  71  761.5792
  72  666.6353
  73  803.2251
  74  1131.859
  75  934.2329
  76  805.5698
  77  667.5951
  78  450.1161
  79  848.1861
  80  838.2047
  81  936.6536
  82  934.4661
  83  1030.511
  84  853.04
  85  449.6314
  86  289.9932
  87  447.825
  88  778.3565
  89  1028.306
  90  1101.211
  91  1117.54
  92  1161.457
  93  914.6755
  94  685.3344
  95  431.5362
  96  278.1784
  97  479.1915
  98  1005.024
  99  1180.697
 100  1026.79
 101  1176.73
 102  909.5246
 103  648.7031
 104  840.6528
 105  999.5472
 106  1122.916
 107  752.4592
 108  631.0015
 109  981.4463
 110  847.7462
 111  529.889
 112  699.3992
 113  732.9621
 114  819.8304
 115  801.6073
 116  986.9801
 117  806.8447
 118  824.4106
 119  975.9267
 120  961.9604
 121  683.9525
 122  1020.944
 123  966.2667
 124  691.1293
 125  776.6812
 126  657.6805
 127  799.0236
 128  846.7632
 129  1111.064
 130  906.1453
 131  739.5819
 132  870.5216
 133  1017.256
 134  816.0009
 135  664.6201
 136  594.3156
 137  701.2572
 138  1072.262
 139  889.7494
 140  969.6031
 141  1022.578
 142  1393.696
 143  1161.353
 144  957.9785
 145  957.107
 146  685.0187
 147  550.5686
 148  944.1475
 149  970.8802
 150  966.3694
 151  868.203
 152  1189.121
 153  1076.04
 154  1108.957
 155  1384.273
 156  1319.736
 157  903.8974
 158  1178.672
 159  1355.617
 160  1079.74
 161  1127.541
 162  1162.389
 163  1242.854
 164  1035.022
 165  944.7512
 166  732.8745
 167  522.0631
 168  365.4907
 169  528.8113
 170  621.0287
 171  588.278
 172  838.5782
 173  841.1367
 174  584.7632
 175  808.7252
 176  1024.565
 177  1046.968
 178  1125.083
 179  1142.477
 180  1013.18
 181  605.3232
 182  534.6844
 183  618.0229
 184  859.4013
 185  639.8967
 186  691.8612
 187  994.2868
 188  892.6804
 189  631.2086
 190  784.6986
 191  764.5888
 192  833.5217
 193  793.0865
 194  817.4741
 195  757.1684
 196  965.968
 197  762.3906
 198  772.7778
 199  805.5342
 200  1009.698
 201  644.8893
 202  546.6844
 203  846.8212
 204  952.5709
 205  637.8438
 206  556.6688
 207  736.946
 208  872.5116
 209  665.0706
 210  696.3139
 211  578.152
 212  1195.043
 213  1083.987
 214  1440.186
 215  1110.572
 216  766.4456
 217  775.5159
 218  889.5496
 219  1162.797
 220  884.9601
 221  843.6183
 222  1051.339
 223  1099.155
 224  901.0629
 225  698.3306
 226  1057.456
 227  1029.81
 228  907.291
 229  1209.784
 230  1044.037
 231  755.0219
 232  429.6237
 233  433.1535
 234  370.3484
 235  214.5627
 236  717.1987
 237  717.3165
 238  880.472
 239  753.0809
 240  776.1442
 241  797.4616
 242  811.0237
 243  949.5723
 244  950.5877
 245  1117.527
 246  1210.935
 247  1189.189
 248  1263.973
 249  935.6098
 250  921.312
 251  760.5035
 252  688.3051
 253  713.4828
 254  862.5212
 255  1158.717
 256  1253.045
 257  830.8231
 258  927.7687
 259  1009.029
 260  965.7671
 261  1160.126
 262  1165.161
 263  964.3956
 264  577.8762
 265  811.7135
 266  1054.437
 267  1173.035
 268  814.2139
 269  839.7873
 270  839.1024
 271  934.7397
 272  769.9903
 273  838.7904
 274  1422.899
 275  1337.659
 276  885.7933
 277  1025.699
 278  862.1309
 279  1084.944
 280  1271.923
 281  1386.278
 282  1172.412
 283  1075.394
 284  1123.785
 285  735.188
 286  874.8071
 287  1114.729
 288  973.2315
 289  1185.107
 290  1038.952
 291  1390.2
 292  1334.346
 293  1097.926
 294  687.9185
 295  945.6688
 296  1069.366
 297  1070.322
 298  1078.512
 299  858.4352
 300  1181.047
 301  1289.974
 302  1521.282
 303  1438.979
 304  1606.526
 305  1353.322
 306  1741.318
 307  2036.687
 308  2894.951
 309  2607.688
 310  1893.906
 311  1423.591
 312  1464.507
 313  1507.923
 314  1011.881
 315  1227.849
 316  1214.2
 317  1050.373
 318  959.6996
 319  780.1158
 320  1329.846
 321  1321.724
 322  1514.016
 323  1667.833
 324  1185.459
 325  1308.812
 326  1282.255
 327  896.5634
 328  1009.662
 329  969.6558
 330  972.741
 331  891.362
 332  937.5831
 333  730.4938
 334  772.4696
 335  747.141
 336  1152.512
 337  1475.8
 338  1201.58
 339  800.4048
 340  1233.758
 341  832.3607
 342  747.1504
 343  903.1765
 344  1193.524
 345  1193.576
 346  854.7738
 347  964.2276
 348  879.5632
 349  709.3743
 350  971.909
 351  1064.202
 352  1046.753
 353  707.6829
 354  657.4898
 355  850.3435
 356  1031.796
 357  1088.963
 358  1306.795
 359  1568.677
 360  1327.978
 361  1056.521
 362  817.1254
 363  836.4103
 364  790.7162
 365  838.7042
 366  1008.862
 367  916.0474
 368  1010.045
 369  1159.19
 370  1246.559
 371  826.9166
 372  526.5203
 373  794.0556
 374  894.6978
 375  898.6938
 376  1022.905
 377  1301.841
 378  1383.795
 379  853.7128
 380  565.4078
 381  600.0195
 382  723.8024
 383  868.2484
 384  842.2596
 385  881.0512
 386  723.3318
 387  619.1736
 388  695.5397
 389  706.6316
 390  488.6418
 391  976.3799
 392  1392.346
 393  1133.047
 394  961.9684
 395  695.5922
 396  713.1171
 397  635.1519
 398  992.2722
 399  1053.939
 400  669.1484
 401  901.6522
 402  1057.842
 403  1062.552
 404  726.5222
 405  586.4081
 406  916.6955
 407  976.9359
 408  844.1567
 409  945.0952
 410  1044.371
 411  821.9313
 412  937.67
 413  894.4979
 414  547.6592
 415  486.8102
 416  815.9808
 417  729.7683
 418  611.7464
 419  612.0082
 420  792.3911
 421  694.191
 422  718.3885
 423  726.8297
 424  866.6053
 425  850.2644
 426  732.505
 427  1110.607
 428  1292.5
 429  622.9194
 430  718.9089
 431  1016.833
 432  979.703
 433  1406.958
 434  1543.388
 435  1363.892
 436  1071.097
 437  832.6362
 438  1173.526
 439  670.9071
 440  579.3203
 441  992.8619
 442  1030.535
 443  1130.207
 444  919.6337
 445  1003.53
 446  1280.354
 447  1488.908
 448  1353.124
 449  1360.789
 450  1070.808
 451  1085.449
 452  1401.983
 453  989.0156
 454  781.5588
 455  935.9017
 456  1034.899
 457  927.0527
 458  1284.107
 459  1391.606
 460  1215.343
 461  1184.976
 462  1020.284
 463  1501.844
 464  948.6606
 465  922.0657
 466  1224.031
 467  948.9983
 468  595.8976
 469  527.893
 470  716.2465
 471  545.8911
 472  642.5146
 473  659.2681
 474  1184.592
 475  1131.483
 476  1048.418
 477  1003.996
 478  1220.488
 479  1382.167
 480  1389.786
 481  1458.325
 482  830.3842
 483  598.972
 484  1322.893
 485  1893.409
 486  1298.928
 487  1237.768
 488  1325.19
 489  1192.765
 490  914.6035
 491  993.3817
 492  1133.256
 493  1387.182
 494  997.2937
 495  1213.552
 496  1219.293
 497  1244.609
 498  1443.755
 499  1294.429
 500  1151.436
 501  1169.533
 502  825.3856
 503  765.4459
 504  800.2742
 505  885.8642
 506  993.0582
 507  764.1382
 508  945.5045
 509  1037.398
 510  808.616
 511  908.4303
