# Input file       =  1200600452.101729_cleaned.dat
# Candidate        =  PSR_0332+5434
# Telescope        =  AR
# Epoch_topo       =  58139.838785899643
# Epoch_bary       =  N/A
# T_sample         =  0.002
# Data Folded      =  7340032
# Data Avg         =  0.0955435072501995
# Data StdDev      =  1.00030698990112 
# Profile Bins     =  512
# Profile Avg      =  1369.65018069751 
# Profile StdDev   =  119.769793209764 
# Reduced chi-sqr  =  0.854
# Prob(Noise)      <  0.993   (~0.0 sigma)
# P_topo (ms)      =  714.571232182148  +/- 6.15e-05
# P'_topo (s/s)    =  -0                +/- 3.25e-11
# P''_topo (s/s^2) =  0                 +/- 1.43e-14
# P_bary (ms)      =  N/A
# P'_bary (s/s)    =  N/A
# P''_bary (s/s^2) =  N/A
# P_orb (s)        =  N/A
# asin(i)/c (s)    =  N/A
# eccentricity     =  N/A
# w (rad)          =  N/A
# T_peri           =  N/A
######################################################
   0  1241.723
   1  1225.984
   2  1237.849
   3  1389.01
   4  1506.008
   5  1431.653
   6  1260.096
   7  1319.898
   8  1438.416
   9  1407.972
  10  1412.007
  11  1428.797
  12  1430.252
  13  1271.083
  14  1343.245
  15  1383.662
  16  1260.934
  17  1372.787
  18  1342.988
  19  1257.081
  20  1331.694
  21  1417.491
  22  1457.795
  23  1413.752
  24  1359.028
  25  1325.246
  26  1276.355
  27  1326.198
  28  1294.53
  29  1255.137
  30  1372.892
  31  1380.784
  32  1456.53
  33  1365.247
  34  1309.548
  35  1310.268
  36  1308.373
  37  1220.191
  38  1271.144
  39  1264.26
  40  1363.248
  41  1314.618
  42  1232.25
  43  1350.106
  44  1435.323
  45  1384.664
  46  1354.658
  47  1330.182
  48  1251.578
  49  1230.442
  50  1271.778
  51  1299.867
  52  1287.252
  53  1244.912
  54  1302.278
  55  1218.468
  56  1267.777
  57  1390.034
  58  1465.232
  59  1484.022
  60  1352.472
  61  1335.37
  62  1305.148
  63  1315.03
  64  1354.03
  65  1509.521
  66  1571.187
  67  1564.026
  68  1577.601
  69  1660.734
  70  1706.387
  71  1649.344
  72  1596.342
  73  1457.435
  74  1394.936
  75  1387.943
  76  1283.554
  77  1353.457
  78  1382.153
  79  1353.337
  80  1403.705
  81  1404.639
  82  1316.747
  83  1258.499
  84  1333.237
  85  1358.991
  86  1373.502
  87  1341.381
  88  1315.272
  89  1319.027
  90  1296.72
  91  1290.388
  92  1373.605
  93  1486.686
  94  1544.107
  95  1451.059
  96  1402.636
  97  1451.418
  98  1466.155
  99  1416.613
 100  1503.898
 101  1476.818
 102  1382.579
 103  1506.551
 104  1590.139
 105  1532.015
 106  1553.651
 107  1464.05
 108  1415.738
 109  1419.08
 110  1377.091
 111  1322.289
 112  1319.154
 113  1273.433
 114  1320.434
 115  1324.898
 116  1312.197
 117  1312.632
 118  1325.644
 119  1305.421
 120  1421.259
 121  1416.785
 122  1403.145
 123  1420.807
 124  1369.132
 125  1532.121
 126  1424.713
 127  1404.454
 128  1319.271
 129  1277.543
 130  1280.889
 131  1352.216
 132  1356.821
 133  1320.444
 134  1378.759
 135  1379.732
 136  1340.606
 137  1361.39
 138  1349.987
 139  1383.13
 140  1354.892
 141  1301.445
 142  1342.645
 143  1435.445
 144  1415.141
 145  1396.682
 146  1270.021
 147  1224.681
 148  1251.714
 149  1304.867
 150  1346.642
 151  1303.307
 152  1276.511
 153  1360.957
 154  1387.469
 155  1318.759
 156  1329
 157  1287.739
 158  1230.672
 159  1336.247
 160  1460.841
 161  1410.788
 162  1299.158
 163  1401.043
 164  1511.974
 165  1507.554
 166  1469.837
 167  1367.758
 168  1416.15
 169  1400.381
 170  1425.721
 171  1521.917
 172  1545.947
 173  1452.762
 174  1437.066
 175  1455.989
 176  1437.696
 177  1411.285
 178  1407.547
 179  1374.392
 180  1327.41
 181  1335.146
 182  1400.406
 183  1451.668
 184  1389.041
 185  1322.227
 186  1296.417
 187  1382.221
 188  1328.467
 189  1464.805
 190  1527.309
 191  1382.783
 192  1281.436
 193  1445.818
 194  1344.446
 195  1222.019
 196  1286.88
 197  1400.368
 198  1211.86
 199  1230.593
 200  1306.504
 201  1297.343
 202  1416.994
 203  1420.597
 204  1404.072
 205  1425.82
 206  1378.115
 207  1303.507
 208  1369.119
 209  1335.475
 210  1407.023
 211  1421.41
 212  1362.136
 213  1394.845
 214  1388.249
 215  1434.139
 216  1319.757
 217  1214.272
 218  1418.976
 219  1580.817
 220  1430.051
 221  1351.902
 222  1381.835
 223  1301.187
 224  1449.247
 225  1367.225
 226  1441.305
 227  1417.437
 228  1361.929
 229  1354.248
 230  1320.039
 231  1291.638
 232  1333.839
 233  1455.374
 234  1380.992
 235  1354.906
 236  1304.05
 237  1417.22
 238  1330.519
 239  1305.622
 240  1379.033
 241  1315.462
 242  1320.604
 243  1405.606
 244  1373
 245  1290.791
 246  1273.216
 247  1425.219
 248  1396.253
 249  1406.559
 250  1418.737
 251  1347.703
 252  1415.829
 253  1374.566
 254  1276.876
 255  1238.851
 256  1359.284
 257  1250.033
 258  1279.273
 259  1315.217
 260  1325.542
 261  1350.672
 262  1379.614
 263  1371.928
 264  1337.177
 265  1262.277
 266  1222.941
 267  1267.209
 268  1366.162
 269  1395.589
 270  1325.547
 271  1275.003
 272  1201.837
 273  1262.64
 274  1232.27
 275  1336.319
 276  1427.022
 277  1283.896
 278  1268.33
 279  1337.334
 280  1271.774
 281  1258.938
 282  1350.107
 283  1408.544
 284  1300.771
 285  1278.54
 286  1337.24
 287  1301.438
 288  1337.494
 289  1250.826
 290  1244.822
 291  1363.115
 292  1254.32
 293  1245.358
 294  1314.62
 295  1402.906
 296  1234.43
 297  1324.186
 298  1420.104
 299  1257.956
 300  1309.618
 301  1432.157
 302  1289.327
 303  1303.316
 304  1421.867
 305  1398.228
 306  1260.2
 307  1318.133
 308  1418.743
 309  1360.582
 310  1353.323
 311  1402.294
 312  1423.43
 313  1331.468
 314  1289.637
 315  1373.005
 316  1325.399
 317  1244.974
 318  1406.955
 319  1555.462
 320  1357.457
 321  1356.889
 322  1499.63
 323  1431.705
 324  1292.915
 325  1369.262
 326  1362.733
 327  1344.155
 328  1417.549
 329  1352.374
 330  1404.769
 331  1470.764
 332  1463.628
 333  1486.315
 334  1380.515
 335  1346.028
 336  1369.61
 337  1446.028
 338  1423.192
 339  1355.174
 340  1449.009
 341  1435.702
 342  1319.347
 343  1338.357
 344  1452.455
 345  1382.775
 346  1360.384
 347  1468.704
 348  1478.272
 349  1415.572
 350  1475.162
 351  1412.917
 352  1396.753
 353  1316.64
 354  1400.266
 355  1376.771
 356  1314.166
 357  1376.429
 358  1411.53
 359  1440.438
 360  1394.153
 361  1345.388
 362  1315.127
 363  1282.941
 364  1263.635
 365  1290.704
 366  1400.055
 367  1421.815
 368  1463.955
 369  1465.92
 370  1369.93
 371  1417.538
 372  1514.983
 373  1508.442
 374  1487.399
 375  1388.906
 376  1407.724
 377  1325.278
 378  1396.309
 379  1456.828
 380  1477.114
 381  1369.851
 382  1377.054
 383  1350.954
 384  1292.373
 385  1303.416
 386  1285.958
 387  1398.672
 388  1428.709
 389  1447.128
 390  1488.343
 391  1491.796
 392  1482.368
 393  1454.894
 394  1485.359
 395  1460.054
 396  1455.957
 397  1351.188
 398  1426.906
 399  1299.157
 400  1264.936
 401  1331.003
 402  1345.113
 403  1390.669
 404  1400.284
 405  1374.024
 406  1381.519
 407  1476.867
 408  1477.874
 409  1435.476
 410  1381.098
 411  1332.995
 412  1464.518
 413  1506.307
 414  1512.204
 415  1544.609
 416  1385.019
 417  1418.181
 418  1415.671
 419  1486.582
 420  1484.685
 421  1477.013
 422  1446.564
 423  1473.31
 424  1349.476
 425  1324.807
 426  1405.87
 427  1410.929
 428  1384.282
 429  1401.407
 430  1387.389
 431  1289.281
 432  1374.766
 433  1494.349
 434  1403.052
 435  1393.912
 436  1371.914
 437  1370.688
 438  1312.688
 439  1333.225
 440  1268.007
 441  1134.699
 442  1210.236
 443  1334.793
 444  1395.305
 445  1308.744
 446  1360.758
 447  1520.679
 448  1436.22
 449  1296.615
 450  1288.085
 451  1384.043
 452  1344.372
 453  1315.708
 454  1402.803
 455  1429.157
 456  1335.527
 457  1355.918
 458  1403.331
 459  1426.181
 460  1407.08
 461  1329.334
 462  1347.234
 463  1324.319
 464  1270.569
 465  1341.773
 466  1386.969
 467  1401.601
 468  1483.865
 469  1398.485
 470  1256.647
 471  1324.475
 472  1384.769
 473  1456.917
 474  1370.068
 475  1431.363
 476  1457.643
 477  1411.005
 478  1299.35
 479  1250.372
 480  1436.946
 481  1393.116
 482  1362.38
 483  1318.178
 484  1273.969
 485  1316.361
 486  1364.094
 487  1428.395
 488  1332.138
 489  1311.643
 490  1349.181
 491  1316.872
 492  1317.463
 493  1250.36
 494  1310.316
 495  1516.152
 496  1431.846
 497  1318.496
 498  1176.456
 499  1286.892
 500  1315.045
 501  1432.815
 502  1372.596
 503  1298.86
 504  1319.211
 505  1359.642
 506  1284.196
 507  1277.445
 508  1336.335
 509  1336.22
 510  1266.292
 511  1314.16
