# Input file       =  1200757855.109703_cleaned.dat
# Candidate        =  PSR_0332+5434
# Telescope        =  AR
# Epoch_topo       =  58141.660579973417
# Epoch_bary       =  N/A
# T_sample         =  0.002
# Data Folded      =  7340032
# Data Avg         =  0.272708692338451
# Data StdDev      =  4.61267415281823 
# Profile Bins     =  256
# Profile Avg      =  7819.12593470549 
# Profile StdDev   =  781.055275989286 
# Reduced chi-sqr  =  0.940
# Prob(Noise)      <  0.745   (~0.0 sigma)
# P_topo (ms)      =  714.571919744673  +/- 0.000248
# P'_topo (s/s)    =  -0                +/- 1.31e-10
# P''_topo (s/s^2) =  0                 +/- 5.78e-14
# P_bary (ms)      =  N/A
# P'_bary (s/s)    =  N/A
# P''_bary (s/s^2) =  N/A
# P_orb (s)        =  N/A
# asin(i)/c (s)    =  N/A
# eccentricity     =  N/A
# w (rad)          =  N/A
# T_peri           =  N/A
######################################################
   0  8178.622
   1  8008.653
   2  7778.421
   3  7398.992
   4  8030.667
   5  8694.069
   6  8820.851
   7  7619.544
   8  7149.7
   9  7098.69
  10  6668.102
  11  7516.818
  12  7247.002
  13  7597.037
  14  7072.357
  15  7489.314
  16  7214.746
  17  7659.639
  18  7593.928
  19  7215.902
  20  7337.251
  21  7604.084
  22  7319.776
  23  8590.428
  24  8577.408
  25  8268.6
  26  8698.403
  27  8907.735
  28  8566.977
  29  8228.928
  30  7063.708
  31  7451.001
  32  7657.184
  33  8642.817
  34  7883.44
  35  8246.578
  36  9024.66
  37  9055.987
  38  8667.154
  39  8729.686
  40  8949.479
  41  7900.52
  42  9241.964
  43  7749.348
  44  7650.023
  45  8436.863
  46  8790.748
  47  8555.992
  48  7691.801
  49  8272.561
  50  7928.135
  51  7988.238
  52  8288.417
  53  7273.967
  54  8532.662
  55  8303.492
  56  8304.361
  57  7758.187
  58  7121.498
  59  7950.564
  60  9011.626
  61  8434.188
  62  7974.292
  63  7966.683
  64  7389.308
  65  7116.73
  66  7141.117
  67  7092.344
  68  7573.146
  69  7524.018
  70  6972.757
  71  7090.329
  72  7629.879
  73  7899.699
  74  7962.121
  75  8064.104
  76  9305.96
  77  8686.15
  78  8023.698
  79  8292.315
  80  7737.412
  81  8128.511
  82  7144.642
  83  7231.628
  84  7573.909
  85  7149.676
  86  7744.206
  87  7315.664
  88  7373.801
  89  8060.024
  90  8870.486
  91  7546.686
  92  7849.722
  93  8573.569
  94  7833.041
  95  7223.449
  96  7323.745
  97  7988.061
  98  7684.23
  99  8382.44
 100  8180.643
 101  7780.453
 102  7301.091
 103  8036.495
 104  8852.015
 105  8317.71
 106  7434.766
 107  7766.999
 108  7515.377
 109  6823.277
 110  6725.997
 111  7130.815
 112  6776.584
 113  7353.806
 114  6548.392
 115  6464.784
 116  6905.492
 117  7163.465
 118  7244.085
 119  6646.486
 120  7217.852
 121  7114.76
 122  7570.442
 123  7004.804
 124  7906.111
 125  7474.516
 126  7751.572
 127  7894.675
 128  7287.981
 129  8100.792
 130  7587.514
 131  8475.547
 132  7380.655
 133  8145.694
 134  7322.638
 135  7108.001
 136  7211.34
 137  7962.666
 138  8807.848
 139  7126.646
 140  8221.335
 141  8032.765
 142  8002.153
 143  7504.671
 144  7820.446
 145  7898.408
 146  6994.944
 147  7460.119
 148  7115.086
 149  6711.292
 150  7441.454
 151  7615.886
 152  8115.607
 153  10136.67
 154  10499.66
 155  9168.758
 156  8387.728
 157  8009.861
 158  7943.4
 159  8350.522
 160  8728.995
 161  8679.257
 162  7731.446
 163  7314.811
 164  7298.121
 165  6939.635
 166  7091.782
 167  7665.371
 168  7788.231
 169  8144.514
 170  7782.102
 171  7766.154
 172  7310.862
 173  7201.045
 174  7571.734
 175  8305.197
 176  8045.682
 177  7993.143
 178  8072.881
 179  8403.417
 180  8749.174
 181  7078.519
 182  8082.768
 183  8758.869
 184  7522.384
 185  7408.077
 186  6832.61
 187  7545.729
 188  7906.646
 189  8305.131
 190  8780.667
 191  8240.806
 192  8698.781
 193  7689.242
 194  7541.133
 195  7323.479
 196  8019.552
 197  7722.931
 198  7206.83
 199  7239.985
 200  7709.603
 201  7626.169
 202  7613.039
 203  7873.258
 204  8028.425
 205  6752.941
 206  6903.309
 207  7637.392
 208  7205.547
 209  7407.131
 210  8142.324
 211  8118.569
 212  8040.753
 213  7400.904
 214  8285.88
 215  8533.565
 216  8088.709
 217  8060.376
 218  7736.655
 219  7780.568
 220  7026.893
 221  7977.188
 222  7169.73
 223  7125.664
 224  7221.27
 225  7329.513
 226  8074.209
 227  7048.158
 228  7685.824
 229  7168.82
 230  7845.915
 231  7674.785
 232  7598.783
 233  7584.407
 234  7029.341
 235  7268.787
 236  6604.027
 237  7305.597
 238  7883.984
 239  7495.484
 240  7475.406
 241  7235.74
 242  7220.938
 243  7556.718
 244  8276.696
 245  9407.173
 246  9847.212
 247  8730.141
 248  7631.821
 249  8447.188
 250  8393.927
 251  8802.326
 252  8134.672
 253  9292.07
 254  9005.378
 255  8687.038
