# Input file       =  1200656871.114483_cleaned.dat
# Candidate        =  PSR_0332+5434
# Telescope        =  AR
# Epoch_topo       =  58140.491783732446
# Epoch_bary       =  N/A
# T_sample         =  0.002
# Data Folded      =  7274496
# Data Avg         =  0.0927242997295421
# Data StdDev      =  3.37534484809386 
# Profile Bins     =  512
# Profile Avg      =  1317.65711255111 
# Profile StdDev   =  402.332044462297 
# Reduced chi-sqr  =  1.296
# Prob(Noise)      <  6.94e-06   (~4.3 sigma)
# P_topo (ms)      =  714.571257727333  +/- 2.81e-05
# P'_topo (s/s)    =  -0                +/- 1.49e-11
# P''_topo (s/s^2) =  0                 +/- 6.65e-15
# P_bary (ms)      =  N/A
# P'_bary (s/s)    =  N/A
# P''_bary (s/s^2) =  N/A
# P_orb (s)        =  N/A
# asin(i)/c (s)    =  N/A
# eccentricity     =  N/A
# w (rad)          =  N/A
# T_peri           =  N/A
######################################################
   0  1475.245
   1  1461.993
   2  1268.309
   3  1398.442
   4  1587.459
   5  1641.876
   6  1413.818
   7  1373.754
   8  1433.865
   9  1185.454
  10  983.4395
  11  854.3384
  12  1234.658
  13  1670.702
  14  1987.253
  15  1542.111
  16  1167.838
  17  1013.331
  18  868.9145
  19  884.1443
  20  1167.509
  21  1371.72
  22  1492.346
  23  1432.693
  24  1345.557
  25  965.286
  26  938.5549
  27  1213.163
  28  1417.048
  29  1542.533
  30  1542.547
  31  1802.032
  32  1539.827
  33  1235.642
  34  1009.018
  35  1197.661
  36  1483.755
  37  1377.281
  38  1338.463
  39  1774.569
  40  1529.568
  41  794.093
  42  845.7885
  43  1230.964
  44  1482.817
  45  1269.564
  46  1641.282
  47  1576.207
  48  1075.844
  49  867.5908
  50  742.8008
  51  899.9347
  52  1387.411
  53  1875.294
  54  2364.714
  55  2969.092
  56  3106.539
  57  2767.888
  58  2250.907
  59  1899.835
  60  1266.081
  61  1084.869
  62  1546.791
  63  1750.724
  64  1682.142
  65  1376.412
  66  1301.837
  67  1479.451
  68  1392.031
  69  1438.312
  70  1851.251
  71  1926.072
  72  1581.202
  73  1237.941
  74  798.4105
  75  986.1345
  76  1106.729
  77  1038.675
  78  1238.229
  79  1133.393
  80  1315.567
  81  1207.084
  82  700.0426
  83  611.4556
  84  891.0619
  85  1236.362
  86  1245.8
  87  1252.49
  88  1647.599
  89  1479.298
  90  916.8226
  91  1194.269
  92  1367.474
  93  855.4346
  94  761.9792
  95  1461.383
  96  1745.244
  97  1721.369
  98  1573.118
  99  1209.226
 100  867.8877
 101  810.7978
 102  1226.33
 103  1220.158
 104  1259.05
 105  1592.436
 106  1634.484
 107  1411.992
 108  1080.262
 109  1212.894
 110  1073.61
 111  1555.228
 112  1776.978
 113  1612.226
 114  1519.264
 115  1335.576
 116  1292.18
 117  1163.489
 118  1282.519
 119  1191.012
 120  1140.895
 121  1317.775
 122  1365.912
 123  1024.033
 124  895.385
 125  1218.424
 126  1347.1
 127  1388.317
 128  1727.448
 129  1680.896
 130  1642.592
 131  1119.668
 132  993.9586
 133  1207.273
 134  1361.742
 135  1410.865
 136  1474.53
 137  1573.123
 138  1959.729
 139  1769.038
 140  1191.234
 141  1303.587
 142  1290.26
 143  1563.013
 144  1742.995
 145  1707.077
 146  1641.236
 147  1463.972
 148  1043.704
 149  1059.59
 150  1421.533
 151  1622.247
 152  1476.884
 153  1627.438
 154  1455.452
 155  1421.803
 156  1120.492
 157  858.188
 158  747.5619
 159  905.2479
 160  1290.352
 161  1318.288
 162  1497.186
 163  1890.43
 164  1393.994
 165  913.8046
 166  752.5705
 167  668.9984
 168  1035.295
 169  1533.775
 170  1744.406
 171  1577.726
 172  1584.406
 173  1218.241
 174  889.1916
 175  723.0844
 176  1229.815
 177  1548.356
 178  1600.931
 179  1625.057
 180  1722.15
 181  1421.063
 182  951.0512
 183  694.1898
 184  943.9758
 185  1014.169
 186  1072.954
 187  1647.249
 188  1574.051
 189  1420.432
 190  910.1913
 191  984.7114
 192  1195.759
 193  1218.734
 194  1407.753
 195  1555.205
 196  1559.744
 197  1346.514
 198  1077.761
 199  1049.734
 200  1133.173
 201  1316.324
 202  1319.566
 203  1340.49
 204  1451.25
 205  1535.308
 206  1271.721
 207  1049.867
 208  1219.689
 209  1513.944
 210  1403.106
 211  1663.623
 212  1762.291
 213  1986.215
 214  1608.761
 215  971.2137
 216  1110.733
 217  1696.68
 218  1668.377
 219  1481.112
 220  1619.589
 221  1450.713
 222  1143.654
 223  1199.563
 224  1226.85
 225  1084.055
 226  1434.048
 227  1504.252
 228  1556.951
 229  1545.286
 230  1282.974
 231  907.9255
 232  956.3748
 233  1094.511
 234  1216.968
 235  1812.718
 236  1734.373
 237  1655.59
 238  1587.501
 239  1447.395
 240  1210.17
 241  1370.055
 242  1670.807
 243  1530.712
 244  1555.363
 245  1803.877
 246  1985.734
 247  1452.994
 248  1201.097
 249  1253.354
 250  1221.889
 251  1033.022
 252  1493.471
 253  1702.408
 254  1637.741
 255  1453.718
 256  1099.832
 257  1098
 258  1338.972
 259  942.1398
 260  1206.502
 261  1597.209
 262  1549.571
 263  1210.428
 264  728.7612
 265  848.9607
 266  1010.658
 267  814.2367
 268  1196.656
 269  1186.069
 270  1423.363
 271  1426.811
 272  981.6907
 273  1037.557
 274  1047.313
 275  975.0956
 276  1437.546
 277  1440.459
 278  1752.887
 279  1596.799
 280  1119.376
 281  1102.138
 282  1070.128
 283  1487.864
 284  1166.015
 285  1210.901
 286  1332.89
 287  1716.293
 288  1421.184
 289  1239.82
 290  1657.461
 291  1541.793
 292  1222.188
 293  1502.813
 294  1905.706
 295  2090.778
 296  1812.951
 297  1400.45
 298  1337.631
 299  1483.293
 300  1781.886
 301  1288.53
 302  1485.807
 303  1518.554
 304  1449.263
 305  1001.277
 306  939.9497
 307  883.2508
 308  1135.498
 309  1487.517
 310  1920.321
 311  1742.445
 312  1666.732
 313  1652.303
 314  1027.945
 315  969.6569
 316  817.4475
 317  1059.232
 318  1393.956
 319  1498.141
 320  1613.565
 321  1524.702
 322  853.7551
 323  1015.796
 324  773.1805
 325  901.4128
 326  1122.313
 327  1367.137
 328  1283.452
 329  1343.202
 330  1163.466
 331  1035.094
 332  1082.085
 333  1033.583
 334  1036.945
 335  1716.326
 336  1570.632
 337  1459.562
 338  1273.975
 339  907.3345
 340  1111.174
 341  1289.554
 342  1317.65
 343  1500.935
 344  1670.55
 345  1866.979
 346  1601.337
 347  1359.987
 348  1283.953
 349  998.0811
 350  924.6755
 351  1103.753
 352  1562.527
 353  1749.027
 354  1451.891
 355  1026.592
 356  1083.217
 357  958.3139
 358  1078.203
 359  1178.893
 360  1386.26
 361  1460.112
 362  1336.666
 363  1141.55
 364  1280.703
 365  1460.726
 366  1043.423
 367  772.0563
 368  1106.209
 369  1395.54
 370  1455.409
 371  1080.878
 372  932.0061
 373  737.1459
 374  693.6072
 375  998.6596
 376  1516.808
 377  1610.152
 378  1493.461
 379  1190.889
 380  789.2161
 381  857.1445
 382  877.0204
 383  1099.806
 384  1223.047
 385  1326.853
 386  1582.995
 387  1510.842
 388  880.066
 389  696.403
 390  809.2706
 391  1051.296
 392  1232.932
 393  1444.028
 394  1799.583
 395  1427.236
 396  1276.513
 397  1186.777
 398  981.8765
 399  516.8492
 400  559.5403
 401  959.6943
 402  1660.224
 403  1505.378
 404  881.652
 405  857.1766
 406  909.379
 407  1057.156
 408  995.531
 409  1341.552
 410  1497.192
 411  1154.528
 412  1069.896
 413  1280.63
 414  1019.149
 415  913.7285
 416  1229.728
 417  1608.191
 418  1939.477
 419  1935.99
 420  1511.294
 421  1069.664
 422  1077.155
 423  1294.668
 424  1241.453
 425  1616.484
 426  1549.382
 427  1717.476
 428  1720.926
 429  1251.504
 430  1205.267
 431  1375.793
 432  1141.666
 433  1185.385
 434  1273.171
 435  1729.166
 436  1396.92
 437  1376.461
 438  1519.327
 439  1092.806
 440  999.8374
 441  1149.088
 442  1385.07
 443  1491.941
 444  1414.648
 445  1105.248
 446  1205.009
 447  1104.151
 448  1203.286
 449  1008.874
 450  1342.315
 451  1811.025
 452  1682.258
 453  1651.596
 454  1061.007
 455  873.7244
 456  956.3445
 457  1402.229
 458  1568.756
 459  1568.716
 460  1839.932
 461  1969.81
 462  1250.242
 463  831.9252
 464  1013.188
 465  854.7152
 466  439.8874
 467  992.9624
 468  1578.463
 469  1681.688
 470  1476.688
 471  1061.417
 472  1175.248
 473  860.3463
 474  1087.333
 475  1617.59
 476  1383.774
 477  1206.046
 478  1150.445
 479  1127.681
 480  1005.006
 481  1027.893
 482  1349.6
 483  1799.294
 484  1780.111
 485  1550.142
 486  1386.568
 487  993.767
 488  1038.796
 489  1068.502
 490  1071.223
 491  1280.603
 492  1480.518
 493  1834.356
 494  1438.497
 495  1115.006
 496  954.3665
 497  869.0278
 498  768.6711
 499  986.0453
 500  1643.609
 501  1603.895
 502  1357.12
 503  1159.802
 504  1370.634
 505  1482.733
 506  965.4871
 507  1298.946
 508  1657.207
 509  1635.957
 510  1836.724
 511  1611.258
