# Input file       =  1200859475.122465_cleaned.dat
# Candidate        =  PSR_0332+5434
# Telescope        =  AR
# Epoch_topo       =  58142.836737528531
# Epoch_bary       =  N/A
# T_sample         =  0.002
# Data Folded      =  7340032
# Data Avg         =  0.0641392741433394
# Data StdDev      =  3.12562125807193 
# Profile Bins     =  512
# Profile Avg      =  919.209863051773 
# Profile StdDev   =  374.24012379272  
# Reduced chi-sqr  =  0.789
# Prob(Noise)      <  1   (~0.0 sigma)
# P_topo (ms)      =  714.572900115806  +/- 0.000217
# P'_topo (s/s)    =  -0                +/- 1.15e-10
# P''_topo (s/s^2) =  0                 +/- 5.06e-14
# P_bary (ms)      =  N/A
# P'_bary (s/s)    =  N/A
# P''_bary (s/s^2) =  N/A
# P_orb (s)        =  N/A
# asin(i)/c (s)    =  N/A
# eccentricity     =  N/A
# w (rad)          =  N/A
# T_peri           =  N/A
######################################################
   0  851.6685
   1  740.1917
   2  960.8848
   3  1083.588
   4  830.1254
   5  869.0462
   6  885.5649
   7  859.3599
   8  700.0729
   9  805.9578
  10  918.2877
  11  863.5939
  12  932.7886
  13  1045.651
  14  1079.937
  15  949.7422
  16  809.9091
  17  1067.299
  18  792.4682
  19  869.4192
  20  892.1221
  21  794.3995
  22  664.7303
  23  588.3799
  24  754.4507
  25  899.59
  26  897.7349
  27  957.7798
  28  757.7604
  29  704.0881
  30  863.8032
  31  566.5538
  32  967.7761
  33  1301.118
  34  1057.719
  35  1049.396
  36  731.834
  37  641.5242
  38  893.9835
  39  641.7606
  40  718.9573
  41  764.8121
  42  974.9402
  43  1047.312
  44  998.6971
  45  881.2186
  46  817.6987
  47  977.5341
  48  846.2115
  49  870.0866
  50  980.3588
  51  1167.564
  52  952.8279
  53  992.3339
  54  973.4169
  55  887.2892
  56  958.4211
  57  1079.802
  58  1064.225
  59  1079.801
  60  995.0284
  61  1006.72
  62  883.1144
  63  902.9452
  64  737.5988
  65  1014.965
  66  1095.308
  67  1083.807
  68  1011.675
  69  1203.138
  70  1054.694
  71  989.2761
  72  910.0564
  73  1044.089
  74  901.9932
  75  1136.672
  76  1037.233
  77  852.1486
  78  863.6105
  79  816.8618
  80  751.0043
  81  800.361
  82  1144.163
  83  1116.496
  84  1008.021
  85  1019.284
  86  1224.56
  87  1444.411
  88  980.1983
  89  692.1136
  90  628.6549
  91  786.8361
  92  690.5064
  93  565.3313
  94  818.5641
  95  1370.695
  96  1229.973
  97  1371.889
  98  1372.767
  99  968.0891
 100  554.9061
 101  745.0707
 102  582.9802
 103  1059.541
 104  926.1019
 105  511.9424
 106  760.2205
 107  638.7394
 108  625.0446
 109  834.3599
 110  948.9105
 111  762.498
 112  730.017
 113  1110.727
 114  1230.023
 115  672.7117
 116  731.9736
 117  500.4619
 118  772.584
 119  996.3398
 120  1135.46
 121  828.8245
 122  592.5823
 123  1011.615
 124  1025.021
 125  1206.031
 126  991.2687
 127  874.2672
 128  641.1974
 129  272.0236
 130  461.4657
 131  465.5635
 132  657.1581
 133  681.0701
 134  690.8007
 135  850.0309
 136  872.2609
 137  952.4582
 138  1057.123
 139  1183.598
 140  681.9722
 141  894.2837
 142  1117.604
 143  857.9449
 144  1131.729
 145  1454.28
 146  1371.814
 147  1058.065
 148  1039.365
 149  1318.171
 150  1286.491
 151  919.397
 152  1116.86
 153  1272.471
 154  1083.138
 155  1062.141
 156  1124.1
 157  1325.932
 158  977.8429
 159  1122.721
 160  1087.27
 161  764.7261
 162  905.6997
 163  1014.615
 164  824.6229
 165  572.0656
 166  568.3195
 167  635.6293
 168  645.9321
 169  846.0911
 170  1064.515
 171  587.5649
 172  808.8976
 173  886.2317
 174  907.4644
 175  981.1099
 176  763.8154
 177  977.8212
 178  818.2288
 179  1071.671
 180  984.2986
 181  1047.128
 182  933.1104
 183  787.2913
 184  994.9806
 185  1240.748
 186  1036.163
 187  1125.674
 188  723.8
 189  875.9576
 190  743.3051
 191  847.6351
 192  1146.268
 193  618.4578
 194  522.1319
 195  739.1872
 196  925.9131
 197  1165.214
 198  830.8388
 199  792.6187
 200  852.0237
 201  1111.937
 202  1303.42
 203  961.8273
 204  942.8085
 205  1094.26
 206  1010.467
 207  597.4969
 208  661.7007
 209  759.4837
 210  864.781
 211  1052.719
 212  1047.358
 213  991.3348
 214  952.5377
 215  623.8771
 216  850.0519
 217  764.1999
 218  1027.767
 219  1207.029
 220  1106.638
 221  1409.119
 222  1092.439
 223  910.1808
 224  881.2255
 225  1260.12
 226  1295.008
 227  840.2076
 228  798.0583
 229  969.8902
 230  951.5989
 231  917.2183
 232  877.5977
 233  935.8911
 234  973.3695
 235  927.504
 236  858.9722
 237  491.4642
 238  684.5402
 239  950.0081
 240  924.056
 241  1112.914
 242  1150.249
 243  916.4774
 244  845.9659
 245  784.4257
 246  822.7167
 247  690.5853
 248  893.5368
 249  895.0627
 250  783.3483
 251  699.6487
 252  391.1512
 253  584.6629
 254  751.5623
 255  823.1594
 256  671.6393
 257  770.5117
 258  1023.661
 259  1096.147
 260  986.1304
 261  699.0364
 262  802.1329
 263  711.4965
 264  490.0096
 265  446.3665
 266  431.1543
 267  855.8585
 268  990.8455
 269  1003.113
 270  707.7662
 271  981.1272
 272  1333.336
 273  722.2898
 274  752.2574
 275  884.4332
 276  790.5609
 277  859.9693
 278  1055.983
 279  1056.934
 280  981.8039
 281  1078.79
 282  1088.166
 283  850.8151
 284  861.2032
 285  783.1842
 286  976.7153
 287  826.6362
 288  1168.29
 289  1108.582
 290  1043.591
 291  1225.309
 292  1262.073
 293  1500.586
 294  1211.219
 295  1020.1
 296  852.0795
 297  1167.881
 298  783.2943
 299  915.836
 300  890.1447
 301  1153.528
 302  1326.951
 303  786.3702
 304  962.9941
 305  1509.336
 306  1862.973
 307  2260.126
 308  2066.548
 309  1898.953
 310  1941.639
 311  1523.339
 312  1043.396
 313  706.7197
 314  666.5455
 315  840.4088
 316  838.4636
 317  1367.673
 318  1134.886
 319  1187.215
 320  1163.228
 321  843.5307
 322  725.491
 323  1063.504
 324  1135.943
 325  863.2178
 326  700.6069
 327  1136.265
 328  1360.676
 329  1169.495
 330  738.4236
 331  631.5832
 332  821.7568
 333  867.3674
 334  1195.869
 335  1009.802
 336  1234.756
 337  1405.795
 338  1585.988
 339  1421.954
 340  1011.093
 341  587.4015
 342  566.4553
 343  1080.927
 344  1131.513
 345  1022.58
 346  932.2768
 347  968.0683
 348  1110.29
 349  1064.555
 350  1074.175
 351  813.6949
 352  851.2261
 353  945.2437
 354  1178.208
 355  884.9185
 356  1084.761
 357  1245.494
 358  909.0503
 359  777.4591
 360  836.8511
 361  972.6169
 362  751.8247
 363  917.9681
 364  1162.572
 365  1122.296
 366  1035.135
 367  1237.275
 368  1386.606
 369  946.2784
 370  761.2098
 371  807.2002
 372  943.4858
 373  907.5548
 374  746.1199
 375  759.8795
 376  970.0506
 377  982.3457
 378  1159.267
 379  855.4647
 380  553.6335
 381  870.8123
 382  899.22
 383  879.4578
 384  799.6308
 385  958.926
 386  939.7159
 387  602.8077
 388  814.9592
 389  830.7731
 390  1065.535
 391  1258.814
 392  1354.021
 393  959.2061
 394  869.5965
 395  812.633
 396  887.0644
 397  712.1063
 398  687.4911
 399  1135.35
 400  1269.127
 401  1447.053
 402  1493.892
 403  1237.249
 404  1002.342
 405  862.659
 406  798.5928
 407  777.1424
 408  782.8153
 409  1081.41
 410  1210.921
 411  1094.419
 412  590.5575
 413  475.5238
 414  590.3669
 415  708.238
 416  843.9564
 417  947.9404
 418  993.0677
 419  655.5185
 420  397.6219
 421  915.3334
 422  870.1951
 423  772.1219
 424  600.7541
 425  580.0222
 426  655.7986
 427  641.9129
 428  742.653
 429  735.8195
 430  749.3904
 431  574.3184
 432  774.4303
 433  917.8792
 434  850.7537
 435  1102.147
 436  791.9171
 437  797.1436
 438  531.3161
 439  625.304
 440  822.1027
 441  952.2108
 442  1248.409
 443  1080.121
 444  868.3483
 445  727.0462
 446  842.4564
 447  833.3406
 448  825.0183
 449  774.0887
 450  702.4556
 451  643.8783
 452  829.2495
 453  825.7788
 454  962.2656
 455  991.3801
 456  867.9432
 457  858.3856
 458  730.6336
 459  950.5891
 460  918.0743
 461  936.9982
 462  822.3204
 463  746.0646
 464  763.6633
 465  883.5425
 466  526.6623
 467  575.4296
 468  736.0999
 469  973.1129
 470  1120.239
 471  832.0829
 472  724.1576
 473  830.5168
 474  953.7594
 475  604.6739
 476  440.7209
 477  715.3492
 478  590.0709
 479  621.1185
 480  1063.057
 481  1086.643
 482  623.4675
 483  687.5582
 484  1147.226
 485  1115.175
 486  702.2864
 487  854.807
 488  690.7307
 489  576.5863
 490  567.1456
 491  809.7729
 492  753.2948
 493  665.8009
 494  1054.685
 495  1043.987
 496  812.1713
 497  955.4192
 498  897.425
 499  718.8041
 500  377.3381
 501  486.3765
 502  1079.84
 503  935.7369
 504  794.4548
 505  1098.243
 506  1050.356
 507  1117.881
 508  662.5052
 509  768.0941
 510  984.1797
 511  896.5063
