# Input file       =  1200514251.114862_cleaned.dat
# Candidate        =  PSR_0332+5434
# Telescope        =  AR
# Epoch_topo       =  58138.841089292386
# Epoch_bary       =  N/A
# T_sample         =  0.002
# Data Folded      =  7340032
# Data Avg         =  0.0917385822037049
# Data StdDev      =  1.00035363085905 
# Profile Bins     =  512
# Profile Avg      =  1315.16224893827 
# Profile StdDev   =  119.775377673277 
# Reduced chi-sqr  =  0.762
# Prob(Noise)      <  1   (~0.0 sigma)
# P_topo (ms)      =  714.570647750658  +/- 0.000249
# P'_topo (s/s)    =  -0                +/- 1.31e-10
# P''_topo (s/s^2) =  0                 +/- 5.8e-14
# P_bary (ms)      =  N/A
# P'_bary (s/s)    =  N/A
# P''_bary (s/s^2) =  N/A
# P_orb (s)        =  N/A
# asin(i)/c (s)    =  N/A
# eccentricity     =  N/A
# w (rad)          =  N/A
# T_peri           =  N/A
######################################################
   0  1371.111
   1  1263.661
   2  1243.881
   3  1253.628
   4  1217.468
   5  1325.641
   6  1337.947
   7  1254.383
   8  1244.051
   9  1244.324
  10  1228.62
  11  1277.382
  12  1356.119
  13  1389.359
  14  1420.953
  15  1450.828
  16  1417.539
  17  1299.274
  18  1275.85
  19  1294.069
  20  1360.15
  21  1254.289
  22  1270.514
  23  1267.908
  24  1424.594
  25  1406.255
  26  1242.297
  27  1183.104
  28  1204.207
  29  1294.259
  30  1285.068
  31  1337.074
  32  1339.763
  33  1320.77
  34  1398.664
  35  1423.491
  36  1301.886
  37  1245.887
  38  1262.902
  39  1270.351
  40  1207.446
  41  1376.292
  42  1451.03
  43  1326.473
  44  1254.83
  45  1256.862
  46  1279.652
  47  1242.521
  48  1316.239
  49  1296.657
  50  1285.861
  51  1316.061
  52  1385.524
  53  1341.127
  54  1392.038
  55  1372.114
  56  1440.571
  57  1339.339
  58  1302.103
  59  1267.955
  60  1244.591
  61  1201.492
  62  1217.908
  63  1330.362
  64  1160.383
  65  1150.872
  66  1250.187
  67  1381.925
  68  1296.196
  69  1224.191
  70  1321.797
  71  1311.965
  72  1297.65
  73  1299.266
  74  1352.621
  75  1275.556
  76  1270.935
  77  1372.593
  78  1343.749
  79  1284.564
  80  1342.871
  81  1426.215
  82  1300.326
  83  1246.96
  84  1282.577
  85  1295.095
  86  1254.717
  87  1304.895
  88  1317.404
  89  1231.583
  90  1274.356
  91  1406.77
  92  1279.917
  93  1246.602
  94  1326.868
  95  1272.151
  96  1260.306
  97  1331.242
  98  1402.33
  99  1346.095
 100  1347.432
 101  1285.524
 102  1274.303
 103  1271.453
 104  1261.217
 105  1333.862
 106  1302.555
 107  1222.122
 108  1212.662
 109  1321.44
 110  1410.97
 111  1329.841
 112  1259.531
 113  1342.419
 114  1293.577
 115  1450.143
 116  1439.895
 117  1412.477
 118  1319.335
 119  1337.982
 120  1392.882
 121  1301.99
 122  1324.499
 123  1341.331
 124  1360.144
 125  1394.522
 126  1264.657
 127  1243.979
 128  1315.459
 129  1325.421
 130  1317.692
 131  1398.73
 132  1393.629
 133  1318.621
 134  1245.909
 135  1212.531
 136  1209.636
 137  1279.359
 138  1481.949
 139  1420.083
 140  1265.441
 141  1321.406
 142  1414.887
 143  1337.561
 144  1348.641
 145  1319.312
 146  1303.097
 147  1275.779
 148  1300.833
 149  1364.361
 150  1333.577
 151  1315.883
 152  1404.317
 153  1347.173
 154  1245.486
 155  1087.036
 156  1321.091
 157  1385.962
 158  1397.696
 159  1347.256
 160  1342.08
 161  1302.493
 162  1278.551
 163  1367.155
 164  1357.31
 165  1289.247
 166  1253.622
 167  1362.605
 168  1339.433
 169  1330.437
 170  1326.785
 171  1386.163
 172  1304.829
 173  1323.496
 174  1374.731
 175  1405.381
 176  1338.573
 177  1382.221
 178  1495.71
 179  1632.793
 180  1726.037
 181  1582.267
 182  1531.439
 183  1473.348
 184  1255.833
 185  1275.048
 186  1305.133
 187  1253.829
 188  1262.85
 189  1265.339
 190  1327.124
 191  1243.673
 192  1413.992
 193  1335.265
 194  1382.103
 195  1338.625
 196  1306.567
 197  1211.644
 198  1231.909
 199  1408.494
 200  1315.356
 201  1336.442
 202  1322.663
 203  1236.791
 204  1188.867
 205  1157.067
 206  1242.634
 207  1223.131
 208  1353.47
 209  1423.799
 210  1428.111
 211  1430.956
 212  1344.322
 213  1334.136
 214  1257.463
 215  1234.373
 216  1283.393
 217  1383.884
 218  1438.737
 219  1455.02
 220  1338.8
 221  1331.474
 222  1240.811
 223  1178.188
 224  1192.818
 225  1265.809
 226  1366.226
 227  1367.886
 228  1288.474
 229  1239.954
 230  1331.955
 231  1319.242
 232  1246.149
 233  1218.659
 234  1207.196
 235  1338.257
 236  1326.92
 237  1380.605
 238  1331.741
 239  1379.49
 240  1399.317
 241  1269.968
 242  1299.713
 243  1392.063
 244  1481.083
 245  1403.322
 246  1349.002
 247  1197.263
 248  1166.731
 249  1228.502
 250  1193.927
 251  1212.6
 252  1231.599
 253  1256.92
 254  1251.381
 255  1219.913
 256  1264.248
 257  1329.397
 258  1312.336
 259  1266.584
 260  1185.577
 261  1304.971
 262  1323.704
 263  1384.902
 264  1337.218
 265  1318.483
 266  1231.965
 267  1242.373
 268  1281
 269  1199.156
 270  1290.277
 271  1248.841
 272  1250.462
 273  1264.778
 274  1258.876
 275  1202.564
 276  1269.374
 277  1245.565
 278  1279.07
 279  1245.341
 280  1277.586
 281  1225.521
 282  1262.418
 283  1283.146
 284  1247.69
 285  1237.268
 286  1261.17
 287  1346.616
 288  1342.295
 289  1306.346
 290  1354.355
 291  1311.53
 292  1305.591
 293  1272.205
 294  1233.221
 295  1261.883
 296  1307.943
 297  1344.29
 298  1254.205
 299  1289.486
 300  1451.557
 301  1445.635
 302  1431.692
 303  1419.328
 304  1284.179
 305  1211.244
 306  1301.882
 307  1305.521
 308  1256.353
 309  1288.814
 310  1326.466
 311  1276.303
 312  1298.36
 313  1313.566
 314  1265.905
 315  1319.462
 316  1324.289
 317  1418.22
 318  1341.226
 319  1430.236
 320  1372.112
 321  1413.051
 322  1385.969
 323  1310.008
 324  1284.136
 325  1226.038
 326  1300.791
 327  1279.266
 328  1326.741
 329  1348.009
 330  1406.022
 331  1447.326
 332  1457.855
 333  1393.292
 334  1311.688
 335  1293.036
 336  1315.007
 337  1319.746
 338  1321.619
 339  1353.992
 340  1426.867
 341  1398.229
 342  1306.246
 343  1360.128
 344  1385.572
 345  1359.486
 346  1274.09
 347  1283.027
 348  1182.938
 349  1230.093
 350  1305.665
 351  1402.18
 352  1396.419
 353  1397.78
 354  1351.508
 355  1315.87
 356  1308.546
 357  1270.681
 358  1305.314
 359  1407.073
 360  1414.411
 361  1289.261
 362  1305.302
 363  1194.506
 364  1317.449
 365  1244.638
 366  1237.613
 367  1313.023
 368  1284.401
 369  1359.935
 370  1328.607
 371  1294.385
 372  1304.028
 373  1392.221
 374  1346.91
 375  1328.367
 376  1360.561
 377  1305.017
 378  1405.621
 379  1319.224
 380  1222.621
 381  1299.088
 382  1350.546
 383  1297.651
 384  1269.446
 385  1315.14
 386  1332.098
 387  1314.573
 388  1284.885
 389  1299.306
 390  1253.943
 391  1217.976
 392  1319.735
 393  1372.616
 394  1376.364
 395  1270.246
 396  1352.942
 397  1343.458
 398  1244.718
 399  1308.151
 400  1223.196
 401  1230.414
 402  1236.461
 403  1326.28
 404  1380.755
 405  1373.47
 406  1252.727
 407  1378.935
 408  1336.778
 409  1340.872
 410  1312.124
 411  1258.841
 412  1330.171
 413  1297.052
 414  1337.262
 415  1265.655
 416  1370.072
 417  1399.755
 418  1444.073
 419  1337.533
 420  1340.42
 421  1363.953
 422  1335.636
 423  1426.712
 424  1355.408
 425  1331.173
 426  1347.284
 427  1326.831
 428  1288.072
 429  1214.57
 430  1303.674
 431  1495.673
 432  1423.858
 433  1374.567
 434  1321.69
 435  1346.401
 436  1347.878
 437  1370.203
 438  1308.728
 439  1341.409
 440  1325.447
 441  1244.328
 442  1299.609
 443  1310.494
 444  1315.966
 445  1303.841
 446  1338.571
 447  1281.121
 448  1275.826
 449  1280.758
 450  1276.335
 451  1251.674
 452  1267.749
 453  1385.641
 454  1402.293
 455  1394.552
 456  1173.973
 457  1185.864
 458  1375.487
 459  1469.85
 460  1525.996
 461  1414.734
 462  1314.918
 463  1282.783
 464  1294.008
 465  1342.941
 466  1350.986
 467  1349.232
 468  1304.204
 469  1318.852
 470  1323.268
 471  1400.068
 472  1462.138
 473  1462.63
 474  1440.803
 475  1405.341
 476  1335.084
 477  1351.358
 478  1426.806
 479  1438.931
 480  1419.809
 481  1384.713
 482  1358.993
 483  1339.734
 484  1370.853
 485  1259.051
 486  1239.147
 487  1301.309
 488  1243.083
 489  1187.828
 490  1096.097
 491  1185.101
 492  1149.083
 493  1222.813
 494  1199.116
 495  1122.949
 496  1161.473
 497  1111.799
 498  1239.328
 499  1126.533
 500  1160.624
 501  1183.39
 502  1278.777
 503  1361.126
 504  1329.275
 505  1351.02
 506  1278.437
 507  1345.537
 508  1290.031
 509  1287.726
 510  1402.834
 511  1362.43
