# Input file       =  1200068525.116485_cleaned.dat
# Candidate        =  PSR_0332+5434
# Telescope        =  AR
# Epoch_topo       =  58133.682223570431
# Epoch_bary       =  N/A
# T_sample         =  0.002
# Data Folded      =  7340032
# Data Avg         =  1.03751963769277 
# Data StdDev      =  8.28054734662343 
# Profile Bins     =  512
# Profile Avg      =  14873.166315149  
# Profile StdDev   =  991.455076672797 
# Reduced chi-sqr  =  0.786
# Prob(Noise)      <  1   (~0.0 sigma)
# P_topo (ms)      =  714.567040183491  +/- 2.01e-05
# P'_topo (s/s)    =  -0                +/- 1.06e-11
# P''_topo (s/s^2) =  0                 +/- 4.69e-15
# P_bary (ms)      =  N/A
# P'_bary (s/s)    =  N/A
# P''_bary (s/s^2) =  N/A
# P_orb (s)        =  N/A
# asin(i)/c (s)    =  N/A
# eccentricity     =  N/A
# w (rad)          =  N/A
# T_peri           =  N/A
######################################################
   0  13585.76
   1  14003.24
   2  14376.92
   3  14131.58
   4  14399.32
   5  15426.71
   6  15665.85
   7  15468.63
   8  14154.27
   9  14045.88
  10  15458.79
  11  15244.12
  12  15041.5
  13  14738.08
  14  14571.69
  15  13823.42
  16  15063.8
  17  14911.87
  18  14926.72
  19  14670.67
  20  14770.53
  21  14930.93
  22  14162.22
  23  14571.8
  24  14464.83
  25  15921.99
  26  15560.16
  27  14477.27
  28  14487.88
  29  14966.92
  30  15286.59
  31  14814.73
  32  15321.2
  33  14322.37
  34  14787.62
  35  15088.74
  36  14799.06
  37  14833.03
  38  14638.03
  39  14999.47
  40  15055
  41  15471.7
  42  14515.67
  43  14825.7
  44  15705.05
  45  15678.23
  46  14368.39
  47  14356.69
  48  15551.18
  49  15744.59
  50  15072.41
  51  14159.97
  52  13340.85
  53  14775.15
  54  15146.68
  55  14762.25
  56  14129.38
  57  14895.28
  58  15329.17
  59  14880.78
  60  14780.31
  61  14733.89
  62  14830.72
  63  15443.58
  64  15702.8
  65  14132.61
  66  13885.92
  67  14045.42
  68  15283.07
  69  15363.07
  70  14338.19
  71  14853.74
  72  15158.63
  73  15993.68
  74  14729.59
  75  14768.67
  76  15391.86
  77  15774.6
  78  16100.1
  79  15685.63
  80  14257.35
  81  13979.65
  82  15313.2
  83  15921.71
  84  15360.88
  85  14909.73
  86  14868.88
  87  15552.9
  88  15506.87
  89  15536.33
  90  15618.25
  91  15397.11
  92  15744.46
  93  15755.76
  94  13968.91
  95  13792.31
  96  14465.97
  97  15539.44
  98  15653.25
  99  14612.19
 100  14929.92
 101  15085.8
 102  14892.6
 103  14279.54
 104  14601.35
 105  15010.79
 106  14467.53
 107  15257.12
 108  14421.93
 109  14868.63
 110  14729.05
 111  15770.98
 112  15068.28
 113  13540.33
 114  13755.24
 115  14305.39
 116  15752.23
 117  15510.39
 118  15582
 119  14612
 120  15204.47
 121  16220.47
 122  15504.63
 123  14550.75
 124  14252.44
 125  15464.31
 126  15791.59
 127  14687.45
 128  14269.87
 129  14507.54
 130  15765.11
 131  15426.8
 132  14640.86
 133  13911.65
 134  14008.76
 135  15495.77
 136  15910.54
 137  14555.59
 138  14954.07
 139  15376.13
 140  15432.98
 141  15262.08
 142  14069.43
 143  14036.39
 144  14122.76
 145  15253.33
 146  15332.45
 147  14439.98
 148  14470.24
 149  15105.91
 150  16409.12
 151  15103.93
 152  14304.09
 153  14223.46
 154  15133.29
 155  15391.3
 156  14518.22
 157  14888.95
 158  14395.57
 159  15530.58
 160  14862.35
 161  14539.71
 162  13772.11
 163  14187.09
 164  15701.01
 165  15277.82
 166  13572.59
 167  13619.45
 168  15015.3
 169  15003.54
 170  15622.08
 171  14388.43
 172  13889.75
 173  14032.86
 174  14423.6
 175  15091.66
 176  14764.54
 177  15046.94
 178  15600.18
 179  15398.78
 180  14330.66
 181  12772.62
 182  14436.33
 183  15087.74
 184  14938.42
 185  13742.07
 186  14004.03
 187  15223.46
 188  15551.61
 189  15004.51
 190  14284.03
 191  14145.91
 192  14616.83
 193  15487.11
 194  14177.23
 195  14287.69
 196  14084.74
 197  14983.19
 198  15256.26
 199  14893.88
 200  14093.7
 201  13481.27
 202  15067.63
 203  14770.23
 204  14331.05
 205  14962.4
 206  15191.75
 207  15895.14
 208  14516.29
 209  13552.94
 210  13584.88
 211  14897.3
 212  15314.29
 213  15884.55
 214  14717.9
 215  14191.95
 216  14649.93
 217  14531.8
 218  15239.8
 219  14280.99
 220  14225.5
 221  14851.12
 222  14970.19
 223  14623.72
 224  13827.59
 225  14724.81
 226  15387.68
 227  15768.61
 228  14681.58
 229  14140.72
 230  14094.42
 231  14756.41
 232  14997.26
 233  14364.73
 234  14657.49
 235  15081.84
 236  16086.3
 237  14994.31
 238  14760.29
 239  14719.37
 240  14868.58
 241  15449.28
 242  15095.62
 243  15096.68
 244  14483.78
 245  14871.27
 246  14541.34
 247  14682.01
 248  14557.32
 249  14681.29
 250  15823.46
 251  15200.36
 252  14439.83
 253  14001.54
 254  15154.14
 255  15324.14
 256  15388.13
 257  14343.23
 258  14759.26
 259  14826.92
 260  15054.42
 261  15612.17
 262  14775.18
 263  15647.87
 264  15815.25
 265  15956.27
 266  14120.74
 267  14116.1
 268  15459.06
 269  15828.95
 270  15910.31
 271  14570.16
 272  14661.59
 273  15475.26
 274  15461.06
 275  15406.72
 276  13943.7
 277  14367.89
 278  14434.07
 279  15170.12
 280  14156.16
 281  13906.02
 282  14043.58
 283  15124.42
 284  15430.95
 285  14479.58
 286  14375.76
 287  14226.24
 288  14950.82
 289  14981.93
 290  14833.19
 291  14188.86
 292  14489.33
 293  15213.77
 294  14799.3
 295  14807.09
 296  13819.49
 297  14730.28
 298  15736.68
 299  14873.5
 300  13883.58
 301  13977.36
 302  15071.92
 303  15588.86
 304  15235.46
 305  13863.93
 306  14132.91
 307  16321.92
 308  17081.93
 309  16505.11
 310  15909.19
 311  15638.49
 312  15562.48
 313  15313.42
 314  14169.19
 315  14483.99
 316  14392.13
 317  14770.24
 318  15418.73
 319  14873.79
 320  14871.12
 321  14542.77
 322  15443.65
 323  14288.41
 324  14046.77
 325  13790.35
 326  14738.91
 327  15592.75
 328  15151.7
 329  14550.19
 330  13990.13
 331  14843.83
 332  15429.77
 333  14588.38
 334  13903.44
 335  15065.58
 336  16186.9
 337  15390.15
 338  14784.74
 339  13947.55
 340  14922.44
 341  15626.29
 342  14848.81
 343  14392.05
 344  14021.9
 345  14992.9
 346  15372.55
 347  15407.3
 348  14698.84
 349  15064.22
 350  15464.15
 351  15804.78
 352  15848.05
 353  15156.96
 354  15580.21
 355  14526.11
 356  15174.55
 357  14521.04
 358  14134.99
 359  14429.15
 360  15016.65
 361  15819.84
 362  14993.7
 363  14801.38
 364  14641.96
 365  15572.49
 366  14995.12
 367  13874.84
 368  13943.19
 369  14187.44
 370  15502.83
 371  14615.73
 372  14321.31
 373  14523.39
 374  15646.31
 375  15214.04
 376  13980.03
 377  13833.23
 378  14389.91
 379  15345.08
 380  15012.29
 381  14673.55
 382  13562.94
 383  14546.52
 384  15323.4
 385  15292.11
 386  14335.91
 387  14136.79
 388  15227.56
 389  14656.28
 390  14429.76
 391  13982.6
 392  14128.68
 393  14727.48
 394  14725.37
 395  14840.97
 396  14945.76
 397  15051.84
 398  15044.71
 399  15755.47
 400  14734.49
 401  14193.78
 402  15508.89
 403  16768.45
 404  16837.13
 405  15366.38
 406  14780.52
 407  14464.66
 408  15837.63
 409  15622.36
 410  15160.05
 411  15255.59
 412  15145.67
 413  14975
 414  13885.06
 415  14231.6
 416  14397.39
 417  15601.84
 418  15938.05
 419  15564.44
 420  14880.13
 421  14496.96
 422  15405.77
 423  15365.83
 424  15269.68
 425  14456.25
 426  14979.47
 427  15157.12
 428  14194.52
 429  12942.14
 430  13031.36
 431  14616.94
 432  15709.22
 433  15871.29
 434  14829.74
 435  14615.88
 436  15632.31
 437  15692.38
 438  15403.68
 439  14380.68
 440  15082.99
 441  14989.52
 442  15797.25
 443  15139.7
 444  14584.68
 445  15196.46
 446  15764.54
 447  15668.48
 448  14855.14
 449  14046.9
 450  13501.68
 451  15063.86
 452  14725.3
 453  14027.58
 454  14921.28
 455  15068.41
 456  15472.58
 457  14895.4
 458  15341.54
 459  15078.24
 460  15372.53
 461  16065.3
 462  15305.18
 463  14598.18
 464  14544.7
 465  15023.78
 466  15461.85
 467  15268.82
 468  14371.97
 469  14420.88
 470  14618.22
 471  14811.26
 472  14577.75
 473  14656.95
 474  15019.85
 475  15530.47
 476  15258.25
 477  13704.91
 478  14087.09
 479  15363.83
 480  15179.47
 481  14852
 482  14448.28
 483  15228.47
 484  15425.21
 485  15382.93
 486  14650.04
 487  14524.83
 488  14979.47
 489  15477.66
 490  15622.58
 491  15088.49
 492  15144.95
 493  15021.63
 494  15529.5
 495  15629.44
 496  14942.06
 497  14207.01
 498  14707.39
 499  15470.78
 500  15516.42
 501  14869.03
 502  14099.26
 503  15247.84
 504  15536.29
 505  14807.57
 506  14622.23
 507  14484.19
 508  14761.71
 509  14468.7
 510  14607.48
 511  12773.75
