# Input file       =  1200428131.111276_cleaned.dat
# Candidate        =  PSR_0332+5434
# Telescope        =  AR
# Epoch_topo       =  58137.844329991618
# Epoch_bary       =  N/A
# T_sample         =  0.002
# Data Folded      =  7340032
# Data Avg         =  0.130410254164807
# Data StdDev      =  3.9685307999269  
# Profile Bins     =  1024
# Profile Avg      =  934.80746266076  
# Profile StdDev   =  335.991858141018 
# Reduced chi-sqr  =  0.612
# Prob(Noise)      <  1   (~0.0 sigma)
# P_topo (ms)      =  714.57004936422   +/- 0.000828
# P'_topo (s/s)    =  -0                +/- 4.37e-10
# P''_topo (s/s^2) =  0                 +/- 1.93e-13
# P_bary (ms)      =  N/A
# P'_bary (s/s)    =  N/A
# P''_bary (s/s^2) =  N/A
# P_orb (s)        =  N/A
# asin(i)/c (s)    =  N/A
# eccentricity     =  N/A
# w (rad)          =  N/A
# T_peri           =  N/A
######################################################
   0  897.4745
   1  865.9593
   2  876.5134
   3  855.405
   4  1002.75
   5  1087.321
   6  1110.723
   7  1056.554
   8  1030.985
   9  1005.306
  10  1038.035
  11  1014.731
  12  1093.589
  13  904.8143
  14  858.4237
  15  805.2265
  16  909.5281
  17  939.3514
  18  927.9251
  19  883.6035
  20  966.1183
  21  966.793
  22  949.8465
  23  904.9089
  24  949.8781
  25  731.0946
  26  728.616
  27  690.7865
  28  757.0443
  29  802.4812
  30  832.5564
  31  901.1489
  32  983.6573
  33  1034.101
  34  1032.516
  35  893.1536
  36  782.9932
  37  707.6514
  38  785.5392
  39  770.4205
  40  784.6509
  41  849.0209
  42  944.8856
  43  905.0193
  44  804.1345
  45  745.0455
  46  769.1263
  47  865.1818
  48  978.1826
  49  1038.208
  50  1024.154
  51  1018.74
  52  1011.925
  53  962.298
  54  1044.353
  55  1011.214
  56  1065.955
  57  943.7926
  58  928.4171
  59  877.3768
  60  1016.219
  61  1153.936
  62  1159.092
  63  1104.434
  64  988.3058
  65  1052.262
  66  1031.756
  67  1065.45
  68  970.1456
  69  1096.28
  70  1243.676
  71  1201.32
  72  1141.144
  73  1027.011
  74  984.0443
  75  964.1637
  76  1087.763
  77  1230.573
  78  1175.955
  79  995.0515
  80  987.2005
  81  1031.656
  82  969.2158
  83  992.4724
  84  1081.053
  85  1264.617
  86  1259.234
  87  1242.58
  88  1311.86
  89  1235.896
  90  1152.647
  91  1139.263
  92  1238.83
  93  1229.027
  94  1225.178
  95  1300.012
  96  1316.341
  97  1179.357
  98  1076.698
  99  1068.884
 100  955.1201
 101  837.0717
 102  850.5795
 103  951.1549
 104  1074.2
 105  1099.739
 106  1174.346
 107  1131.013
 108  1153.191
 109  1142.21
 110  1117.161
 111  1129.36
 112  1263.253
 113  1315.086
 114  1237.975
 115  1010.317
 116  891.1548
 117  808.9824
 118  843.7753
 119  948.1896
 120  1077.375
 121  1044.749
 122  918.6992
 123  872.8777
 124  927.8649
 125  908.5654
 126  968.5499
 127  924.6275
 128  960.3358
 129  862.3395
 130  816.3694
 131  832.3113
 132  884.3446
 133  995.3239
 134  1000.442
 135  1052.041
 136  1031.382
 137  919.5357
 138  758.0945
 139  699.1102
 140  688.6125
 141  687.2507
 142  743.9203
 143  805.2689
 144  768.1263
 145  729.6501
 146  833.4684
 147  906.7308
 148  950.2912
 149  888.6966
 150  1080.479
 151  1147.661
 152  1123.712
 153  1023.308
 154  1014.548
 155  1058.528
 156  1047.732
 157  970.0676
 158  893.9353
 159  872.2532
 160  873.4434
 161  960.7263
 162  1080.667
 163  1104.224
 164  959.1898
 165  934.6915
 166  1010.667
 167  1078.901
 168  1015.468
 169  1007.645
 170  1012.925
 171  1011.398
 172  886.7532
 173  873.8647
 174  890.8974
 175  911.6404
 176  944.4755
 177  981.3575
 178  1087.485
 179  1099.174
 180  1197.652
 181  1203.929
 182  1166.725
 183  993.7559
 184  945.9822
 185  926.7469
 186  961.8725
 187  980.7936
 188  962.1937
 189  976.4376
 190  964.9659
 191  1076.692
 192  1102.334
 193  980.3652
 194  865.96
 195  761.1804
 196  819.699
 197  844.0073
 198  891.9668
 199  932.2526
 200  899.4443
 201  1022.041
 202  1008.048
 203  996.6783
 204  890.218
 205  1009.378
 206  1108.83
 207  1045.78
 208  860.9796
 209  879.2522
 210  993.3633
 211  1026.179
 212  954.842
 213  1060.316
 214  1063.001
 215  1054.771
 216  988.7748
 217  970.2664
 218  913.539
 219  869.5366
 220  961.7307
 221  996.5518
 222  916.249
 223  834.405
 224  839.8474
 225  864.4665
 226  873.3534
 227  933.1699
 228  952.8599
 229  881.5281
 230  828.1529
 231  969.6676
 232  988.7686
 233  1023.496
 234  1062.513
 235  1088.505
 236  928.7177
 237  773.486
 238  764.8871
 239  842.6357
 240  788.29
 241  928.6266
 242  1014.515
 243  914.0507
 244  738.297
 245  832.7095
 246  1027.107
 247  1037.153
 248  987.3846
 249  1075.2
 250  967.619
 251  862.0491
 252  825.7959
 253  960.562
 254  926.9182
 255  835.1488
 256  901.4092
 257  1060.973
 258  1122.504
 259  1129.586
 260  1214.016
 261  1216.656
 262  1234.995
 263  1200.723
 264  1319.938
 265  1219.916
 266  1207.191
 267  1157.857
 268  1093.869
 269  926.7725
 270  877.291
 271  907.3008
 272  976.4124
 273  908.4442
 274  858.2595
 275  876.1526
 276  887.7996
 277  939.919
 278  947.6345
 279  991.2708
 280  1008.262
 281  1039.341
 282  1050.812
 283  979.0588
 284  961.618
 285  970.4855
 286  1000.209
 287  981.476
 288  1006.11
 289  910.0986
 290  904.0276
 291  829.7896
 292  978.4481
 293  888.1657
 294  909.3297
 295  944.3222
 296  1048.762
 297  1015.648
 298  923.4225
 299  982.0128
 300  1059.373
 301  1120.383
 302  1160.594
 303  1070.999
 304  957.5493
 305  882.5533
 306  924.9978
 307  960.4629
 308  948.2974
 309  932.5203
 310  928.3318
 311  945.9646
 312  898.4078
 313  818.7496
 314  864.5919
 315  810.9487
 316  892.1349
 317  938.4407
 318  938.3641
 319  870.83
 320  848.2214
 321  876.3112
 322  941.9056
 323  927.8662
 324  988.2893
 325  1067.726
 326  1019.568
 327  1021.667
 328  985.7724
 329  988.3995
 330  1005.611
 331  1046.035
 332  1187.398
 333  1096.13
 334  996.2906
 335  935.7994
 336  983.0946
 337  950.7967
 338  893.8844
 339  968.9212
 340  1026.473
 341  1044.022
 342  971.5375
 343  908.188
 344  911.1019
 345  957.5694
 346  1030.494
 347  893.235
 348  705.9401
 349  695.4724
 350  767.7444
 351  919.4584
 352  1018.968
 353  960.4345
 354  943.8176
 355  838.704
 356  974.0314
 357  945.8369
 358  935.47
 359  908.6666
 360  1035.762
 361  1041.595
 362  932.6235
 363  901.9395
 364  1058.056
 365  1006.508
 366  968.2149
 367  889.6439
 368  898.9747
 369  853.6185
 370  924.8416
 371  1009.348
 372  905.5
 373  853.0539
 374  873.2065
 375  982.4139
 376  911.7165
 377  859.6085
 378  965.7129
 379  933.9413
 380  789.0787
 381  741.6411
 382  952.7767
 383  1160.129
 384  1196.45
 385  1239.612
 386  1128.497
 387  939.642
 388  917.3317
 389  1003.578
 390  1076.233
 391  998.5572
 392  1001.378
 393  993.0431
 394  914.2256
 395  941.17
 396  927.3578
 397  916.712
 398  824.4941
 399  868.4278
 400  883.4958
 401  874.0247
 402  906.3676
 403  942.77
 404  848.9943
 405  779.9866
 406  752.071
 407  875.348
 408  901.2401
 409  901.2014
 410  810.9178
 411  860.3819
 412  879.8809
 413  913.0417
 414  831.9108
 415  706.4139
 416  756.4329
 417  949.0291
 418  1026.897
 419  999.9721
 420  999.5532
 421  1084.32
 422  1076.356
 423  1020.176
 424  1112.186
 425  1096.069
 426  1137.462
 427  1079.386
 428  1085.4
 429  996.202
 430  965.807
 431  952.2768
 432  1095.833
 433  1002.781
 434  909.7344
 435  940.2897
 436  1058.25
 437  1058.874
 438  1004.99
 439  951.1735
 440  1050.231
 441  991.1901
 442  935.7922
 443  828.9778
 444  813.8628
 445  822.7537
 446  919.4771
 447  880.9612
 448  879.7164
 449  811.1034
 450  826.4352
 451  772.2773
 452  758.4016
 453  752.9759
 454  790.0269
 455  814.7937
 456  759.836
 457  800.989
 458  841.3682
 459  898.0661
 460  873.7669
 461  903.934
 462  846.725
 463  909.0957
 464  1038.298
 465  1122.504
 466  951.3741
 467  830.1864
 468  770.9764
 469  775.5493
 470  773.9144
 471  802.7243
 472  885.9443
 473  944.0422
 474  962.7889
 475  890.9437
 476  888.2208
 477  839.4465
 478  849.3146
 479  814.3528
 480  763.9352
 481  845.7174
 482  859.9957
 483  924.4998
 484  867.7433
 485  1001.333
 486  822.6726
 487  793.0836
 488  714.1575
 489  889.3765
 490  866.5704
 491  926.5446
 492  919.4628
 493  862.33
 494  775.194
 495  749.1542
 496  844.5024
 497  817.4618
 498  832.3499
 499  901.0261
 500  1000.365
 501  997.5537
 502  886.1351
 503  881.2258
 504  915.101
 505  1033.551
 506  1051.844
 507  1075.043
 508  947.9378
 509  863.6255
 510  876.0709
 511  936.7281
 512  920.7336
 513  1078.074
 514  1115.749
 515  1185.563
 516  957.4366
 517  861.1697
 518  930.3755
 519  1045.072
 520  1150.171
 521  1076.033
 522  1038.368
 523  1056.107
 524  980.7189
 525  938.897
 526  1030.862
 527  1023.023
 528  1092.401
 529  1031.372
 530  1024.58
 531  924.9164
 532  962.5758
 533  998.9828
 534  1141.938
 535  1133.822
 536  1167.712
 537  1043.296
 538  1012.796
 539  1049.99
 540  1074.186
 541  1060.324
 542  952.6064
 543  885.834
 544  921.3142
 545  1017.723
 546  1135.283
 547  1166.205
 548  1173.64
 549  1155.794
 550  1148.848
 551  1156.36
 552  1073.353
 553  1008.326
 554  879.7566
 555  831.2916
 556  831.3751
 557  900.5563
 558  897.1571
 559  841.5491
 560  855.6459
 561  953.5393
 562  997.3764
 563  1039.179
 564  1032.806
 565  979.1287
 566  945.6533
 567  978.0825
 568  1030.194
 569  1069.026
 570  1063.586
 571  1069.127
 572  1046.05
 573  968.7142
 574  906.9866
 575  1020.489
 576  1150.279
 577  1106.575
 578  1042.058
 579  999.924
 580  1023.261
 581  1025.15
 582  1155.771
 583  1113.291
 584  1162.721
 585  1061.712
 586  1177.213
 587  1069.63
 588  1079.798
 589  1108.107
 590  1170.962
 591  1198.937
 592  1099.097
 593  1061.433
 594  1047.42
 595  1021.33
 596  1002.075
 597  868.0453
 598  829.5782
 599  823.0601
 600  929.8998
 601  1014.128
 602  981.6265
 603  969.8552
 604  974.5928
 605  989.5566
 606  1035.678
 607  999.6168
 608  1024.59
 609  986.0135
 610  1148.258
 611  1232.74
 612  1297.617
 613  1374.171
 614  1530.159
 615  1629.841
 616  1623.607
 617  1630.446
 618  1586.846
 619  1424.369
 620  1257.441
 621  1129.887
 622  1115.04
 623  1061.304
 624  1008.821
 625  1007.316
 626  996.8715
 627  1101.985
 628  1242.286
 629  1278.886
 630  1200.747
 631  1095.264
 632  1116.117
 633  1179.975
 634  1166.527
 635  986.0871
 636  826.9564
 637  790.2683
 638  776.5557
 639  807.7852
 640  799.0744
 641  934.8121
 642  1034.589
 643  1202.355
 644  1209.265
 645  1063.564
 646  848.0793
 647  843.5357
 648  877.7335
 649  1007.792
 650  982.5922
 651  899.4929
 652  798.3727
 653  735.7007
 654  702.9691
 655  715.8044
 656  755.9226
 657  897.3981
 658  1000.83
 659  911.8203
 660  823.4991
 661  812.8353
 662  887.6682
 663  903.9653
 664  1089.825
 665  1253.8
 666  1240.374
 667  1071.302
 668  991.7082
 669  1068.483
 670  1120.276
 671  1133.021
 672  1120.8
 673  1082.09
 674  1144.231
 675  1124.057
 676  980.6976
 677  903.2364
 678  770.0726
 679  928.7747
 680  1009.863
 681  1135.384
 682  1071.859
 683  1013.412
 684  1097.911
 685  1090.146
 686  1069.877
 687  905.1492
 688  880.1094
 689  909.8516
 690  911.0331
 691  858.5634
 692  929.6301
 693  841.0565
 694  801.1208
 695  751.098
 696  920.6976
 697  1053.228
 698  1073.748
 699  1013.181
 700  946.2648
 701  996.2209
 702  971.8923
 703  890.3272
 704  841.5821
 705  780.1882
 706  772.3782
 707  722.4167
 708  781.6829
 709  807.7335
 710  845.7009
 711  909.2783
 712  859.1021
 713  817.072
 714  935.2657
 715  1019.948
 716  1043.538
 717  1030.087
 718  999.575
 719  930.8571
 720  839.6044
 721  881.3894
 722  918.6555
 723  831.5939
 724  694.6988
 725  693.2749
 726  621.0557
 727  655.1262
 728  725.0077
 729  848.7882
 730  871.0606
 731  894.7621
 732  979.2827
 733  1066.435
 734  1009.734
 735  1008.63
 736  990.6887
 737  1065.714
 738  1039.136
 739  1031.1
 740  919.6312
 741  846.8331
 742  857.3492
 743  871.4281
 744  878.011
 745  960.7403
 746  1083.761
 747  1215.245
 748  1127.9
 749  1148.719
 750  1115.458
 751  1044.282
 752  973.1591
 753  866.4203
 754  870.7732
 755  866.0031
 756  923.2667
 757  991.6978
 758  942.1478
 759  877.5884
 760  839.5815
 761  874.0992
 762  876.1112
 763  786.3387
 764  786.2272
 765  801.2549
 766  815.3467
 767  840.4661
 768  974.5485
 769  925.4657
 770  971.8314
 771  1015.617
 772  1162.51
 773  1154.714
 774  982.7974
 775  875.8517
 776  879.682
 777  850.8033
 778  656.5508
 779  593.6011
 780  737.3379
 781  818.2834
 782  814.2851
 783  782.0372
 784  893.7142
 785  1000.299
 786  1100.404
 787  1128.356
 788  1015.092
 789  942.3352
 790  916.861
 791  930.2062
 792  997.2198
 793  969.9838
 794  884.671
 795  736.2755
 796  685.3638
 797  747.522
 798  705.9537
 799  761.9549
 800  866.5281
 801  962.9709
 802  976.6801
 803  939.7318
 804  825.8721
 805  806.6655
 806  712.5275
 807  820.8331
 808  831.2306
 809  858.6213
 810  809.0397
 811  787.9225
 812  781.7191
 813  776.1149
 814  641.9178
 815  758.509
 816  686.9573
 817  727.5526
 818  678.4382
 819  603.7292
 820  603.9078
 821  639.912
 822  653.9026
 823  620.9161
 824  608.9533
 825  772.4626
 826  776.5256
 827  768.7232
 828  768.1337
 829  842.1195
 830  829.7319
 831  638.4051
 832  700.2541
 833  818.645
 834  909.4941
 835  912.2076
 836  948.6967
 837  842.2816
 838  764.8545
 839  761.1432
 840  859.3143
 841  827.5062
 842  751.5444
 843  777.6237
 844  820.3524
 845  790.2721
 846  847.053
 847  842.3474
 848  750.7712
 849  654.4418
 850  622.3613
 851  767.7773
 852  821.9678
 853  779.8618
 854  781.2383
 855  741.3405
 856  751.3436
 857  685.5702
 858  694.2345
 859  756.6441
 860  746.1644
 861  765.0002
 862  823.5715
 863  842.2079
 864  762.218
 865  668.7001
 866  683.2642
 867  720.1582
 868  845.1603
 869  820.6833
 870  844.1724
 871  722.5161
 872  615.166
 873  647.1042
 874  718.2363
 875  881.6874
 876  820.0405
 877  783.2795
 878  869.6946
 879  848.0541
 880  769.2332
 881  743.7
 882  848.3358
 883  896.6214
 884  782.5539
 885  733.5695
 886  712.0331
 887  716.5735
 888  735.0999
 889  745.5389
 890  792.7556
 891  759.845
 892  739.8907
 893  735.2185
 894  807.0078
 895  864.7886
 896  853.7861
 897  937.6052
 898  923.6296
 899  891.7917
 900  854.4397
 901  840.0927
 902  723.0585
 903  656.1459
 904  638.8029
 905  695.2907
 906  733.0231
 907  888.314
 908  923.5271
 909  825.0583
 910  757.713
 911  830.7183
 912  841.7542
 913  836.5476
 914  844.3424
 915  892.7653
 916  778.3193
 917  725.1604
 918  789.9692
 919  818.9444
 920  765.9586
 921  845.7018
 922  855.9724
 923  836.3232
 924  725.6182
 925  763.0245
 926  769.5889
 927  756.2103
 928  709.9276
 929  807.6133
 930  881.791
 931  946.6773
 932  937.4846
 933  905.4865
 934  906.775
 935  968.7412
 936  927.7547
 937  831.8773
 938  759.9151
 939  786.8768
 940  846.6144
 941  892.7896
 942  873.3762
 943  910.3729
 944  876.7997
 945  776.8649
 946  689.5676
 947  816.2967
 948  909.219
 949  1018.205
 950  1060.491
 951  1135.84
 952  835.2551
 953  708.8482
 954  800.0806
 955  949.7988
 956  961.1301
 957  914.3395
 958  967.0435
 959  924.9786
 960  896.3436
 961  984.6949
 962  1057.448
 963  1014.591
 964  926.3668
 965  847.9624
 966  828.9329
 967  791.9591
 968  824.4668
 969  935.8269
 970  792.369
 971  681.3061
 972  646.071
 973  700.6418
 974  717.7416
 975  701.4299
 976  809.3201
 977  841.0657
 978  845.9846
 979  811.7148
 980  789.0796
 981  780.7823
 982  780.993
 983  822.2341
 984  739.5405
 985  678.907
 986  737.5826
 987  894.5406
 988  912.4878
 989  801.8308
 990  808.3616
 991  900.0143
 992  903.1183
 993  764.6855
 994  698.5492
 995  682.6237
 996  670.0767
 997  781.2097
 998  936.4808
 999  1012.469
1000  1034.088
1001  1025.92
1002  995.3681
1003  918.3906
1004  885.7537
1005  780.7307
1006  677.7968
1007  798.2439
1008  919.9672
1009  940.8372
1010  767.6802
1011  694.7915
1012  737.6443
1013  738.5416
1014  765.3206
1015  851.2684
1016  974.9832
1017  1045.706
1018  1081.827
1019  1117.706
1020  1085.626
1021  1043.02
1022  901.3428
1023  914.0818
