# Input file       =  1200930286.110481_cleaned.dat
# Candidate        =  PSR_0332+5434
# Telescope        =  AR
# Epoch_topo       =  58143.656309149083
# Epoch_bary       =  N/A
# T_sample         =  0.002
# Data Folded      =  7340032
# Data Avg         =  0.0634893130991259
# Data StdDev      =  4.32887170741592 
# Profile Bins     =  512
# Profile Avg      =  910.541301182191 
# Profile StdDev   =  518.308953614384 
# Reduced chi-sqr  =  0.730
# Prob(Noise)      <  1   (~0.0 sigma)
# P_topo (ms)      =  714.572978268553  +/- 0.000554
# P'_topo (s/s)    =  -0                +/- 2.92e-10
# P''_topo (s/s^2) =  0                 +/- 1.29e-13
# P_bary (ms)      =  N/A
# P'_bary (s/s)    =  N/A
# P''_bary (s/s^2) =  N/A
# P_orb (s)        =  N/A
# asin(i)/c (s)    =  N/A
# eccentricity     =  N/A
# w (rad)          =  N/A
# T_peri           =  N/A
######################################################
   0  705.8268
   1  893.6609
   2  893.0357
   3  931.9152
   4  1087.2
   5  1519.601
   6  1429.389
   7  1294.377
   8  1276.19
   9  1433.167
  10  1202.562
  11  1448.365
  12  1779.133
  13  1611.488
  14  1508.586
  15  1218.403
  16  1147.495
  17  1415.997
  18  1343.426
  19  975.5908
  20  771.3086
  21  715.0059
  22  942.038
  23  990.1212
  24  1227.083
  25  1157.823
  26  570.2164
  27  432.3022
  28  739.9032
  29  873.0978
  30  501.5358
  31  572.4437
  32  761.3809
  33  621.7473
  34  549.6204
  35  664.7138
  36  539.0991
  37  485.8712
  38  774.5812
  39  1224.72
  40  1035.497
  41  900.4193
  42  754.7036
  43  969.0742
  44  1062.073
  45  990.1147
  46  1082.23
  47  1256.961
  48  1105.399
  49  1351.108
  50  1024.642
  51  935.868
  52  969.9071
  53  1090.034
  54  1204.257
  55  1346.481
  56  1439.313
  57  887.2559
  58  508.522
  59  567.6139
  60  724.9514
  61  1237.849
  62  1610.01
  63  1594.378
  64  984.9563
  65  576.7573
  66  579.4504
  67  795.7782
  68  923.8831
  69  1181.315
  70  1054.695
  71  1072.667
  72  786.9848
  73  916.3596
  74  983.1911
  75  1191.04
  76  865.6439
  77  1279.954
  78  1170.073
  79  486.0887
  80  633.7048
  81  1105.218
  82  1005.818
  83  1280.425
  84  1421.258
  85  1012.172
  86  900.3606
  87  647.4462
  88  299.0726
  89  353.2981
  90  889.2031
  91  1007.253
  92  843.0649
  93  752.9922
  94  948.2897
  95  863.1597
  96  1046.214
  97  892.7203
  98  829.0367
  99  811.9968
 100  623.8787
 101  844.9695
 102  776.7789
 103  716.3102
 104  526.4257
 105  619.6625
 106  1186.37
 107  1099.258
 108  826.6123
 109  961.5516
 110  834.4156
 111  968.6564
 112  745.1774
 113  936.1884
 114  901.0348
 115  993.2877
 116  1231.637
 117  1150.083
 118  1328.708
 119  948.3043
 120  702.3025
 121  1042.682
 122  1193.976
 123  744.0846
 124  477.2084
 125  790.9792
 126  1073.005
 127  930.1163
 128  766.8979
 129  778.2485
 130  441.3049
 131  164.161
 132  360.6092
 133  275.0568
 134  338.6799
 135  577.239
 136  514.4203
 137  569.8063
 138  641.1541
 139  489.8655
 140  319.3236
 141  399.708
 142  386.2024
 143  694.1976
 144  986.4769
 145  776.9557
 146  411.0987
 147  229.8333
 148  443.7537
 149  732.1747
 150  1120.931
 151  1178.482
 152  830.911
 153  774.4759
 154  302.0083
 155  769.7172
 156  569.0463
 157  567.5001
 158  605.4126
 159  781.595
 160  826.8098
 161  509.2798
 162  666.4071
 163  481.6925
 164  583.8774
 165  680.1768
 166  680.3907
 167  797.1243
 168  825.4301
 169  616.8967
 170  489.8106
 171  786.2091
 172  907.7791
 173  1036.498
 174  818.0302
 175  1086.168
 176  1068.712
 177  813.1146
 178  1105.634
 179  1124.858
 180  1154.066
 181  1317.058
 182  529.3972
 183  567.3145
 184  602.8839
 185  859.7564
 186  1262.486
 187  763.6342
 188  524.5857
 189  414.5639
 190  555.359
 191  829.5333
 192  872.1894
 193  1012.127
 194  1166.377
 195  711.4329
 196  538.7394
 197  1037.663
 198  951.7078
 199  771.1682
 200  841.0883
 201  737.2885
 202  900.6229
 203  934.2352
 204  508.2653
 205  570.4886
 206  864.7796
 207  1219.083
 208  1328.615
 209  1164.857
 210  1141.461
 211  1275.923
 212  1055.555
 213  961.8774
 214  1305.967
 215  1127.348
 216  1081.812
 217  1076.245
 218  1237.89
 219  1423.536
 220  1325.653
 221  1002.675
 222  1279.205
 223  1356.827
 224  1394.652
 225  1522.575
 226  1176.989
 227  1024.15
 228  788.7775
 229  789.7123
 230  1144.503
 231  1170.616
 232  1338.844
 233  1364.095
 234  925.2544
 235  1102.161
 236  994.3578
 237  846.7326
 238  573.0862
 239  469.3619
 240  1002.494
 241  1279.292
 242  1091.531
 243  932.1102
 244  898.7673
 245  1003.308
 246  776.501
 247  1107.377
 248  965.3787
 249  918.3771
 250  917.5808
 251  828.5381
 252  555.3236
 253  717.8354
 254  1264.757
 255  1116.019
 256  717.0399
 257  1250.551
 258  964.762
 259  989.2067
 260  1040.607
 261  1226.71
 262  1336.106
 263  1375.893
 264  1261.001
 265  1264.732
 266  1211.001
 267  1281.948
 268  1501.469
 269  1360.839
 270  902.454
 271  906.4415
 272  1403.554
 273  1638.563
 274  1308.029
 275  1199.552
 276  928.8486
 277  780.7681
 278  1382.048
 279  1470.92
 280  1416.455
 281  1384.356
 282  1081.317
 283  801.822
 284  866.4796
 285  1041.823
 286  1155.167
 287  630.8402
 288  693.7943
 289  847.463
 290  605.3545
 291  705.5237
 292  758.6979
 293  1080.448
 294  1210.92
 295  995.5986
 296  785.7249
 297  818.9844
 298  972.8326
 299  842.1819
 300  730.9138
 301  795.5873
 302  832.028
 303  596.7134
 304  424.5482
 305  517.764
 306  655.6407
 307  494.5875
 308  397.7147
 309  322.1504
 310  441.706
 311  522.5704
 312  442.0977
 313  530.4714
 314  1073.998
 315  788.5623
 316  535.371
 317  487.1663
 318  666.3527
 319  409.9056
 320  629.2481
 321  638.0696
 322  517.1268
 323  821.0257
 324  813.5726
 325  929.9673
 326  788.5063
 327  851.4435
 328  1418.886
 329  1455.681
 330  1224.406
 331  700.3116
 332  880.944
 333  893.5066
 334  851.2311
 335  916.5027
 336  860.3387
 337  956.9532
 338  746.2784
 339  972.8934
 340  1245.036
 341  1195.546
 342  771.7498
 343  925.3825
 344  1079.096
 345  1117.059
 346  910.452
 347  716.5137
 348  793.1813
 349  452.3556
 350  1031.083
 351  855.0356
 352  904.2158
 353  1308.662
 354  1478.654
 355  2161.024
 356  2539.874
 357  2505.215
 358  2264.426
 359  1832.863
 360  1090.263
 361  907.9117
 362  919.762
 363  588.1978
 364  659.9961
 365  1108.601
 366  1140.14
 367  818.2771
 368  884.441
 369  727.9593
 370  694.1597
 371  827.2381
 372  1160.29
 373  1137.014
 374  889.1797
 375  932.0073
 376  793.078
 377  729.8627
 378  1120.361
 379  1152.184
 380  1026.698
 381  1055.602
 382  800.0564
 383  853.892
 384  987.3793
 385  487.4272
 386  552.996
 387  1087.287
 388  1650.123
 389  1046.353
 390  738.1689
 391  604.5899
 392  949.9839
 393  1297.344
 394  1628.668
 395  1419.284
 396  1117.335
 397  893.2502
 398  1083.932
 399  1216.921
 400  1223.682
 401  1147.465
 402  854.1476
 403  1241.942
 404  1291.738
 405  1236.748
 406  852.9529
 407  946.4992
 408  1089.679
 409  975.5622
 410  651.7225
 411  571.0419
 412  839.9158
 413  1190.346
 414  904.9846
 415  859.1091
 416  895.6841
 417  1025.551
 418  772.9022
 419  949.1409
 420  945.1169
 421  1007.48
 422  1126.294
 423  742.3765
 424  880.2796
 425  843.2495
 426  835.5601
 427  554.6928
 428  385.0385
 429  789.9745
 430  504.1651
 431  650.6881
 432  533.218
 433  558.6285
 434  418.5927
 435  525.3559
 436  300.8897
 437  70.93482
 438  436.6342
 439  799.8385
 440  537.2984
 441  267.8357
 442  147.2744
 443  460.9856
 444  903.0675
 445  784.5583
 446  632.6273
 447  1046.043
 448  738.4697
 449  854.4112
 450  922.3123
 451  841.0916
 452  831.6501
 453  541.4695
 454  853.4596
 455  791.7752
 456  560.8337
 457  1104.954
 458  1004.575
 459  1065.332
 460  1086.578
 461  1125.456
 462  1307.076
 463  1196.755
 464  1171.215
 465  1051.694
 466  1223.283
 467  838.8699
 468  494.9335
 469  586.4841
 470  568.1662
 471  605.2692
 472  681.726
 473  867.1154
 474  997.3461
 475  717.1746
 476  476.4901
 477  503.4542
 478  773.5608
 479  833.6768
 480  871.5895
 481  1099.34
 482  890.1551
 483  493.4016
 484  537.5881
 485  382.1949
 486  543.541
 487  672.618
 488  1018.281
 489  1232.797
 490  787.5527
 491  796.5424
 492  913.0396
 493  965.6854
 494  1084.883
 495  978.7459
 496  1120.19
 497  1055.503
 498  771.8071
 499  672.7687
 500  957.4135
 501  937.0391
 502  683.053
 503  950.1931
 504  899.3361
 505  737.9269
 506  1045.554
 507  1083.998
 508  971.3149
 509  947.3118
 510  695.8834
 511  866.0862
