# Input file       =  1200945207.105126_cleaned.dat
# Candidate        =  PSR_0332+5434
# Telescope        =  AR
# Epoch_topo       =  58143.829005846368
# Epoch_bary       =  N/A
# T_sample         =  0.002
# Data Folded      =  7340032
# Data Avg         =  0.0749927298498473
# Data StdDev      =  3.40823402839118 
# Profile Bins     =  512
# Profile Avg      =  1074.99614661038 
# Profile StdDev   =  408.078208901894 
# Reduced chi-sqr  =  0.727
# Prob(Noise)      <  1   (~0.0 sigma)
# P_topo (ms)      =  714.573403119757  +/- 0.000534
# P'_topo (s/s)    =  -0                +/- 2.82e-10
# P''_topo (s/s^2) =  0                 +/- 1.24e-13
# P_bary (ms)      =  N/A
# P'_bary (s/s)    =  N/A
# P''_bary (s/s^2) =  N/A
# P_orb (s)        =  N/A
# asin(i)/c (s)    =  N/A
# eccentricity     =  N/A
# w (rad)          =  N/A
# T_peri           =  N/A
######################################################
   0  1019.554
   1  883.3755
   2  819.7075
   3  744.1121
   4  767.5138
   5  1130.034
   6  842.4473
   7  863.1237
   8  978.6338
   9  1055.188
  10  1153.345
  11  919.8243
  12  651.8566
  13  940.5336
  14  798.5584
  15  842.513
  16  1089.922
  17  925.039
  18  980.5848
  19  1009.642
  20  978.9818
  21  897.1745
  22  731.1956
  23  1080.71
  24  1251.763
  25  810.5814
  26  699.7233
  27  691.146
  28  1050.055
  29  1092.467
  30  978.5978
  31  846.3488
  32  904.8241
  33  780.9532
  34  1112.715
  35  1344.537
  36  757.8392
  37  1157.846
  38  972.1517
  39  1208.404
  40  1262.008
  41  1054.871
  42  1294.01
  43  871.6598
  44  830.8932
  45  895.009
  46  1081.592
  47  1133.524
  48  903.4144
  49  1025.351
  50  1001.152
  51  989.0456
  52  938.7498
  53  904.5656
  54  1524.571
  55  1542.491
  56  1161.762
  57  800.6104
  58  784.0764
  59  916.9828
  60  988.4364
  61  1004.046
  62  1195.6
  63  903.0235
  64  925.0215
  65  674.888
  66  983.8926
  67  1352.444
  68  1141.048
  69  980.3176
  70  816.4925
  71  980.1466
  72  989.5654
  73  1106.119
  74  1031.465
  75  616.0804
  76  618.1047
  77  730.389
  78  942.1361
  79  1048.034
  80  1065.406
  81  829.5112
  82  1042.914
  83  1165.797
  84  1124.973
  85  1047.773
  86  1131.466
  87  1285.279
  88  1197.702
  89  1153.361
  90  1252.032
  91  1252.913
  92  1138.046
  93  1285.778
  94  823.918
  95  876.1429
  96  743.5206
  97  897.9531
  98  832.8519
  99  960.5211
 100  1138.254
 101  579.1505
 102  1106.675
 103  1214.801
 104  1231.562
 105  1226.016
 106  1380.437
 107  888.8329
 108  974.1002
 109  838.5597
 110  984.0331
 111  922.3699
 112  841.6471
 113  973.9884
 114  1247.377
 115  1169.433
 116  1177.442
 117  1305.23
 118  1500.725
 119  1176.874
 120  1218.331
 121  1179.517
 122  1384.453
 123  1406.923
 124  1530.234
 125  1389.774
 126  964.6717
 127  1153.582
 128  1494.73
 129  1289.97
 130  1352.522
 131  1609.982
 132  1267.52
 133  759.762
 134  1076.615
 135  1246.911
 136  1044.035
 137  1135.903
 138  1416.151
 139  1377.131
 140  972.1236
 141  741.2419
 142  1134.646
 143  932.367
 144  1108.967
 145  1314.183
 146  938.1967
 147  979.2078
 148  944.55
 149  936.1198
 150  1140.101
 151  1111.695
 152  730.6028
 153  868.8002
 154  932.949
 155  1063.456
 156  1023.203
 157  1245.506
 158  1395.014
 159  1285.939
 160  730.7106
 161  606.9868
 162  789.3242
 163  1330.998
 164  1405.438
 165  1105.977
 166  921.6791
 167  1168.877
 168  1404.208
 169  1232.624
 170  961.0392
 171  778.0907
 172  1159.712
 173  1437.977
 174  1406.976
 175  990.9087
 176  680.7227
 177  939.1983
 178  777.2441
 179  1017.209
 180  821.4678
 181  1023.759
 182  1095.402
 183  1213.807
 184  1134.719
 185  1118.576
 186  938.6083
 187  1026.953
 188  989.6064
 189  1292.299
 190  1419.462
 191  1190.49
 192  1196.155
 193  922.4494
 194  939.1998
 195  940.6577
 196  1369.484
 197  1314.019
 198  989.5596
 199  684.788
 200  1201.413
 201  902.6868
 202  822.5554
 203  1120.135
 204  1009.91
 205  938.2179
 206  1214.168
 207  1088.677
 208  1060.837
 209  1233.017
 210  999.9647
 211  998.368
 212  1378.73
 213  1436.471
 214  1121.239
 215  891.9442
 216  1118.249
 217  1260.272
 218  1000.752
 219  1143.732
 220  1196.262
 221  1271.081
 222  1323.942
 223  870.4512
 224  1028.798
 225  1341.242
 226  1409.593
 227  1428.37
 228  1450.275
 229  1178.207
 230  1071.396
 231  1134.615
 232  1059.438
 233  1005.512
 234  1066.143
 235  876.9914
 236  1262.22
 237  1189.485
 238  1261.048
 239  962.9985
 240  1141.42
 241  1112.772
 242  854.0755
 243  1135.036
 244  1210.381
 245  1262.422
 246  947.1239
 247  834.9387
 248  572.4629
 249  794.7903
 250  1136.847
 251  1230.784
 252  1481.905
 253  887.8269
 254  830.6608
 255  1219.429
 256  1150.539
 257  1087.573
 258  1510.854
 259  1620.568
 260  1442.13
 261  968.4599
 262  613.0259
 263  1054.765
 264  1321.249
 265  1144.195
 266  976.3757
 267  1182.578
 268  1513.273
 269  1490.677
 270  1418.353
 271  1094.499
 272  1109.633
 273  938.9669
 274  1225.381
 275  1099.456
 276  1283.953
 277  1078.664
 278  760.5644
 279  1134.868
 280  1156.666
 281  887.6939
 282  942.6918
 283  1031.604
 284  1072.082
 285  610.6143
 286  626.2817
 287  758.9217
 288  1196.743
 289  1196.562
 290  736.712
 291  826.0295
 292  1382.03
 293  1165.051
 294  1337.923
 295  1048.949
 296  1195.441
 297  1131.701
 298  1188.824
 299  1290.446
 300  936.1508
 301  988.4639
 302  1166.301
 303  1016.255
 304  1154.682
 305  1428.413
 306  1854.554
 307  2211.655
 308  2491.793
 309  2382.772
 310  2208.977
 311  1480.69
 312  887.0658
 313  1461.198
 314  899.1369
 315  884.808
 316  1288.382
 317  904.113
 318  654.8338
 319  776.3522
 320  1121.251
 321  1265.73
 322  1026.856
 323  1288.802
 324  1303.512
 325  905.4151
 326  1183.633
 327  1103.212
 328  807.8849
 329  1174.956
 330  1040.908
 331  1171.502
 332  1364.315
 333  1295.455
 334  1292.935
 335  1419.909
 336  1469.059
 337  1195.867
 338  1223.271
 339  1228.032
 340  1405.17
 341  1169.263
 342  1257.267
 343  1317.622
 344  1250.577
 345  1293.083
 346  1483.624
 347  1655.023
 348  1508.888
 349  993.5099
 350  962.6377
 351  790.4103
 352  931.8604
 353  999.384
 354  1280.434
 355  1329.064
 356  1164.162
 357  853.6202
 358  791.7234
 359  737.1144
 360  1030.667
 361  615.3032
 362  650.2832
 363  943.9028
 364  813.1611
 365  770.307
 366  937.738
 367  1095.202
 368  890.1233
 369  908.1011
 370  1155.123
 371  1191.015
 372  1316.148
 373  1199.096
 374  1493.703
 375  1308.246
 376  826.1936
 377  1106.701
 378  1102.143
 379  1258.169
 380  1555.804
 381  1563.382
 382  1289.701
 383  1088.221
 384  807.9071
 385  879.0936
 386  925.1891
 387  948.9673
 388  1420.611
 389  1528.586
 390  1100.956
 391  988.1729
 392  941.1354
 393  630.6312
 394  898.5969
 395  1117.008
 396  1258.436
 397  1152.969
 398  987.6864
 399  998.7678
 400  799.5024
 401  1043.936
 402  1069.491
 403  1022.034
 404  950.1444
 405  1133.109
 406  930.4562
 407  877.2079
 408  917.8066
 409  838.0001
 410  1186.442
 411  995.3792
 412  1387.875
 413  1255.232
 414  809.7431
 415  1009.677
 416  884.6296
 417  860.2689
 418  1124.597
 419  1300.069
 420  1057.156
 421  739.0991
 422  1037.76
 423  1009.228
 424  874.5062
 425  677.8008
 426  674.4988
 427  501.3324
 428  745.1006
 429  811.7673
 430  997.7184
 431  1620.589
 432  1371.201
 433  1188.597
 434  1133.921
 435  1043.513
 436  847.7639
 437  1313.743
 438  1385.426
 439  1485.762
 440  1299.471
 441  734.4278
 442  699.2264
 443  773.8137
 444  694.2703
 445  706.829
 446  880.8619
 447  1009.654
 448  878.5764
 449  810.7938
 450  675.0685
 451  930.5687
 452  1162.306
 453  1443.425
 454  1197.469
 455  963.6412
 456  1255.243
 457  1133.064
 458  1205.594
 459  1073.6
 460  980.936
 461  1107.724
 462  1184.441
 463  1285.737
 464  1398.488
 465  1579.167
 466  1058.66
 467  806.0953
 468  881.7485
 469  1230.819
 470  1227.389
 471  968.174
 472  1216.328
 473  1252.276
 474  1312.565
 475  1214.231
 476  1282.534
 477  1149.172
 478  1062.912
 479  931.9713
 480  853.2244
 481  1122.575
 482  1281.725
 483  1201.315
 484  1046.203
 485  1190.348
 486  1351.782
 487  1000.731
 488  1220.229
 489  941.8813
 490  965.2252
 491  1033.418
 492  886.6206
 493  807.6996
 494  866.7284
 495  1077.439
 496  860.4053
 497  735.0693
 498  812.0243
 499  1043.341
 500  626.1509
 501  696.6567
 502  637.9116
 503  864.8311
 504  879.5305
 505  852.1619
 506  890.3188
 507  806.1292
 508  562.91
 509  599.5922
 510  1018.979
 511  1023.567
