# Input file       =  1200585540.105412_cleaned.dat
# Candidate        =  PSR_0332+5434
# Telescope        =  AR
# Epoch_topo       =  58139.666193349673
# Epoch_bary       =  N/A
# T_sample         =  0.002
# Data Folded      =  7340032
# Data Avg         =  0.305720335412063
# Data StdDev      =  4.47354245054405 
# Profile Bins     =  256
# Profile Avg      =  8764.80712160268 
# Profile StdDev   =  757.496371432322 
# Reduced chi-sqr  =  1.057
# Prob(Noise)      <  0.254   (~0.7 sigma)
# P_topo (ms)      =  714.570797162508  +/- 0.00027
# P'_topo (s/s)    =  -0                +/- 1.43e-10
# P''_topo (s/s^2) =  0                 +/- 6.3e-14
# P_bary (ms)      =  N/A
# P'_bary (s/s)    =  N/A
# P''_bary (s/s^2) =  N/A
# P_orb (s)        =  N/A
# asin(i)/c (s)    =  N/A
# eccentricity     =  N/A
# w (rad)          =  N/A
# T_peri           =  N/A
######################################################
   0  7847.044
   1  8180.983
   2  8966.143
   3  8178.042
   4  7193.906
   5  7207.479
   6  7907.369
   7  7917.729
   8  7265.389
   9  7100.058
  10  8029.754
  11  8860.639
  12  8429.246
  13  7521.248
  14  7722.898
  15  8312.457
  16  8229.474
  17  9083.033
  18  8670.361
  19  8488.918
  20  8135.265
  21  9142.105
  22  8392.263
  23  8282.331
  24  8955.225
  25  9611.833
  26  8900.052
  27  9285.34
  28  9501.021
  29  9184.136
  30  9352.929
  31  9038.669
  32  8629.7
  33  9150.043
  34  8531.491
  35  8722.025
  36  8584.623
  37  8809.657
  38  8841.71
  39  8129.687
  40  8121.151
  41  8964.935
  42  9766.427
  43  8821.151
  44  9296.591
  45  9128.935
  46  8891.649
  47  8489.932
  48  9435.062
  49  8268.462
  50  8306.394
  51  8226.586
  52  8411.821
  53  8537.603
  54  8505.167
  55  8985.084
  56  8273.933
  57  8479.543
  58  8930.678
  59  8622.677
  60  8013.958
  61  8728.53
  62  8308.459
  63  7208.291
  64  8416.601
  65  8350.736
  66  7829.966
  67  7837.261
  68  7266.874
  69  6643.649
  70  7149.385
  71  7478.307
  72  7677.964
  73  8691.215
  74  7870.35
  75  8640.266
  76  8817.529
  77  8960.146
  78  8395.27
  79  8065.793
  80  8563.583
  81  8065.578
  82  8119.118
  83  7600.79
  84  8111.313
  85  8630.849
  86  9026.495
  87  8292.993
  88  8856.592
  89  8706.091
  90  8765.299
  91  8846.961
  92  8884.058
  93  8827.896
  94  9040.204
  95  9304.878
  96  8843.706
  97  9657.877
  98  9398.585
  99  8597.697
 100  8549.734
 101  8439.379
 102  8369.931
 103  7963.69
 104  9050.029
 105  8600.442
 106  8626.144
 107  8984.697
 108  8777.683
 109  9228.835
 110  9546.509
 111  9042.043
 112  8683.934
 113  8051.138
 114  8629.691
 115  8397.162
 116  8986.721
 117  8048.07
 118  8232.365
 119  9265.523
 120  9182.946
 121  8405.254
 122  8152.081
 123  9060.847
 124  8961.197
 125  10033.82
 126  10160.26
 127  9289.97
 128  8507.692
 129  9171.424
 130  9403.569
 131  9444.365
 132  8529.554
 133  9304.907
 134  9272.135
 135  9634.997
 136  8803.374
 137  8770.354
 138  9676.771
 139  8808.208
 140  8635.25
 141  8648.326
 142  8152.421
 143  8931.467
 144  9089.611
 145  9223.415
 146  8018.572
 147  8194.67
 148  9103.695
 149  8308.265
 150  9298.621
 151  8481.586
 152  8732.413
 153  10308.49
 154  12214.13
 155  11168.09
 156  8913.567
 157  8013.632
 158  7800.589
 159  8503.95
 160  8483.889
 161  8229.03
 162  9071.053
 163  8687.42
 164  8774.026
 165  8814.436
 166  8386.473
 167  8482.415
 168  8707.836
 169  8945.598
 170  9431.762
 171  8666.72
 172  8319.213
 173  8258.052
 174  8621.738
 175  9236.062
 176  8646.279
 177  9195.492
 178  9567.396
 179  9325.721
 180  8593.361
 181  9153.247
 182  9038.021
 183  8917.227
 184  8706.368
 185  9413.686
 186  9276.17
 187  8874.311
 188  9401.125
 189  8393.216
 190  8187.723
 191  7916.139
 192  9189.102
 193  9263.55
 194  9039.914
 195  9312.474
 196  9902.366
 197  10213.62
 198  10304.14
 199  10166.13
 200  10079.05
 201  9281.035
 202  9708.48
 203  9156.586
 204  8941.359
 205  8884.402
 206  9109.374
 207  9561.201
 208  9801.402
 209  9535.629
 210  9546.223
 211  9896.744
 212  9727.118
 213  9001.914
 214  8846.738
 215  9370.365
 216  8090.583
 217  9317.748
 218  9563.134
 219  9240.054
 220  9090.088
 221  9258.438
 222  9740.689
 223  9189.432
 224  9573.87
 225  8591.046
 226  8674.636
 227  8710.07
 228  9435.471
 229  9268.09
 230  8486.302
 231  8846.954
 232  8873.393
 233  9194.003
 234  9538.37
 235  8116.786
 236  9017.907
 237  8807.862
 238  8673.149
 239  8126.456
 240  8732.706
 241  8197.396
 242  8408.344
 243  7724.332
 244  8121.094
 245  9056.9
 246  8424.891
 247  7992.842
 248  8707.127
 249  8306.515
 250  8439.572
 251  8346.371
 252  8398.464
 253  8642.19
 254  9114.243
 255  9157.612
