# Input file       =  1200398598.099281_cleaned.dat
# Candidate        =  PSR_0332+5434
# Telescope        =  AR
# Epoch_topo       =  58137.502512723164
# Epoch_bary       =  N/A
# T_sample         =  0.002
# Data Folded      =  7143424
# Data Avg         =  0.0997258324866017
# Data StdDev      =  5.44120976039213 
# Profile Bins     =  512
# Profile Avg      =  1391.20480224605 
# Profile StdDev   =  642.707994766438 
# Reduced chi-sqr  =  0.725
# Prob(Noise)      <  1   (~0.0 sigma)
# P_topo (ms)      =  714.569489297619  +/- 7.4e-05
# P'_topo (s/s)    =  -0                +/- 4.01e-11
# P''_topo (s/s^2) =  0                 +/- 1.82e-14
# P_bary (ms)      =  N/A
# P'_bary (s/s)    =  N/A
# P''_bary (s/s^2) =  N/A
# P_orb (s)        =  N/A
# asin(i)/c (s)    =  N/A
# eccentricity     =  N/A
# w (rad)          =  N/A
# T_peri           =  N/A
######################################################
   0  1072.916
   1  1438.775
   2  1243.199
   3  1377.483
   4  1639.474
   5  1338.926
   6  446.9809
   7  594.9992
   8  859.1428
   9  1103.439
  10  1504.132
  11  1918.287
  12  2181.562
  13  1853.101
  14  1641.428
  15  1584.295
  16  1388.487
  17  1400.351
  18  1355.791
  19  1187.421
  20  1426.207
  21  1891.532
  22  1302.858
  23  1146.725
  24  1003.54
  25  1244.478
  26  1283.243
  27  1666.086
  28  1369.332
  29  1426.567
  30  1385.606
  31  841.4312
  32  1161.728
  33  1658.336
  34  1414.748
  35  1229.535
  36  887.7061
  37  2376.392
  38  1777.101
  39  1488.938
  40  1188.165
  41  1205.712
  42  1139.286
  43  1718.206
  44  1498.405
  45  1158.017
  46  997.3499
  47  702.4128
  48  1147.431
  49  733.4207
  50  987.5963
  51  868.8418
  52  1015.052
  53  1041.168
  54  1077.583
  55  1077.362
  56  1105.686
  57  1150.033
  58  1870.233
  59  1578.17
  60  1462.809
  61  1492.717
  62  2284.823
  63  1530.58
  64  865.4396
  65  1259.601
  66  1180.716
  67  1771.202
  68  1722.05
  69  2050.938
  70  2149.653
  71  1412.875
  72  1001.872
  73  1217.883
  74  2036.132
  75  1575.139
  76  1318.907
  77  1942.293
  78  1762.234
  79  1650.928
  80  1698.051
  81  1438.827
  82  1463.913
  83  1447.531
  84  1449.506
  85  1325.134
  86  1272.68
  87  1678.505
  88  627.6893
  89  468.9205
  90  822.1047
  91  510.7859
  92  721.6644
  93  1286.053
  94  1747.536
  95  1047.266
  96  949.0634
  97  1295.088
  98  1571.926
  99  1857.365
 100  1273.102
 101  1831.417
 102  1889.706
 103  1894.556
 104  2095.495
 105  1825.426
 106  1149.902
 107  963.0063
 108  1376.209
 109  1581.891
 110  2176.09
 111  2228.11
 112  1937.714
 113  1458.515
 114  994.6468
 115  1611.808
 116  1754.74
 117  1871.261
 118  1654.769
 119  1347.489
 120  1118.8
 121  1018.521
 122  1434.378
 123  1824.899
 124  1792.633
 125  1523.702
 126  1779.195
 127  1539.825
 128  1900.214
 129  1449.264
 130  1830.674
 131  1428.975
 132  1330.06
 133  1455.481
 134  1423.882
 135  1294.785
 136  1421.85
 137  1179.096
 138  1054.67
 139  1025.213
 140  1681.293
 141  1792.549
 142  1641.505
 143  1390.426
 144  1607.552
 145  782.3159
 146  770.4891
 147  1316.265
 148  1339.726
 149  1099.882
 150  1460.652
 151  1590.603
 152  1783.062
 153  1168.244
 154  601.313
 155  1186.953
 156  2013.901
 157  1365.928
 158  2161.746
 159  1866.167
 160  1464.514
 161  1859.18
 162  1591.098
 163  1719.393
 164  1908.133
 165  2095.794
 166  2325.22
 167  1927.065
 168  2197.8
 169  1911.54
 170  2005.632
 171  1411.418
 172  1912.137
 173  2004.223
 174  1729.23
 175  1681.018
 176  1843.068
 177  1901.094
 178  1826.574
 179  2273.914
 180  2432.548
 181  1504.905
 182  1264.211
 183  1307.459
 184  1608.599
 185  1986.183
 186  1673.681
 187  1470.934
 188  1159.705
 189  1731.337
 190  1544.621
 191  1649.97
 192  1528.564
 193  1967.52
 194  1697.57
 195  1567.359
 196  1734.174
 197  1604.779
 198  1646.867
 199  1222.048
 200  1514.573
 201  1579.65
 202  1404.75
 203  1553.944
 204  1440.402
 205  1704.188
 206  1752.888
 207  1788.859
 208  2017.703
 209  1811.171
 210  1632.585
 211  1115.281
 212  1009.208
 213  1622.43
 214  1761.202
 215  2074.414
 216  1431.262
 217  1334.571
 218  1382.988
 219  1060.083
 220  659.6427
 221  1023.617
 222  1620.839
 223  1799.744
 224  1357.227
 225  1395.747
 226  1349.489
 227  1220.951
 228  945.7716
 229  599.3234
 230  1437.777
 231  1376.406
 232  1774.266
 233  2050.604
 234  1483.858
 235  1329.522
 236  1463.023
 237  1364.924
 238  1126.7
 239  1200.682
 240  1611.277
 241  1653.728
 242  1551.446
 243  1157.712
 244  1265.767
 245  1258.672
 246  1082.544
 247  1147.8
 248  1175.033
 249  1120.029
 250  969.1235
 251  1291.008
 252  1217.737
 253  734.0457
 254  838.1633
 255  973.6116
 256  1189.89
 257  1071.62
 258  1230.503
 259  1400.078
 260  1018.394
 261  845.6202
 262  1096.741
 263  1637.817
 264  941.322
 265  1216.13
 266  1067.498
 267  807.0473
 268  1074.655
 269  937.9716
 270  811.1625
 271  1436.728
 272  1530.429
 273  1513.679
 274  1087.735
 275  1228.453
 276  1298.106
 277  1469.28
 278  1077.902
 279  920.4676
 280  1178.436
 281  1000.065
 282  754.9589
 283  683.8012
 284  589.3491
 285  792.2941
 286  874.4797
 287  1326.247
 288  701.7339
 289  705.2807
 290  1356.98
 291  1808.819
 292  2020.946
 293  2262.617
 294  1528.509
 295  1245.538
 296  1467.909
 297  1147.641
 298  1205.508
 299  1560.546
 300  1328.182
 301  1167.344
 302  1220.813
 303  1368.394
 304  1274.416
 305  1149.831
 306  1782.751
 307  2552.457
 308  2899.073
 309  2788.53
 310  2019.091
 311  1530.656
 312  1340.383
 313  1255.778
 314  1132.68
 315  1187.926
 316  1388.293
 317  842.2549
 318  810.1132
 319  807.9097
 320  1222.084
 321  1339.514
 322  1601.547
 323  2161.407
 324  2130.384
 325  1648.823
 326  1779.551
 327  1319.381
 328  1440.324
 329  1353.492
 330  1350.738
 331  1076.062
 332  1030.795
 333  1641.426
 334  1504.553
 335  1290.776
 336  1158.894
 337  1072.898
 338  1480.835
 339  1125.55
 340  1290.741
 341  1690.529
 342  1690.898
 343  1467.792
 344  1982.758
 345  1695.708
 346  1323.505
 347  1356.225
 348  1626.721
 349  1394.785
 350  1549.12
 351  1726.122
 352  1390.168
 353  1118.641
 354  1256.765
 355  1175.147
 356  1562.59
 357  1629.292
 358  1450.315
 359  1287.529
 360  801.5322
 361  748.5204
 362  1246.391
 363  1320.677
 364  1247.01
 365  1424.477
 366  1485.06
 367  1497.415
 368  866.1478
 369  776.5541
 370  395.6986
 371  972.2441
 372  1104.919
 373  1122.426
 374  1436.919
 375  1486.115
 376  1362.331
 377  1187.634
 378  1146.599
 379  1221.694
 380  1285.802
 381  1694.962
 382  1379.526
 383  1602.633
 384  1257.144
 385  695.1352
 386  740.034
 387  629.9021
 388  1186.549
 389  1424.709
 390  2115.672
 391  2033.063
 392  1277.332
 393  1033.826
 394  571.9667
 395  482.0006
 396  1004.831
 397  1562.233
 398  1565.559
 399  1097.877
 400  1159.676
 401  866.4503
 402  661.7631
 403  574.7622
 404  1075.314
 405  1323.955
 406  1456.657
 407  1503.029
 408  1400.735
 409  1152.385
 410  1203.4
 411  1451.725
 412  1267.336
 413  1138.773
 414  1439.111
 415  1348.394
 416  1626.451
 417  1619.017
 418  1546.628
 419  1341.353
 420  1655.519
 421  2174.064
 422  1912.756
 423  1933.347
 424  1768.795
 425  1728.926
 426  1852.273
 427  1522.909
 428  1547.794
 429  1555.585
 430  1574.284
 431  1379.348
 432  1239.672
 433  1033.544
 434  962.4398
 435  888.1132
 436  789.3259
 437  1364.051
 438  1570.293
 439  1508.791
 440  1632.279
 441  2183.741
 442  1718.981
 443  1327.424
 444  1453.521
 445  1715.924
 446  1510.461
 447  1543.62
 448  2031.878
 449  2244.822
 450  1892.177
 451  1603.436
 452  1315.655
 453  1242.576
 454  930.6611
 455  1435.891
 456  1613.383
 457  1634.56
 458  1423.012
 459  1607.851
 460  1256.98
 461  1089.753
 462  1326.455
 463  1375.173
 464  1435.101
 465  1992.487
 466  2260.061
 467  1651.458
 468  684.4647
 469  952.8419
 470  1169.87
 471  1224.379
 472  1419.788
 473  1755.473
 474  2103.022
 475  1637.901
 476  1164.954
 477  886.245
 478  807.7284
 479  741.1348
 480  1631.473
 481  1677.603
 482  850.1102
 483  722.6809
 484  1118.458
 485  772.3428
 486  843.5433
 487  1200.08
 488  1401.541
 489  1189.66
 490  1512.702
 491  1790.652
 492  1613.83
 493  864.7713
 494  912.7464
 495  1412.737
 496  1140.044
 497  960.1893
 498  1456.328
 499  1714.12
 500  1550.63
 501  760.8945
 502  835.0987
 503  960.8788
 504  1056.956
 505  1590.853
 506  1545.279
 507  1556.796
 508  1596.226
 509  1045.895
 510  806.5795
 511  621.6243
