# Input file       =  1200585540.105412_cleaned.dat
# Candidate        =  PSR_0332+5434
# Telescope        =  AR
# Epoch_topo       =  58139.666193349673
# Epoch_bary       =  N/A
# T_sample         =  0.002
# Data Folded      =  7340032
# Data Avg         =  0.305720335412063
# Data StdDev      =  4.47354245054405 
# Profile Bins     =  1024
# Profile Avg      =  2191.20178036852 
# Profile StdDev   =  378.748185716161 
# Reduced chi-sqr  =  0.775
# Prob(Noise)      <  1   (~0.0 sigma)
# P_topo (ms)      =  714.570797158616  +/- 4.16e-05
# P'_topo (s/s)    =  -0                +/- 2.19e-11
# P''_topo (s/s^2) =  0                 +/- 9.69e-15
# P_bary (ms)      =  N/A
# P'_bary (s/s)    =  N/A
# P''_bary (s/s^2) =  N/A
# P_orb (s)        =  N/A
# asin(i)/c (s)    =  N/A
# eccentricity     =  N/A
# w (rad)          =  N/A
# T_peri           =  N/A
######################################################
   0  2138.843
   1  1804.885
   2  1840.018
   3  1896.386
   4  1967.316
   5  2031.062
   6  2161.261
   7  2204.704
   8  2264.11
   9  2243.304
  10  2232.469
  11  2090.333
  12  1998.996
  13  2169.599
  14  2031.361
  15  1892.046
  16  1790.519
  17  1828.762
  18  1809.218
  19  1657.413
  20  1771.094
  21  1823.249
  22  1825.058
  23  1930.078
  24  2048.615
  25  1954.656
  26  1922.183
  27  1973.338
  28  2100.06
  29  1961.324
  30  1873.251
  31  1926.048
  32  1833.347
  33  1722.616
  34  1837.841
  35  1841.89
  36  1753.351
  37  1711.724
  38  1818.01
  39  1854.402
  40  1864.963
  41  1966.782
  42  2181.518
  43  2167.637
  44  2203.459
  45  2252.373
  46  2221.57
  47  2221.629
  48  2239.373
  49  2202.019
  50  2017.548
  51  1713.879
  52  1832.644
  53  1957.15
  54  1926.545
  55  1927.086
  56  1963.599
  57  1944.893
  58  1876.181
  59  2015.543
  60  2106.312
  61  2125.054
  62  1998.521
  63  2057.999
  64  1986.768
  65  2043.832
  66  2121.061
  67  2114.412
  68  2166.016
  69  2268.524
  70  2405.965
  71  2327.382
  72  2227.178
  73  2170.583
  74  2100.937
  75  2045.243
  76  2007.011
  77  2166.174
  78  2195.908
  79  2122.126
  80  1971.308
  81  2024.154
  82  2076.974
  83  2106.79
  84  2247.294
  85  2418.153
  86  2298.638
  87  2089.234
  88  2075.001
  89  2171.833
  90  2101.53
  91  2131.906
  92  2179.022
  93  2062.433
  94  1976.195
  95  2006.183
  96  2192.7
  97  2219.405
  98  2322.002
  99  2380.546
 100  2370.644
 101  2378.759
 102  2498.904
 103  2350.212
 104  2237.749
 105  2164.103
 106  2202.349
 107  2295.189
 108  2254.452
 109  2381.655
 110  2354.254
 111  2323.959
 112  2352.587
 113  2401.258
 114  2438.096
 115  2268.861
 116  2193.957
 117  2351.698
 118  2350.576
 119  2295.03
 120  2382.966
 121  2372.073
 122  2336.349
 123  2242.952
 124  2304.251
 125  2313.316
 126  2212.084
 127  2160.881
 128  2206.251
 129  2055.881
 130  2155.953
 131  2280.373
 132  2321.424
 133  2282.347
 134  2234.737
 135  2302.41
 136  2080.066
 137  1986.317
 138  2159.12
 139  2259.218
 140  2138.605
 141  2112.509
 142  2203.335
 143  2278.017
 144  2150.34
 145  2106.74
 146  2133.854
 147  2103.619
 148  2082.411
 149  2239.163
 150  2284.177
 151  2322.441
 152  2298.993
 153  2239.359
 154  2133.538
 155  2051.467
 156  2126.094
 157  2079.862
 158  1918.351
 159  1956.831
 160  2048.116
 161  1988.926
 162  2060.415
 163  2157.612
 164  2271.033
 165  2192.281
 166  2223.188
 167  2402.075
 168  2416.272
 169  2476.929
 170  2440.268
 171  2419.428
 172  2206.502
 173  2083.292
 174  2192.744
 175  2322.705
 176  2380.243
 177  2402.83
 178  2261.552
 179  2106.441
 180  2085.794
 181  2320.801
 182  2478.168
 183  2360.123
 184  2312.962
 185  2260.405
 186  2170.174
 187  1995.493
 188  1958.848
 189  2046.27
 190  2279.052
 191  2367.174
 192  2434.908
 193  2366.676
 194  2301.569
 195  2295.635
 196  2154.499
 197  2059.019
 198  1917.22
 199  1992.167
 200  2022.807
 201  2138.26
 202  2085.008
 203  2098.987
 204  2013.833
 205  2009.834
 206  2090.955
 207  2089.436
 208  2110.015
 209  2078.866
 210  2143.918
 211  2112.792
 212  2094.907
 213  2128.749
 214  2184.332
 215  2084.655
 216  2051.549
 217  2163.855
 218  2177.353
 219  2194.681
 220  2264.137
 221  2344.565
 222  2235.317
 223  2126.871
 224  2141.142
 225  2084.052
 226  1977.205
 227  2037.283
 228  2102.745
 229  2148.482
 230  2118.591
 231  2242.606
 232  2260.362
 233  2173.383
 234  2183.242
 235  2310.088
 236  2189.894
 237  2143.43
 238  2093.851
 239  2056.08
 240  1856.191
 241  1927.622
 242  2112.941
 243  2200.317
 244  2135.432
 245  2166.178
 246  2226.409
 247  2204.787
 248  2226.895
 249  2084.478
 250  1940.337
 251  1832.778
 252  1761.87
 253  1824.284
 254  1808.445
 255  1897.776
 256  2145.329
 257  2150.983
 258  2103.447
 259  2027.93
 260  2072.904
 261  2151.154
 262  2078.499
 263  2094.228
 264  1994.144
 265  1973.711
 266  1862.806
 267  1926.37
 268  2012.933
 269  1991.645
 270  1918.129
 271  1891.646
 272  1838.142
 273  1827.481
 274  1781.102
 275  1744.686
 276  1641.953
 277  1623.668
 278  1674.293
 279  1713.927
 280  1704.719
 281  1834.483
 282  1861.707
 283  1783.696
 284  1796.329
 285  1863.498
 286  1981.604
 287  1914.496
 288  1821.862
 289  1840.655
 290  2009.838
 291  2126.07
 292  2276.339
 293  2141.882
 294  2130.878
 295  2093.484
 296  2061.906
 297  1904.393
 298  1869.87
 299  2027.134
 300  2162.422
 301  2138.768
 302  2191.038
 303  2181.065
 304  2083.558
 305  2087.104
 306  2351.765
 307  2356.167
 308  2254.665
 309  2187.827
 310  2264.849
 311  2163.903
 312  2048.428
 313  2147.094
 314  2128.61
 315  1982.074
 316  1982.396
 317  2005.156
 318  2055.279
 319  2091.218
 320  2220.468
 321  2264.125
 322  2041.849
 323  1929.976
 324  1990.354
 325  2131.871
 326  2027.946
 327  1997.452
 328  2139.353
 329  2095.965
 330  1966.809
 331  1829.827
 332  1902.92
 333  1818.578
 334  1964.756
 335  2038.318
 336  2049.735
 337  1952.308
 338  2013.095
 339  2146.798
 340  2173.237
 341  2126.429
 342  2173.064
 343  2195.96
 344  2259.794
 345  2238.533
 346  2300.449
 347  2184.267
 348  2055.1
 349  2038.629
 350  2088.156
 351  2106.271
 352  2169.105
 353  2238.599
 354  2312.507
 355  2121.952
 356  2161.971
 357  2220.194
 358  2152.982
 359  2231.564
 360  2309.796
 361  2248.676
 362  2069.009
 363  2095.353
 364  2226.02
 365  2221.446
 366  2165.706
 367  2270.664
 368  2368.765
 369  2241.454
 370  2134.726
 371  2013.466
 372  2211.496
 373  2247.856
 374  2230.012
 375  2225.092
 376  2209.727
 377  2188.94
 378  2347.387
 379  2373.692
 380  2403.782
 381  2313.74
 382  2267.729
 383  2267.384
 384  2214.983
 385  2174.883
 386  2198.866
 387  2294.595
 388  2367.521
 389  2414.485
 390  2475.382
 391  2475.396
 392  2419.389
 393  2334.062
 394  2328.519
 395  2206.432
 396  2146.687
 397  2150.64
 398  2121.347
 399  2180.6
 400  2166.903
 401  2152.701
 402  2082.519
 403  2149.479
 404  2136.934
 405  2054.291
 406  2066.856
 407  2178.054
 408  2195.098
 409  2072.113
 410  1971.806
 411  2070.769
 412  1937.148
 413  1882.098
 414  2003.803
 415  2212.997
 416  2253.959
 417  2287.655
 418  2294.093
 419  2131.577
 420  1998.4
 421  2158.832
 422  2231.188
 423  2242.982
 424  2151.554
 425  2161.835
 426  2134.454
 427  2194.802
 428  2402.98
 429  2289.583
 430  2153.371
 431  2042.736
 432  2254.333
 433  2273.586
 434  2116.291
 435  2247.323
 436  2290.122
 437  2322.924
 438  2289.499
 439  2399.719
 440  2499.904
 441  2313.375
 442  2377.606
 443  2348.215
 444  2254.015
 445  2170.99
 446  2317.332
 447  2209.871
 448  2198.314
 449  2113.121
 450  2240.272
 451  2038.834
 452  1888.335
 453  2031.686
 454  2132.636
 455  2042.465
 456  2084.677
 457  2185.942
 458  2261.04
 459  2152.076
 460  2076.119
 461  2116.889
 462  2049.916
 463  2162.824
 464  2329.046
 465  2355.548
 466  2163.056
 467  2066.603
 468  1995.209
 469  1982.603
 470  1985.568
 471  2103.235
 472  2103.944
 473  1921.488
 474  2067.495
 475  2221.863
 476  2273.321
 477  2252.253
 478  2352.034
 479  2530.906
 480  2378.108
 481  2238.093
 482  2191.429
 483  2164.048
 484  2072.096
 485  2084.85
 486  2125.245
 487  2030.36
 488  1935.804
 489  2058.417
 490  2118.612
 491  2108.526
 492  2248.725
 493  2387.73
 494  2276.62
 495  2163.771
 496  2234.839
 497  2320.324
 498  2213.25
 499  2341.051
 500  2543.798
 501  2602.222
 502  2441.772
 503  2531.286
 504  2623.087
 505  2566.073
 506  2466.709
 507  2461.981
 508  2347.04
 509  2239.932
 510  2329.302
 511  2255.094
 512  2151.289
 513  2038.321
 514  2152.64
 515  2151.144
 516  2241.548
 517  2310.325
 518  2384.08
 519  2267.793
 520  2271.257
 521  2361.635
 522  2452.522
 523  2396.227
 524  2342.377
 525  2391.219
 526  2373.952
 527  2190.624
 528  2116.417
 529  2080.905
 530  2167.533
 531  2225.359
 532  2356.189
 533  2276.31
 534  2354.454
 535  2365.239
 536  2438.122
 537  2272.002
 538  2226.948
 539  2285.388
 540  2417.969
 541  2497.16
 542  2434.857
 543  2209.746
 544  2201.037
 545  2245.991
 546  2185.129
 547  2165.31
 548  2092.091
 549  2130.066
 550  2302.386
 551  2380.433
 552  2457.865
 553  2354.372
 554  2449.648
 555  2402.674
 556  2317.604
 557  2202.863
 558  2089.088
 559  2032.568
 560  2033.906
 561  2195.855
 562  2248.833
 563  2282.23
 564  2227.437
 565  2206.864
 566  2118.165
 567  1958.064
 568  1982.547
 569  2054.691
 570  2061.353
 571  2146.37
 572  2142.486
 573  2236.629
 574  2301.906
 575  2437.617
 576  2339.307
 577  2163.489
 578  2187.336
 579  2276.781
 580  2198.737
 581  2251.004
 582  2418.449
 583  2380.614
 584  1978.855
 585  1869.288
 586  1967.678
 587  2060.901
 588  1962.356
 589  2019.013
 590  2121.813
 591  2147.905
 592  2216.659
 593  2330.779
 594  2306.356
 595  2263.104
 596  2155.308
 597  2055.169
 598  1974.828
 599  2087.098
 600  2326.935
 601  2375.704
 602  2341.199
 603  2323.6
 604  2283.343
 605  2121.23
 606  1932.521
 607  1992.783
 608  2059.354
 609  2225.125
 610  2270.487
 611  2348.923
 612  2377.312
 613  2556.776
 614  2742.279
 615  2950.922
 616  3027.026
 617  3092.757
 618  3133.74
 619  2948.94
 620  2927.266
 621  2757.048
 622  2758.607
 623  2477.172
 624  2280.951
 625  2201.382
 626  2165.764
 627  2077.523
 628  2025.054
 629  2022.657
 630  1962.726
 631  1984.851
 632  1906.136
 633  2027.315
 634  1895.398
 635  1948.239
 636  2162.244
 637  2140.686
 638  2168.871
 639  2137.357
 640  2221.093
 641  2145.173
 642  2025.191
 643  1975.448
 644  1933.461
 645  1977.1
 646  2153.997
 647  2330.348
 648  2119.061
 649  2176.861
 650  2375.728
 651  2429.155
 652  2257.602
 653  2035.988
 654  2155.47
 655  2153.575
 656  2178.763
 657  2245.654
 658  2145.683
 659  2186.948
 660  2180.634
 661  2251.262
 662  2200.552
 663  2182.743
 664  2187.649
 665  2161.552
 666  1980.077
 667  1967.966
 668  2057.299
 669  2181.64
 670  2188.997
 671  2184.49
 672  2100.471
 673  2176.61
 674  2227.753
 675  2187.482
 676  2156.581
 677  2178.502
 678  2311.649
 679  2429.013
 680  2394.6
 681  2310.727
 682  2361.948
 683  2282.942
 684  2152.233
 685  2068.568
 686  2227.885
 687  2184.911
 688  2146.509
 689  2073.043
 690  2024.781
 691  1928.247
 692  1928.525
 693  2220.617
 694  2136.723
 695  2006.066
 696  1988.931
 697  2176.277
 698  2330.961
 699  2249.916
 700  2342.797
 701  2373.036
 702  2289.98
 703  2173.657
 704  2168.903
 705  2101.058
 706  2176.824
 707  2252.935
 708  2356.767
 709  2286.151
 710  2218.678
 711  2412.243
 712  2412.367
 713  2366.232
 714  2365.554
 715  2402.115
 716  2416.706
 717  2343.951
 718  2244.966
 719  2207.757
 720  2057.555
 721  2136.52
 722  2212.375
 723  2212.754
 724  2220.85
 725  2314.573
 726  2358.133
 727  2293.067
 728  2271.771
 729  2331.157
 730  2234.169
 731  2147.198
 732  2205.052
 733  2347.979
 734  2198.884
 735  2209.042
 736  2159.948
 737  2234.57
 738  2162.912
 739  2175.05
 740  2246.519
 741  2400.375
 742  2409.822
 743  2489.529
 744  2463.982
 745  2282.76
 746  2200.906
 747  2183.974
 748  2146.607
 749  2152.855
 750  2243.86
 751  2452.809
 752  2304.758
 753  2302.567
 754  2372.406
 755  2325.856
 756  2093.371
 757  1985.08
 758  2083.032
 759  2135.495
 760  2090.264
 761  2062.311
 762  2009.243
 763  1919.897
 764  1825.818
 765  1990.603
 766  2050.347
 767  2156.059
 768  2348.552
 769  2371.21
 770  2278.716
 771  2250.084
 772  2480.147
 773  2381.662
 774  2207.333
 775  2117.579
 776  2315.732
 777  2262.314
 778  2251.992
 779  2359.826
 780  2378.886
 781  2350.281
 782  2260.651
 783  2275.622
 784  2420.492
 785  2493.911
 786  2573.958
 787  2504.519
 788  2463.851
 789  2528.618
 790  2663.735
 791  2613.485
 792  2565.118
 793  2601.883
 794  2610.307
 795  2503.681
 796  2491.163
 797  2531.683
 798  2623.435
 799  2541.46
 800  2698.311
 801  2523.204
 802  2406.637
 803  2377.174
 804  2325.906
 805  2357.555
 806  2241.513
 807  2356.571
 808  2493.47
 809  2438.581
 810  2402.283
 811  2365.846
 812  2339.656
 813  2193.743
 814  2256.694
 815  2344.888
 816  2370.371
 817  2136.747
 818  2117
 819  2261.967
 820  2237.793
 821  2196.419
 822  2180.257
 823  2244.767
 824  2263.722
 825  2207.571
 826  2344.656
 827  2334.021
 828  2398.596
 829  2389.13
 830  2390.775
 831  2410.253
 832  2512.968
 833  2546.423
 834  2392.82
 835  2313.258
 836  2334.023
 837  2442.967
 838  2431.346
 839  2343.566
 840  2394.858
 841  2397.854
 842  2414.941
 843  2395.727
 844  2536.922
 845  2489.667
 846  2447.52
 847  2464.105
 848  2487.458
 849  2403.582
 850  2402.696
 851  2415.694
 852  2362.361
 853  2120.751
 854  2195.299
 855  2212.195
 856  2161.986
 857  2169.496
 858  2247.948
 859  2339.385
 860  2344.184
 861  2385.514
 862  2386.046
 863  2053.31
 864  1925.623
 865  1989.208
 866  2116.57
 867  2180.442
 868  2218.923
 869  2303.987
 870  2456.168
 871  2436.43
 872  2396.284
 873  2324.166
 874  2383.757
 875  2497.937
 876  2446.361
 877  2229.559
 878  2192.21
 879  2239.839
 880  2358.357
 881  2231.31
 882  2190.693
 883  2371.779
 884  2312.487
 885  2198.66
 886  2303.609
 887  2494.401
 888  2519.923
 889  2404.702
 890  2330.362
 891  2413.024
 892  2155.385
 893  2244.503
 894  2341.947
 895  2545.11
 896  2402.085
 897  2461.649
 898  2349.786
 899  2180.684
 900  2054.225
 901  2141.997
 902  2239.768
 903  2146.192
 904  2255.666
 905  2290.428
 906  2062.32
 907  2041.612
 908  2171.337
 909  2260.496
 910  2189.89
 911  2197.427
 912  2375.1
 913  2381.833
 914  2338.649
 915  2401.525
 916  2375.622
 917  2380.59
 918  2223.001
 919  2182.859
 920  2089.781
 921  2094.64
 922  2128.261
 923  2173.369
 924  2221.966
 925  2172.364
 926  2250.304
 927  2188.374
 928  2150.825
 929  2116.819
 930  2295.22
 931  2407.852
 932  2289.659
 933  2164.95
 934  2342.347
 935  2406.838
 936  2492.316
 937  2407.965
 938  2291.226
 939  2126.473
 940  1967.913
 941  2029.448
 942  2023.984
 943  2208.304
 944  2328.234
 945  2307.138
 946  2184.192
 947  2141.056
 948  2165.928
 949  2181.18
 950  2258.049
 951  2326.145
 952  2286.724
 953  2126.845
 954  2073.059
 955  2056.314
 956  2035.769
 957  2013.14
 958  2019.743
 959  2048.94
 960  2030.309
 961  2207.775
 962  2319.613
 963  2221.518
 964  2029.458
 965  1957.801
 966  2126.922
 967  2070.814
 968  2109.425
 969  2146.307
 970  2115.362
 971  1931.598
 972  1911.581
 973  2010.974
 974  1920.223
 975  1904.499
 976  1939.297
 977  2119.61
 978  2027.577
 979  2198.45
 980  2328.626
 981  2276.404
 982  2192.062
 983  2279.129
 984  2242.318
 985  2089.544
 986  1941.057
 987  1958.184
 988  1923.055
 989  1953.693
 990  2080.09
 991  2126.242
 992  2114.935
 993  2185.754
 994  2214.58
 995  2205.355
 996  2110.464
 997  2070.684
 998  2047.694
 999  1976.816
1000  2027.448
1001  2173.225
1002  2179.781
1003  2099.586
1004  2055.848
1005  2085.664
1006  2135.277
1007  2101.877
1008  2157.547
1009  2078.685
1010  2083.582
1011  2124.484
1012  2203.519
1013  2137.354
1014  2137.059
1015  2220.467
1016  2382.968
1017  2250.358
1018  2227.897
1019  2241.221
1020  2371.781
1021  2238.08
1022  2307.036
1023  2261.94
