# Input file       =  1200053887.114777_cleaned.dat
# Candidate        =  PSR_0332+5434
# Telescope        =  AR
# Epoch_topo       =  58133.512802254365
# Epoch_bary       =  N/A
# T_sample         =  0.002
# Data Folded      =  7208960
# Data Avg         =  0.138840571014125
# Data StdDev      =  4.58197934955011 
# Profile Bins     =  1024
# Profile Avg      =  977.487865368083 
# Profile StdDev   =  384.449638715286 
# Reduced chi-sqr  =  1.048
# Prob(Noise)      <  0.139   (~1.1 sigma)
# P_topo (ms)      =  714.566911524014  +/- 4.95e-05
# P'_topo (s/s)    =  -0                +/- 2.66e-11
# P''_topo (s/s^2) =  0                 +/- 1.2e-14
# P_bary (ms)      =  N/A
# P'_bary (s/s)    =  N/A
# P''_bary (s/s^2) =  N/A
# P_orb (s)        =  N/A
# asin(i)/c (s)    =  N/A
# eccentricity     =  N/A
# w (rad)          =  N/A
# T_peri           =  N/A
######################################################
   0  660.8362
   1  828.6705
   2  895.3151
   3  1004.819
   4  1086.262
   5  1123.41
   6  1246.399
   7  1175.731
   8  1349.966
   9  1456.482
  10  1417.429
  11  1288.172
  12  1103.215
  13  1085.618
  14  1019.059
  15  978.9493
  16  973.6674
  17  955.8908
  18  956.023
  19  1063.787
  20  987.4563
  21  856.684
  22  637.1955
  23  807.7438
  24  892.205
  25  823.2009
  26  885.3152
  27  849.5211
  28  967.9844
  29  759.4687
  30  730.3077
  31  736.3082
  32  736.7548
  33  652.376
  34  682.9391
  35  676.5372
  36  789.8317
  37  859.5894
  38  1102.944
  39  1259.256
  40  1293.668
  41  1501.569
  42  1462.712
  43  1416.629
  44  1264.044
  45  1111.273
  46  1027.729
  47  891.4118
  48  948.2047
  49  951.3425
  50  747.1583
  51  753.3958
  52  652.5264
  53  796.6652
  54  706.9418
  55  735.3153
  56  766.372
  57  813.7342
  58  913.2633
  59  1024.32
  60  963.7747
  61  1011.139
  62  940.6361
  63  981.2377
  64  765.5031
  65  626.4057
  66  515.055
  67  571.312
  68  734.4122
  69  997.2245
  70  1112.853
  71  1330.505
  72  1300.503
  73  1296.289
  74  1204.959
  75  1018.768
  76  1039.708
  77  1047.281
  78  1166.571
  79  985.892
  80  809.8494
  81  690.4591
  82  723.4941
  83  799.4497
  84  997.4117
  85  1015.239
  86  1024.485
  87  931.3281
  88  879.8886
  89  872.686
  90  852.5176
  91  938.6407
  92  906.012
  93  854.5186
  94  789.9886
  95  681.8234
  96  745.5034
  97  673.812
  98  771.4918
  99  677.5401
 100  726.8373
 101  792.7188
 102  919.4554
 103  949.9629
 104  1102.773
 105  1223.208
 106  1489.484
 107  1478.809
 108  1375.535
 109  1312.185
 110  1275.726
 111  1227.098
 112  869.1534
 113  703.9291
 114  650.8063
 115  858.1016
 116  914.5385
 117  1040.704
 118  986.9581
 119  1013.235
 120  843.3071
 121  842.4021
 122  715.2698
 123  731.9503
 124  873.0635
 125  852.7812
 126  787.4929
 127  729.741
 128  881.1396
 129  962.416
 130  848.2684
 131  823.2423
 132  920.3262
 133  1018.805
 134  1083.393
 135  1052.004
 136  1190.913
 137  1146.245
 138  1208.149
 139  1166.241
 140  1104.113
 141  1177.894
 142  1274.184
 143  1324.071
 144  1258.543
 145  1080.615
 146  1059.629
 147  971.5235
 148  1049.069
 149  1049.775
 150  1071.985
 151  1158.224
 152  1125.59
 153  1043.066
 154  857.731
 155  787.3782
 156  883.0853
 157  768.6643
 158  660.8357
 159  565.49
 160  639.5189
 161  764.9333
 162  721.7521
 163  566.4097
 164  576.5573
 165  800.8899
 166  1035.983
 167  1110.049
 168  1045.113
 169  1159.919
 170  1166.124
 171  1365.249
 172  1388.695
 173  1333.375
 174  1310.314
 175  1307.167
 176  1442.373
 177  1264.981
 178  1096.169
 179  973.6024
 180  886.3139
 181  744.0413
 182  674.6235
 183  708.246
 184  824.8378
 185  738.9979
 186  856.5826
 187  814.2786
 188  933.524
 189  829.295
 190  789.5115
 191  810.1117
 192  904.5188
 193  953.277
 194  991.4537
 195  771.4642
 196  604.2219
 197  505.3694
 198  562.447
 199  683.2375
 200  687.8054
 201  784.1104
 202  933.9097
 203  1058.908
 204  1301.997
 205  1297.834
 206  1262.911
 207  1145.031
 208  1069.074
 209  1132.241
 210  1010.309
 211  1018.116
 212  1008.228
 213  877.501
 214  702.2738
 215  541.6912
 216  659.9471
 217  814.5931
 218  811.574
 219  910.4886
 220  822.9531
 221  931.046
 222  910.2039
 223  920.2375
 224  1018.937
 225  913.9885
 226  842.6824
 227  670.4201
 228  551.3197
 229  525.9214
 230  603.7828
 231  677.4799
 232  767.3596
 233  767.692
 234  943.2343
 235  1002.166
 236  1207.975
 237  1354.395
 238  1297.482
 239  1373.169
 240  1320.72
 241  1212.385
 242  992.2114
 243  936.7739
 244  994.9433
 245  890.1806
 246  736.3521
 247  757.7661
 248  856.7335
 249  814.4785
 250  837.2996
 251  801.7548
 252  903.4587
 253  986.3236
 254  1110.175
 255  1244.132
 256  1165.429
 257  1108.001
 258  994.6873
 259  947.8393
 260  848.2271
 261  792.447
 262  820.4647
 263  836.3325
 264  837.6276
 265  909.9952
 266  887.7732
 267  874.4892
 268  865.3652
 269  1039.494
 270  1124.211
 271  1184.309
 272  1213.013
 273  1129.112
 274  1100.764
 275  1102.004
 276  1239.601
 277  1384.167
 278  1325.05
 279  1192.602
 280  1121.216
 281  1096.03
 282  1173.401
 283  1104.822
 284  1055.101
 285  938.3881
 286  900.2561
 287  922.3824
 288  854.5024
 289  849.4562
 290  884.2962
 291  865.794
 292  854.9195
 293  737.4126
 294  741.7145
 295  712.6083
 296  797.283
 297  1020.563
 298  1174.332
 299  1275.659
 300  1218.233
 301  1202.898
 302  1173.567
 303  1169.459
 304  1243.191
 305  1279.34
 306  1274.639
 307  1351.974
 308  1307.058
 309  1332.4
 310  1307.515
 311  1264.566
 312  1142.636
 313  965.1129
 314  1013.505
 315  1142.045
 316  1217.981
 317  1120.335
 318  972.4742
 319  886.217
 320  810.8991
 321  944.5211
 322  948.3202
 323  1001.751
 324  889.7723
 325  837.7536
 326  723.8735
 327  673.2333
 328  654.066
 329  717.3347
 330  822.8871
 331  786.527
 332  757.6014
 333  646.4885
 334  830.9733
 335  1006.134
 336  1202.849
 337  1221.742
 338  1143.189
 339  1156.884
 340  1169.43
 341  1202.63
 342  1200.722
 343  1033.637
 344  1002.918
 345  910.9683
 346  885.3928
 347  818.3842
 348  833.7662
 349  913.8618
 350  830.5363
 351  897.848
 352  904.2307
 353  793.9722
 354  766.2902
 355  682.7382
 356  764.8786
 357  795.4761
 358  776.7956
 359  733.2542
 360  652.8925
 361  552.3037
 362  487.1757
 363  437.7845
 364  656.3441
 365  824.9372
 366  905.1658
 367  1118.327
 368  1149.502
 369  1378.616
 370  1297.462
 371  1268.117
 372  1202.814
 373  1127.917
 374  1060.51
 375  952.348
 376  1015.528
 377  1036.309
 378  879.6771
 379  692.0896
 380  674.2784
 381  775.5763
 382  960.4376
 383  983.7918
 384  1105.363
 385  1118.207
 386  1063.98
 387  1061.666
 388  1136.1
 389  1161.613
 390  1046.149
 391  962.1462
 392  965.0176
 393  718.5036
 394  663.2052
 395  725.2606
 396  775.9342
 397  693.5729
 398  661.1409
 399  804.3337
 400  1056.457
 401  1157.012
 402  1340.23
 403  1347.002
 404  1509.842
 405  1466.518
 406  1414.887
 407  1320.897
 408  1242.963
 409  1170.74
 410  1113.616
 411  1071.004
 412  966.3283
 413  937.5057
 414  824.126
 415  834.8611
 416  710.0167
 417  746.7017
 418  789.1542
 419  918.0994
 420  907.4933
 421  914.961
 422  1032.409
 423  1154.774
 424  1136.046
 425  1146.941
 426  1101.914
 427  1030.778
 428  982.9323
 429  946.6336
 430  999.0079
 431  880.639
 432  950.6482
 433  1089.174
 434  1124.949
 435  1208.008
 436  1209.723
 437  1233.711
 438  1118.393
 439  1166.822
 440  1089.716
 441  992.3101
 442  846.7906
 443  959.7922
 444  1063.688
 445  1045.048
 446  1041.559
 447  1054.568
 448  1008.436
 449  930.9185
 450  880.5825
 451  887.191
 452  757.9735
 453  735.4568
 454  851.8993
 455  927.3813
 456  850.1947
 457  819.8735
 458  686.7111
 459  679.5425
 460  577.6765
 461  663.054
 462  680.0705
 463  798.994
 464  960.4722
 465  1050.054
 466  1072.611
 467  1161.071
 468  1349.546
 469  1449.036
 470  1350.285
 471  1247.144
 472  1114.562
 473  989.6821
 474  1022.146
 475  1106.004
 476  1200.613
 477  1049.649
 478  956.4028
 479  895.9505
 480  929.2266
 481  1038.345
 482  1085.135
 483  1065.604
 484  941.4178
 485  867.9946
 486  790.2386
 487  709.5933
 488  715.6667
 489  847.4323
 490  928.1338
 491  859.0568
 492  815.9828
 493  794.5599
 494  775.8605
 495  807.1098
 496  899.58
 497  1020.758
 498  1012.194
 499  1023.715
 500  1150.016
 501  1238.541
 502  1316.618
 503  1212.229
 504  1142.948
 505  1001.372
 506  1097.291
 507  1219.866
 508  1119.828
 509  874.7453
 510  709.1267
 511  565.5084
 512  582.6632
 513  763.2274
 514  888.0697
 515  928.9492
 516  808.6678
 517  883.5746
 518  799.3849
 519  873.4291
 520  957.0966
 521  935.7545
 522  935.4591
 523  714.6689
 524  646.217
 525  645.1276
 526  646.2134
 527  768.123
 528  730.3189
 529  749.1973
 530  835.3926
 531  974.5198
 532  1224.732
 533  1248.459
 534  1355.85
 535  1362.923
 536  1367.287
 537  1283.808
 538  1341.031
 539  1210.385
 540  1175.753
 541  958.0855
 542  1012.946
 543  1027.239
 544  1013.173
 545  835.6754
 546  882.908
 547  1017.796
 548  1176.141
 549  1069.533
 550  1106.075
 551  1015.666
 552  1021.764
 553  1057.972
 554  1024.832
 555  936.059
 556  921.0612
 557  904.4843
 558  812.2565
 559  677.5209
 560  773.1862
 561  871.6729
 562  980.7873
 563  1044.498
 564  955.7468
 565  965.1163
 566  1040.102
 567  1274.725
 568  1323.261
 569  1322.102
 570  1253.88
 571  1321.771
 572  1347.427
 573  1359.147
 574  1317.013
 575  1201.437
 576  1113.433
 577  923.6569
 578  924.8168
 579  848.1553
 580  903.5226
 581  892.6487
 582  830.9058
 583  882.8898
 584  1005.111
 585  1064.619
 586  1055.177
 587  962.0182
 588  1005.483
 589  886.1264
 590  825.3646
 591  802.196
 592  781.2874
 593  778.6121
 594  817.8405
 595  844.6219
 596  849.0297
 597  920.6641
 598  1155.072
 599  1233.783
 600  1301.705
 601  1315.645
 602  1440.301
 603  1323.789
 604  1469.3
 605  1419.077
 606  1410.673
 607  1263.383
 608  1244.129
 609  1314.494
 610  1143.615
 611  1118.866
 612  1108.64
 613  1224.344
 614  1310.702
 615  1367.98
 616  1467.112
 617  1450.088
 618  1448.323
 619  1600.224
 620  1611.242
 621  1580.824
 622  1361.982
 623  1325.047
 624  1203.766
 625  1034.65
 626  1048.734
 627  1084.367
 628  1006.737
 629  886.8441
 630  891.2626
 631  1002.433
 632  1005.729
 633  994.2006
 634  1053.759
 635  1030.121
 636  1123.959
 637  1252.722
 638  1257.661
 639  1289.805
 640  1163.6
 641  1092.937
 642  975.1903
 643  913.455
 644  936.3251
 645  937.6806
 646  1003.651
 647  1000.886
 648  886.7222
 649  800.1008
 650  793.3914
 651  717.0684
 652  768.4574
 653  688.8743
 654  765.6494
 655  634.8918
 656  679.5613
 657  702.7349
 658  797.2437
 659  758.671
 660  753.9988
 661  775.3266
 662  895.3867
 663  1095.298
 664  1182.375
 665  1117.5
 666  1007.7
 667  1028.832
 668  1109.89
 669  1215.867
 670  1119.347
 671  1041.753
 672  963.8743
 673  956.9832
 674  930.1331
 675  858.4622
 676  810.8372
 677  772.0654
 678  754.153
 679  832.0557
 680  849.6186
 681  827.9174
 682  839.1591
 683  950.1841
 684  1040.234
 685  900.2525
 686  906.8342
 687  847.5459
 688  771.8512
 689  598.1761
 690  616.2152
 691  726.1985
 692  829.3636
 693  769.4521
 694  744.9657
 695  763.0085
 696  931.7838
 697  1055.675
 698  1201.516
 699  1249.423
 700  1328.458
 701  1364.025
 702  1378.812
 703  1279.697
 704  1166.495
 705  1043.307
 706  979.3661
 707  836.0145
 708  803.2392
 709  729.0682
 710  717.7949
 711  756.109
 712  791.8484
 713  856.5087
 714  922.963
 715  874.0981
 716  903.9435
 717  874.0436
 718  844.3314
 719  835.2948
 720  788.4899
 721  734.5486
 722  475.5768
 723  531.6454
 724  613.9423
 725  699.2609
 726  593.5808
 727  650.3589
 728  783.3699
 729  985.5729
 730  1090.453
 731  1145.056
 732  1175.343
 733  1184.47
 734  1211.646
 735  1213.252
 736  1234.208
 737  1244.896
 738  1155.064
 739  1109.288
 740  879.3746
 741  900.8254
 742  916.5593
 743  878.0881
 744  873.9075
 745  859.0994
 746  1046.693
 747  911.006
 748  857.0345
 749  844.9534
 750  1000.969
 751  1109.161
 752  1148.081
 753  1080.577
 754  1067.131
 755  959.2524
 756  1025.058
 757  902.0577
 758  807.8124
 759  676.9107
 760  716.4438
 761  729.9227
 762  825.2166
 763  839.1769
 764  925.2632
 765  990.0764
 766  1143.67
 767  1331.738
 768  1374.634
 769  1454.433
 770  1308.061
 771  1249.018
 772  1193.916
 773  1096.781
 774  1127.593
 775  995.9593
 776  1015.62
 777  910.5103
 778  884.7613
 779  867.4528
 780  781.6732
 781  725.4305
 782  672.2394
 783  673.6638
 784  748.3005
 785  733.0691
 786  712.4592
 787  797.1663
 788  879.3709
 789  1004.034
 790  796.8239
 791  686.7087
 792  668.8138
 793  882.0338
 794  977.1301
 795  1021.747
 796  961.7461
 797  1114.167
 798  1185.302
 799  1141.684
 800  1127.043
 801  1083.335
 802  1230.064
 803  1107.698
 804  1151.393
 805  1126.981
 806  1063.191
 807  1017.428
 808  848.6156
 809  875.2706
 810  935.6154
 811  1062.314
 812  1148.766
 813  848.4537
 814  768.1013
 815  787.8401
 816  939.7628
 817  941.154
 818  832.8423
 819  824.4654
 820  850.7833
 821  838.7597
 822  700.8264
 823  463.4304
 824  349.9023
 825  566.3839
 826  768.9727
 827  963.8234
 828  1001.717
 829  1165.962
 830  1200.658
 831  1179.159
 832  1269.686
 833  1354.157
 834  1462.22
 835  1481.17
 836  1380.676
 837  1270.085
 838  1043.628
 839  1085.478
 840  1055.676
 841  944.7607
 842  717.5283
 843  607.198
 844  679.8779
 845  835.9708
 846  996.4229
 847  1158.783
 848  1054.348
 849  1005.346
 850  934.3027
 851  862.0956
 852  842.8582
 853  665.0751
 854  659.4396
 855  621.5884
 856  720.7101
 857  761.4754
 858  712.9274
 859  771.0829
 860  1016.073
 861  1090.086
 862  1182.553
 863  1089.875
 864  1220.132
 865  1208.351
 866  1190.544
 867  1186.03
 868  1129.619
 869  1081.388
 870  1056.746
 871  1080.712
 872  1191.368
 873  1085.782
 874  1047.656
 875  1002.933
 876  941.638
 877  1096.837
 878  1054.747
 879  1116.919
 880  1002.164
 881  1036.069
 882  1135.622
 883  1019.487
 884  1034.072
 885  920.4791
 886  807.842
 887  691.7912
 888  615.7741
 889  593.4137
 890  499.3297
 891  451.6915
 892  570.7667
 893  772.1901
 894  1028.743
 895  1250.818
 896  1244.637
 897  1253.562
 898  1332.027
 899  1550.291
 900  1585.899
 901  1386.35
 902  1423.619
 903  1340.439
 904  1358.46
 905  1267.384
 906  1060.961
 907  952.7497
 908  847.5834
 909  1013.484
 910  1007.16
 911  851.9337
 912  836.933
 913  852.8401
 914  999.7051
 915  1032.21
 916  1043.296
 917  1210.919
 918  1186.521
 919  1147.028
 920  926.1039
 921  839.6332
 922  776.8979
 923  658.2681
 924  663.0647
 925  639.2696
 926  641.5577
 927  682.6264
 928  744.4489
 929  759.2067
 930  855.7505
 931  990.541
 932  1249.907
 933  1246.785
 934  1177.784
 935  1264.743
 936  1224.305
 937  1322.605
 938  1256.23
 939  1199.782
 940  1091.884
 941  971.1564
 942  1101.522
 943  972.2219
 944  816.6191
 945  805.9746
 946  865.6366
 947  925.8103
 948  934.9891
 949  863.7511
 950  840.3151
 951  570.556
 952  648.6813
 953  673.7645
 954  765.1172
 955  772.3972
 956  787.2957
 957  775.462
 958  844.6337
 959  934.5259
 960  1178.022
 961  1048.06
 962  1070.478
 963  1122.963
 964  1293.446
 965  1502.129
 966  1316.957
 967  1344.399
 968  1157.011
 969  1218.47
 970  1244.549
 971  1313.571
 972  1309.086
 973  1107.216
 974  980.4751
 975  971.8058
 976  893.8558
 977  913.8665
 978  864.7643
 979  890.5164
 980  850.2026
 981  813.1386
 982  917.8771
 983  856.5488
 984  805.1886
 985  691.5127
 986  685.1558
 987  820.1329
 988  875.1738
 989  913.1112
 990  954.1263
 991  964.8636
 992  902.5785
 993  949.1786
 994  1005.909
 995  1188.889
 996  1102.338
 997  1239.006
 998  1262.629
 999  1206.722
1000  1163.169
1001  1162.378
1002  1271.81
1003  1128.335
1004  1026.452
1005  1037.485
1006  984.9979
1007  909.1153
1008  859.5614
1009  983.7166
1010  1016.72
1011  878.8327
1012  849.6845
1013  886.4156
1014  997.6836
1015  982.4546
1016  781.4878
1017  711.881
1018  771.674
1019  886.739
1020  765.1183
1021  618.4005
1022  613.4296
1023  695.0667
