# Input file       =  1200169617.116321_cleaned.dat
# Candidate        =  PSR_0332+5434
# Telescope        =  AR
# Epoch_topo       =  58134.852269864830
# Epoch_bary       =  N/A
# T_sample         =  0.002
# Data Folded      =  7340032
# Data Avg         =  0.10184630640423 
# Data StdDev      =  1.00032025536832 
# Profile Bins     =  512
# Profile Avg      =  1459.90559732437 
# Profile StdDev   =  119.771381524432 
# Reduced chi-sqr  =  0.951
# Prob(Noise)      <  0.781   (~0.0 sigma)
# P_topo (ms)      =  714.568154074856  +/- 0.000114
# P'_topo (s/s)    =  -0                +/- 6.02e-11
# P''_topo (s/s^2) =  0                 +/- 2.66e-14
# P_bary (ms)      =  N/A
# P'_bary (s/s)    =  N/A
# P''_bary (s/s^2) =  N/A
# P_orb (s)        =  N/A
# asin(i)/c (s)    =  N/A
# eccentricity     =  N/A
# w (rad)          =  N/A
# T_peri           =  N/A
######################################################
   0  1507.856
   1  1430.667
   2  1452.175
   3  1513.858
   4  1523.906
   5  1368.025
   6  1284.885
   7  1415.568
   8  1438.821
   9  1448.233
  10  1500.895
  11  1453.499
  12  1370.471
  13  1424.162
  14  1523.138
  15  1484.481
  16  1482.063
  17  1535.378
  18  1544.892
  19  1483.718
  20  1518.902
  21  1523.601
  22  1459.437
  23  1454.397
  24  1391.319
  25  1486.559
  26  1427.305
  27  1418.617
  28  1362.445
  29  1478.982
  30  1553.791
  31  1423.098
  32  1430.398
  33  1361.45
  34  1413.292
  35  1430.364
  36  1542.677
  37  1518.71
  38  1457.195
  39  1425.528
  40  1520.459
  41  1525.448
  42  1407.983
  43  1510.832
  44  1630.537
  45  1518.939
  46  1358.342
  47  1367.412
  48  1475.983
  49  1423.692
  50  1306.879
  51  1436.758
  52  1501.686
  53  1412.839
  54  1539.457
  55  1540.016
  56  1405.719
  57  1465.42
  58  1626.461
  59  1497.917
  60  1501.022
  61  1448.901
  62  1495.123
  63  1475.239
  64  1434.855
  65  1530.107
  66  1548.848
  67  1455.402
  68  1474.672
  69  1419.659
  70  1383.458
  71  1279.564
  72  1360.533
  73  1423.415
  74  1444.353
  75  1394.345
  76  1469.641
  77  1466.765
  78  1413.18
  79  1463.673
  80  1432.297
  81  1495.361
  82  1498.13
  83  1562.184
  84  1572.329
  85  1497.831
  86  1395.474
  87  1444.431
  88  1443.329
  89  1371.205
  90  1427.12
  91  1550.491
  92  1535.579
  93  1612.697
  94  1544.077
  95  1486.932
  96  1525.088
  97  1513.207
  98  1552.145
  99  1461.282
 100  1563.451
 101  1515.703
 102  1410.98
 103  1387.518
 104  1469.873
 105  1555.062
 106  1544.566
 107  1511.488
 108  1428.552
 109  1390.509
 110  1408.235
 111  1496.17
 112  1476.002
 113  1480.464
 114  1479.136
 115  1552.611
 116  1602.015
 117  1496.746
 118  1522.823
 119  1680.781
 120  1599.651
 121  1517.785
 122  1413.295
 123  1427.393
 124  1532.766
 125  1616.609
 126  1619.975
 127  1537.195
 128  1478.072
 129  1543.972
 130  1641.851
 131  1585.482
 132  1510.638
 133  1394.339
 134  1443.125
 135  1527.822
 136  1436.508
 137  1510.416
 138  1476.921
 139  1487.162
 140  1540.151
 141  1560.74
 142  1400.65
 143  1416.609
 144  1464.128
 145  1463.98
 146  1333.562
 147  1322.968
 148  1481.174
 149  1501.501
 150  1514.63
 151  1490.556
 152  1477.202
 153  1435.833
 154  1454.149
 155  1405.74
 156  1420.876
 157  1472.812
 158  1436.934
 159  1357.659
 160  1314.846
 161  1486.85
 162  1483.036
 163  1540.099
 164  1526.968
 165  1402.965
 166  1426.268
 167  1503.113
 168  1488.062
 169  1556.377
 170  1524.032
 171  1532.898
 172  1552.505
 173  1513.021
 174  1543.325
 175  1451.714
 176  1507.317
 177  1550.174
 178  1564.702
 179  1550.286
 180  1587.323
 181  1517.32
 182  1376.22
 183  1418.818
 184  1429.62
 185  1510.371
 186  1515.373
 187  1427.388
 188  1386.499
 189  1390.724
 190  1463.498
 191  1493.616
 192  1493.367
 193  1525.938
 194  1588.334
 195  1450.008
 196  1391.727
 197  1415.602
 198  1483.629
 199  1568.727
 200  1648.066
 201  1571.333
 202  1517.336
 203  1538.308
 204  1541.761
 205  1618.841
 206  1586.384
 207  1623.368
 208  1701.619
 209  1829.735
 210  1995.221
 211  1878.822
 212  1743.942
 213  1593.748
 214  1442.724
 215  1343.147
 216  1424.16
 217  1522.179
 218  1506.016
 219  1411.623
 220  1395.912
 221  1406.362
 222  1426.521
 223  1539.469
 224  1467.353
 225  1454.078
 226  1622.098
 227  1467.653
 228  1392.716
 229  1426.165
 230  1499.345
 231  1453.586
 232  1507.104
 233  1523.261
 234  1533.2
 235  1509.576
 236  1444.339
 237  1567.078
 238  1568.21
 239  1637.311
 240  1633.029
 241  1568.471
 242  1450.675
 243  1511.187
 244  1568.309
 245  1490.79
 246  1516.132
 247  1585.377
 248  1463.298
 249  1439.836
 250  1435.871
 251  1400.894
 252  1407.646
 253  1482.292
 254  1511.901
 255  1480.754
 256  1410.219
 257  1355.851
 258  1480.429
 259  1560.941
 260  1465.506
 261  1479.285
 262  1453.837
 263  1420.891
 264  1500.984
 265  1581.849
 266  1580.943
 267  1601.863
 268  1483.475
 269  1366.4
 270  1370.634
 271  1385.426
 272  1310.409
 273  1338.423
 274  1414.694
 275  1447.824
 276  1504.049
 277  1480.754
 278  1326.306
 279  1332.658
 280  1313.848
 281  1361.768
 282  1437.622
 283  1483.901
 284  1401.272
 285  1350.391
 286  1350.144
 287  1400.162
 288  1408.759
 289  1374.326
 290  1402.057
 291  1402.215
 292  1437.687
 293  1356.842
 294  1394.898
 295  1465.105
 296  1439.734
 297  1375.146
 298  1442.76
 299  1485.879
 300  1419.128
 301  1300.76
 302  1299.737
 303  1391.033
 304  1361.297
 305  1458.994
 306  1532.528
 307  1496.213
 308  1508.806
 309  1396.765
 310  1327.581
 311  1438.342
 312  1496.549
 313  1588.45
 314  1530.445
 315  1402.062
 316  1332.209
 317  1360.504
 318  1317.441
 319  1410.615
 320  1509.875
 321  1508.788
 322  1471.547
 323  1398.205
 324  1427.791
 325  1499.34
 326  1535.951
 327  1545.425
 328  1456.929
 329  1419.017
 330  1518.086
 331  1459.075
 332  1329.424
 333  1338.708
 334  1384.992
 335  1449.122
 336  1556.142
 337  1474.263
 338  1463.45
 339  1440.217
 340  1380.713
 341  1468.091
 342  1402.61
 343  1467.866
 344  1524.198
 345  1479.271
 346  1368.742
 347  1387.379
 348  1515.011
 349  1401.413
 350  1400.977
 351  1423.46
 352  1430.277
 353  1458.717
 354  1538.111
 355  1456.303
 356  1303.904
 357  1377.693
 358  1431.745
 359  1407.153
 360  1460.416
 361  1390.028
 362  1505.248
 363  1493.145
 364  1429.108
 365  1370.892
 366  1302.188
 367  1363.64
 368  1467.579
 369  1565.365
 370  1518.648
 371  1456.625
 372  1484.881
 373  1429.856
 374  1428.767
 375  1535.12
 376  1422.952
 377  1328.237
 378  1382.662
 379  1496.606
 380  1453.14
 381  1377.26
 382  1350.778
 383  1381.621
 384  1456.313
 385  1439.423
 386  1304.363
 387  1262.41
 388  1495.598
 389  1521.311
 390  1436.083
 391  1436.692
 392  1510.375
 393  1417.386
 394  1543.017
 395  1565.399
 396  1526.177
 397  1508.828
 398  1545.906
 399  1467.495
 400  1329.116
 401  1406.657
 402  1456.697
 403  1420.177
 404  1428.796
 405  1404.786
 406  1344.847
 407  1445.163
 408  1398.964
 409  1287.144
 410  1311.677
 411  1384.202
 412  1449.162
 413  1462.851
 414  1299.901
 415  1280.461
 416  1339.773
 417  1527.994
 418  1463.812
 419  1301.652
 420  1388.074
 421  1458.587
 422  1406.27
 423  1289.203
 424  1361.044
 425  1420.237
 426  1446.083
 427  1446.357
 428  1329.231
 429  1331.605
 430  1374.415
 431  1487.848
 432  1436.04
 433  1302.183
 434  1387.459
 435  1455.9
 436  1455.812
 437  1505.278
 438  1528.644
 439  1439.71
 440  1407.934
 441  1469.212
 442  1508.583
 443  1447.002
 444  1494.74
 445  1514.942
 446  1465.298
 447  1384.388
 448  1397.175
 449  1494.192
 450  1532.029
 451  1544.78
 452  1511.861
 453  1511.162
 454  1563.617
 455  1513.516
 456  1520.763
 457  1329.49
 458  1315.449
 459  1433.843
 460  1546.108
 461  1497.694
 462  1392.901
 463  1396.511
 464  1399.107
 465  1465.745
 466  1383.775
 467  1376.628
 468  1420.192
 469  1313.459
 470  1282.33
 471  1451.607
 472  1463.417
 473  1393.396
 474  1414.703
 475  1454.886
 476  1419.908
 477  1305.481
 478  1420.513
 479  1477.827
 480  1434.781
 481  1418.286
 482  1416.721
 483  1480.167
 484  1431.52
 485  1396.603
 486  1438.727
 487  1443.635
 488  1427.902
 489  1470.167
 490  1362.056
 491  1399.53
 492  1447.526
 493  1412.494
 494  1473.261
 495  1427.854
 496  1394.144
 497  1417.305
 498  1405.956
 499  1426.139
 500  1449.044
 501  1391.265
 502  1458.353
 503  1533.678
 504  1460.387
 505  1542.579
 506  1665.625
 507  1603.67
 508  1416.437
 509  1360.421
 510  1330.093
 511  1310.431
