# Input file       =  1200413215.099894_cleaned.dat
# Candidate        =  PSR_0332+5434
# Telescope        =  AR
# Epoch_topo       =  58137.671690970994
# Epoch_bary       =  N/A
# T_sample         =  0.002
# Data Folded      =  7340032
# Data Avg         =  0.0851443845354617
# Data StdDev      =  3.11565562894382 
# Profile Bins     =  512
# Profile Avg      =  1220.86212979858 
# Profile StdDev   =  373.046908757806 
# Reduced chi-sqr  =  0.795
# Prob(Noise)      <  1   (~0.0 sigma)
# P_topo (ms)      =  714.56960833234   +/- 0.000625
# P'_topo (s/s)    =  -0                +/- 3.3e-10
# P''_topo (s/s^2) =  0                 +/- 1.46e-13
# P_bary (ms)      =  N/A
# P'_bary (s/s)    =  N/A
# P''_bary (s/s^2) =  N/A
# P_orb (s)        =  N/A
# asin(i)/c (s)    =  N/A
# eccentricity     =  N/A
# w (rad)          =  N/A
# T_peri           =  N/A
######################################################
   0  1234.284
   1  1239.039
   2  1431.221
   3  1335.866
   4  1232.003
   5  1231.294
   6  1439.972
   7  1234.002
   8  1194.957
   9  974.7821
  10  1252.989
  11  1392.755
  12  1190.261
  13  1130.689
  14  1232.314
  15  1217.286
  16  1510.991
  17  1390.402
  18  1240.243
  19  1194.422
  20  1320.156
  21  1440.225
  22  1542.913
  23  1495.54
  24  1387.937
  25  1171.091
  26  1160.032
  27  1222.553
  28  1345.929
  29  1608.385
  30  1759.422
  31  1474.976
  32  1476.807
  33  1665.861
  34  1426.257
  35  1093.16
  36  1206.623
  37  1317.923
  38  1399.384
  39  1455.57
  40  945.7825
  41  1024.518
  42  1388.44
  43  1361.771
  44  1414.045
  45  1606.553
  46  1435.714
  47  1244.111
  48  1295.764
  49  1121.387
  50  932.3734
  51  1088.496
  52  1115.725
  53  1007.06
  54  1114.282
  55  1071.64
  56  1128.645
  57  1199.419
  58  1249.601
  59  1451.724
  60  1297.055
  61  1408.794
  62  1511.455
  63  1345.848
  64  1347.613
  65  1392.006
  66  1156.405
  67  1169.404
  68  1156.27
  69  1336.373
  70  1551.611
  71  1440.833
  72  1165.005
  73  1164.677
  74  1000.91
  75  1297.963
  76  1261.748
  77  1395.698
  78  1447.98
  79  1368.262
  80  1131.597
  81  1313.785
  82  1352.982
  83  888.8843
  84  1073.77
  85  1492.321
  86  1492.525
  87  1353.195
  88  1266.459
  89  1263.988
  90  906.9391
  91  860.3021
  92  942.3793
  93  1047.912
  94  1322.907
  95  1083.456
  96  1291.936
  97  1385.221
  98  1215.978
  99  1305.223
 100  1131.714
 101  1082.061
 102  1089.223
 103  1488.575
 104  1376.633
 105  902.8004
 106  1100.172
 107  1168.948
 108  1170.2
 109  1016.234
 110  904.7029
 111  1144.033
 112  1332.177
 113  1222.86
 114  1011.122
 115  996.294
 116  1028.674
 117  1213.698
 118  1189.479
 119  1175.28
 120  1240.21
 121  1278.087
 122  1248.193
 123  1267.583
 124  1036.667
 125  899.0826
 126  1102.043
 127  1375.75
 128  1159.531
 129  1171.086
 130  1343.166
 131  974.112
 132  1120.079
 133  1092.341
 134  1279.172
 135  1610.863
 136  1366.259
 137  1303.348
 138  1083.777
 139  1017.022
 140  1142.501
 141  1171.159
 142  1156.588
 143  1052.673
 144  1293.266
 145  1178.128
 146  1055.443
 147  1332.358
 148  1341.858
 149  1191.361
 150  1122.209
 151  1380.834
 152  1135.084
 153  1050.814
 154  1260.307
 155  1505.351
 156  1225.445
 157  1343.093
 158  1261.473
 159  1183.528
 160  1367.441
 161  1454.272
 162  1641.966
 163  1166.052
 164  1191.776
 165  997.7662
 166  1104.382
 167  1004.585
 168  1188.238
 169  1495.48
 170  1189.032
 171  1130.185
 172  1175.677
 173  1031.973
 174  828.1595
 175  1008.26
 176  1101.599
 177  1082.216
 178  1181.376
 179  1209.011
 180  1387.865
 181  1337.819
 182  1461.066
 183  1379.798
 184  1206.056
 185  1269.731
 186  1490.439
 187  1770.541
 188  1280.381
 189  976.2478
 190  935.5644
 191  1090.922
 192  1110.961
 193  1278.865
 194  1344.702
 195  1311.538
 196  1276.09
 197  1294.053
 198  1160.225
 199  1163.281
 200  1309.57
 201  1255.888
 202  1318.4
 203  1150.907
 204  1241.236
 205  1242.372
 206  1241.114
 207  1260.361
 208  1298.83
 209  1337.796
 210  1142.885
 211  1289.736
 212  1294.136
 213  1283.458
 214  1296.234
 215  1307.391
 216  1419.657
 217  1147.681
 218  1066.399
 219  1687.845
 220  1491.956
 221  1195.647
 222  1297.634
 223  1294.596
 224  1533.718
 225  1478.414
 226  1438.653
 227  1644.816
 228  2317.284
 229  2630.694
 230  2657.334
 231  2533.626
 232  2329.799
 233  1760.938
 234  1591.462
 235  1392.734
 236  1360.903
 237  1297.558
 238  1356.269
 239  1137.887
 240  1307.853
 241  1145.163
 242  1130.048
 243  1361.198
 244  1648.247
 245  1587.909
 246  1510.506
 247  1626.154
 248  1383.812
 249  1093.984
 250  1337.557
 251  1813.609
 252  1713.339
 253  1207.913
 254  1169.707
 255  1260.536
 256  1077.426
 257  861.3217
 258  1066.784
 259  1236.647
 260  1341.568
 261  1495.977
 262  1305.725
 263  1296.368
 264  1256.568
 265  1341.037
 266  1415.34
 267  1416.637
 268  1522.812
 269  1399.029
 270  1350.377
 271  1356.385
 272  1510.325
 273  1407.913
 274  1549.605
 275  1346.133
 276  1420.094
 277  1417.151
 278  1102.347
 279  1157.369
 280  1359.88
 281  1436.878
 282  1300.046
 283  1355.921
 284  1674.663
 285  1449.732
 286  1255.328
 287  1358.725
 288  1145.531
 289  1513.636
 290  1199.034
 291  1267.078
 292  1309.138
 293  1594.257
 294  1486.831
 295  1362.149
 296  1307.534
 297  1282.704
 298  1338.31
 299  1399.415
 300  1199.244
 301  1006.631
 302  1093.998
 303  1095.323
 304  1167.666
 305  1095.208
 306  901.7314
 307  915.372
 308  832.8825
 309  931.0945
 310  1042.359
 311  1175.729
 312  1295.724
 313  1263.903
 314  1040.151
 315  1077.461
 316  1381.662
 317  1425.375
 318  1212.369
 319  1093.434
 320  1152.451
 321  1042.57
 322  1100.258
 323  1098.363
 324  1224.736
 325  1117.393
 326  1233.205
 327  1201.664
 328  1005.516
 329  947.6596
 330  1138.139
 331  1345.475
 332  1446.007
 333  1225.408
 334  1016.617
 335  819.9732
 336  1036.348
 337  1040.307
 338  1175.118
 339  1343.655
 340  879.1133
 341  839.7143
 342  1075.529
 343  1232.866
 344  1153.972
 345  1145.11
 346  1042.502
 347  1124.652
 348  1372.297
 349  941.6988
 350  1032.92
 351  1043.661
 352  1142.366
 353  927.8141
 354  843.2939
 355  1324.517
 356  901.4269
 357  863.2452
 358  1106.063
 359  1113.377
 360  1123.841
 361  1220.167
 362  1297.849
 363  837.4258
 364  842.9663
 365  1200.38
 366  1041.172
 367  921.8725
 368  1017.295
 369  1288.811
 370  1217.449
 371  933.2443
 372  893.5353
 373  1021.79
 374  1173.732
 375  1209.735
 376  1297.469
 377  1020.461
 378  717.8408
 379  893.7892
 380  1091.161
 381  1053.515
 382  900.66
 383  861.6917
 384  1019.198
 385  995.1228
 386  1152.437
 387  1328.893
 388  1447.426
 389  1393.373
 390  1399.037
 391  1098.731
 392  1029.131
 393  980.9653
 394  1139.235
 395  1068.15
 396  970.6581
 397  1002.708
 398  935.4614
 399  875.0753
 400  821.4294
 401  1016.787
 402  997.5746
 403  975.4141
 404  847.3812
 405  667.0753
 406  838.7929
 407  997.1311
 408  649.916
 409  843.5909
 410  930.8775
 411  860.383
 412  944.8143
 413  873.4971
 414  1020.653
 415  749.6136
 416  897.933
 417  861.3423
 418  1038.026
 419  1094.916
 420  1054.109
 421  1137.449
 422  1128.719
 423  909.9789
 424  847.8616
 425  1014.838
 426  1028.777
 427  895.67
 428  820.1729
 429  834.7544
 430  878.3867
 431  984.6414
 432  1222.215
 433  1217.24
 434  1131.469
 435  1126.834
 436  987.5162
 437  1005.231
 438  1132.382
 439  1230.802
 440  1019.052
 441  1228.659
 442  1243.202
 443  940.1971
 444  881.8098
 445  1046.967
 446  1128.952
 447  1033.304
 448  993.9249
 449  950.5255
 450  1049.315
 451  1149.755
 452  944.5459
 453  1199.242
 454  1308.348
 455  1256.351
 456  1186.049
 457  934.1171
 458  857.0587
 459  868.3521
 460  980.8991
 461  988.1397
 462  1039.729
 463  943.9536
 464  890.3603
 465  1090.839
 466  873.9287
 467  794.0086
 468  1359.244
 469  1510.508
 470  1283.477
 471  1161.056
 472  1292.487
 473  1438.307
 474  1399.958
 475  1407.572
 476  1295.08
 477  1334.606
 478  1609.249
 479  1397.291
 480  1246.231
 481  1447.358
 482  1557.082
 483  1374.217
 484  1133.752
 485  1163.574
 486  1234.961
 487  1337.075
 488  1377.149
 489  1447.115
 490  1510.028
 491  1573.895
 492  1513.559
 493  1515.077
 494  1613.822
 495  1460.039
 496  1249.945
 497  1427.197
 498  1520.57
 499  1440.757
 500  1518.576
 501  1437.742
 502  1290.968
 503  1498.018
 504  1274.967
 505  1161.517
 506  936.9583
 507  1064.746
 508  1125.147
 509  1474.685
 510  1472.346
 511  1351.309
