# Input file       =  1200600452.101729_cleaned.dat
# Candidate        =  PSR_0332+5434
# Telescope        =  AR
# Epoch_topo       =  58139.838785899643
# Epoch_bary       =  N/A
# T_sample         =  0.002
# Data Folded      =  7340032
# Data Avg         =  1.00356009849202 
# Data StdDev      =  9.14243285381729 
# Profile Bins     =  512
# Profile Avg      =  14386.8864397376 
# Profile StdDev   =  1094.65124545825 
# Reduced chi-sqr  =  0.536
# Prob(Noise)      <  1   (~0.0 sigma)
# P_topo (ms)      =  714.571232182148  +/- 0.000128
# P'_topo (s/s)    =  -0                +/- 6.77e-11
# P''_topo (s/s^2) =  0                 +/- 2.99e-14
# P_bary (ms)      =  N/A
# P'_bary (s/s)    =  N/A
# P''_bary (s/s^2) =  N/A
# P_orb (s)        =  N/A
# asin(i)/c (s)    =  N/A
# eccentricity     =  N/A
# w (rad)          =  N/A
# T_peri           =  N/A
######################################################
   0  14380.49
   1  13868.79
   2  13951.01
   3  15237.8
   4  15792.24
   5  14856.43
   6  13446.84
   7  13690.33
   8  14422.75
   9  14859.54
  10  14891.45
  11  14735
  12  14626.29
  13  14012.43
  14  14244.54
  15  14081.05
  16  13408.32
  17  14211.15
  18  14952.18
  19  14746.17
  20  14587.51
  21  14090.74
  22  14971.5
  23  15385.32
  24  15133.88
  25  14734.27
  26  13872.43
  27  14184.83
  28  13628.19
  29  13952.32
  30  14927.24
  31  15077.5
  32  15188.04
  33  14660.22
  34  13975.49
  35  13570.26
  36  13897.05
  37  13414.74
  38  13951.85
  39  13567.94
  40  13959.46
  41  13869.69
  42  13707.94
  43  14308.53
  44  14635.17
  45  14561.8
  46  14595.08
  47  14368.74
  48  13858.27
  49  13427.16
  50  14034.67
  51  13930.34
  52  13636.65
  53  13343.7
  54  14202.36
  55  13349.98
  56  13304.72
  57  14804.52
  58  15639.01
  59  15293.59
  60  14554.06
  61  14385.47
  62  14118.33
  63  14485.26
  64  14438.25
  65  14832.53
  66  14334.68
  67  15344.18
  68  15241.64
  69  15394.24
  70  15769.18
  71  15938.58
  72  15816.4
  73  14643.9
  74  13637.77
  75  13708.72
  76  13146.76
  77  13366.33
  78  13728.86
  79  13945.34
  80  14801.92
  81  14835.18
  82  14020.62
  83  13597.79
  84  13944.2
  85  13891.33
  86  14243.64
  87  13683.26
  88  13529.49
  89  13808.14
  90  13385.75
  91  13611.39
  92  14593.03
  93  14873.46
  94  15237.77
  95  15285.58
  96  14715.84
  97  14894.51
  98  14769.93
  99  14052.13
 100  14757.55
 101  14865.28
 102  14625.92
 103  15145.81
 104  15879.22
 105  15061.13
 106  15295.42
 107  15013.74
 108  15290.32
 109  14725.29
 110  14370.05
 111  14037.86
 112  13740.25
 113  13749.01
 114  14287.42
 115  14021.46
 116  13968.65
 117  13482.14
 118  13587.1
 119  13476.68
 120  14145.13
 121  14458.61
 122  13976.24
 123  14164.03
 124  14157.72
 125  14861.19
 126  14548.8
 127  14839.39
 128  14248.59
 129  13781.49
 130  13554.45
 131  14091.75
 132  14379.06
 133  14437.15
 134  14481.86
 135  14785.64
 136  14604.61
 137  14528.16
 138  14609
 139  14683.95
 140  13592.89
 141  13246.37
 142  14006.46
 143  14661.53
 144  14450.98
 145  15159.81
 146  14641
 147  14147.61
 148  14333.12
 149  14120.12
 150  13691.36
 151  13432.23
 152  14036.85
 153  14774.43
 154  14836.86
 155  14022.82
 156  13834.26
 157  13878.16
 158  13654.18
 159  14116.67
 160  14814.39
 161  14431.08
 162  13806.47
 163  14656.96
 164  15354.39
 165  14708.42
 166  14460
 167  14348.97
 168  14889.52
 169  14820.33
 170  14945.18
 171  15182.35
 172  14985.11
 173  14331.12
 174  15215.42
 175  14990.47
 176  14361.59
 177  14315.31
 178  14061.62
 179  14219.5
 180  14167.69
 181  14667.35
 182  14970.3
 183  14668.11
 184  13695.2
 185  13345.44
 186  12864.98
 187  13726.27
 188  13777.29
 189  14819.85
 190  15635.22
 191  14633.05
 192  14141.58
 193  14163.86
 194  13713.26
 195  13470.91
 196  13715.91
 197  14379.34
 198  13162.42
 199  13498.91
 200  14015.62
 201  13793.13
 202  14435.01
 203  15032.62
 204  14891.22
 205  15095.5
 206  14225.86
 207  13784.73
 208  13970.62
 209  13815.94
 210  14539.82
 211  15089.9
 212  14681.1
 213  14318.02
 214  14410.18
 215  14875.67
 216  14198.79
 217  13564.23
 218  15049.36
 219  15989.88
 220  14767.07
 221  14598.3
 222  15042.17
 223  14564.09
 224  15225.81
 225  14949.76
 226  14789.1
 227  14699.37
 228  14227.73
 229  14138.79
 230  14193.44
 231  13927.32
 232  14305.89
 233  15074.8
 234  14571.84
 235  14595.83
 236  14312.28
 237  14768.83
 238  14607.97
 239  14425.1
 240  14501.89
 241  14291.85
 242  14448.68
 243  14649.39
 244  14193.59
 245  13828.77
 246  13804.47
 247  14620.13
 248  15118.87
 249  15140.75
 250  15336.55
 251  14433.22
 252  14167.93
 253  14213.46
 254  14430.4
 255  14066.54
 256  14412.48
 257  14016.34
 258  13952.54
 259  13872.62
 260  13508.62
 261  13760.78
 262  14176.3
 263  14636.7
 264  14545.53
 265  13853.4
 266  13544.77
 267  13397.51
 268  13989.87
 269  14173.82
 270  13678.91
 271  13361.82
 272  13008.77
 273  13653.33
 274  13635.62
 275  14225.19
 276  14671.06
 277  14102.18
 278  13964.34
 279  14185.04
 280  13416.91
 281  13256.22
 282  13747.22
 283  13643.16
 284  13224.15
 285  13834.73
 286  14687.34
 287  14198.01
 288  13855.57
 289  13100.3
 290  13399.86
 291  14383.01
 292  13863.78
 293  13783.73
 294  13905.3
 295  14690.17
 296  13924.29
 297  14153.46
 298  14590.12
 299  13629.38
 300  14266.18
 301  15183.16
 302  14541.37
 303  14359.64
 304  14805.48
 305  14544.3
 306  13762.92
 307  14155.51
 308  14454.67
 309  14008.76
 310  14304.97
 311  14543.73
 312  14615.06
 313  14018.56
 314  13280.45
 315  13994.79
 316  13701.87
 317  13437.23
 318  13991.63
 319  14406.6
 320  13779.98
 321  14235.68
 322  14963.95
 323  15077.63
 324  14185.03
 325  14397.06
 326  14440.28
 327  14404.84
 328  14774.23
 329  14157.47
 330  14839.77
 331  15317.33
 332  14943.49
 333  14903.86
 334  14088.88
 335  14181.19
 336  14509.38
 337  15073.79
 338  14906.11
 339  14405.92
 340  14813.36
 341  14666.73
 342  14126.08
 343  14103.16
 344  14519.79
 345  14279.98
 346  14203.88
 347  14953.05
 348  14854.68
 349  14354.14
 350  14359.81
 351  14178.75
 352  14216.28
 353  13829.15
 354  14292.94
 355  13403.06
 356  13350.52
 357  13636.7
 358  14444.06
 359  14672.4
 360  14352.52
 361  13899.67
 362  13604.32
 363  13372.13
 364  13416.24
 365  13824.24
 366  14438.34
 367  14884.7
 368  15252.11
 369  15470.41
 370  14868.63
 371  14477.54
 372  14932.19
 373  14694.03
 374  14588.35
 375  14311.32
 376  14252.23
 377  13976.12
 378  14447.53
 379  15009.2
 380  14994.1
 381  14563.56
 382  14589.23
 383  14239.3
 384  13932.36
 385  13981.58
 386  13688.4
 387  14661.11
 388  14649.39
 389  14930.83
 390  15012.4
 391  14789.1
 392  14782.23
 393  14435.4
 394  14614.06
 395  14254.56
 396  15033.81
 397  14189.98
 398  14476.87
 399  14113.87
 400  13982.77
 401  14487.83
 402  14352.23
 403  14590.95
 404  14671.11
 405  14370.62
 406  14146.51
 407  14949.75
 408  15157.43
 409  14683.85
 410  15080.59
 411  14708.9
 412  14777.56
 413  15074.83
 414  15806.79
 415  15840.96
 416  14557.42
 417  14474.14
 418  15122.24
 419  15646.39
 420  15692.54
 421  15235.06
 422  15250.53
 423  15246.18
 424  14632.39
 425  14508.03
 426  15478.58
 427  15535.7
 428  15118.21
 429  15121.9
 430  15002.69
 431  13492.3
 432  14366.21
 433  15120.21
 434  14646.9
 435  14925.34
 436  15075.3
 437  14984.31
 438  14206.45
 439  14293.72
 440  13995.03
 441  13727.55
 442  13795.94
 443  14011.92
 444  14815.5
 445  14350.68
 446  14720.17
 447  15386.77
 448  14685.98
 449  13476.49
 450  13838.24
 451  14669.38
 452  14357.8
 453  14561.54
 454  14963.44
 455  14916.81
 456  13906.49
 457  14193.58
 458  14483.71
 459  14667.26
 460  14931.4
 461  14232.83
 462  13572.36
 463  13464.07
 464  13863.96
 465  14500.24
 466  14548.81
 467  14630.99
 468  15239.11
 469  14700.22
 470  13919.57
 471  14622.13
 472  15281.31
 473  15427.58
 474  14490.81
 475  14830.56
 476  15244.54
 477  14878.09
 478  14212.97
 479  13718.73
 480  14757.11
 481  14786.71
 482  15184.21
 483  14331.04
 484  13633.61
 485  14181.16
 486  14425.35
 487  15330.03
 488  15166.54
 489  14636.63
 490  14484.07
 491  14173.77
 492  13987.63
 493  13613.95
 494  14626.8
 495  15853.39
 496  15193.78
 497  14500.26
 498  13723.62
 499  14083.68
 500  14361.78
 501  15336.28
 502  15016.81
 503  14265.37
 504  13889.73
 505  13671.05
 506  13299.64
 507  13895.1
 508  14367.71
 509  14290.89
 510  14605.37
 511  14421.21
