# Input file       =  1200844563.106615_cleaned.dat
# Candidate        =  PSR_0332+5434
# Telescope        =  AR
# Epoch_topo       =  58142.664144752489
# Epoch_bary       =  N/A
# T_sample         =  0.002
# Data Folded      =  7340032
# Data Avg         =  0.0833068557445324
# Data StdDev      =  4.360821663417   
# Profile Bins     =  512
# Profile Avg      =  1194.27285672136 
# Profile StdDev   =  522.134418858497 
# Reduced chi-sqr  =  0.828
# Prob(Noise)      <  0.998   (~0.0 sigma)
# P_topo (ms)      =  714.572467714413  +/- 0.00044
# P'_topo (s/s)    =  -0                +/- 2.32e-10
# P''_topo (s/s^2) =  0                 +/- 1.03e-13
# P_bary (ms)      =  N/A
# P'_bary (s/s)    =  N/A
# P''_bary (s/s^2) =  N/A
# P_orb (s)        =  N/A
# asin(i)/c (s)    =  N/A
# eccentricity     =  N/A
# w (rad)          =  N/A
# T_peri           =  N/A
######################################################
   0  1209.768
   1  1143.919
   2  1369.714
   3  1082.061
   4  802.3514
   5  1293.289
   6  1559.622
   7  1496.829
   8  1331.354
   9  1100.811
  10  1440.176
  11  1465.417
  12  1420.208
  13  1046.917
  14  1448.392
  15  1291.87
  16  1241.794
  17  1567.077
  18  1743.472
  19  881.6609
  20  1091.017
  21  1269.949
  22  1463.207
  23  1179.81
  24  1458.623
  25  1458.807
  26  1651.582
  27  1436.781
  28  1565.346
  29  1374.328
  30  1458.553
  31  1531.641
  32  1430.705
  33  1073.119
  34  655.7286
  35  964.1721
  36  921.3231
  37  831.8262
  38  765.5233
  39  902.6397
  40  1254.688
  41  1219.227
  42  1433.521
  43  1303.819
  44  1434.951
  45  1312.537
  46  1237.949
  47  1237.811
  48  904.2981
  49  1035.674
  50  1053.503
  51  1092.141
  52  693.8772
  53  623.5687
  54  630.5797
  55  562.0993
  56  636.8024
  57  859.1721
  58  1031.911
  59  1318.758
  60  1077.601
  61  732.4353
  62  530.2051
  63  439.6859
  64  941.0002
  65  1255.684
  66  1245.012
  67  1131.652
  68  1598.401
  69  1549.455
  70  1451.999
  71  1629.674
  72  1775.457
  73  1383.433
  74  1297.086
  75  1152.182
  76  1294.811
  77  1173.866
  78  1331.762
  79  1698.642
  80  1562.118
  81  1232.581
  82  1365.337
  83  1422.099
  84  1324.967
  85  1277.266
  86  1404.191
  87  1439.936
  88  1148.546
  89  952.5013
  90  1260.901
  91  1005.584
  92  987.5887
  93  468.1934
  94  496.6326
  95  564.6516
  96  836.515
  97  1112.459
  98  1109.136
  99  698.9156
 100  853.6717
 101  1114.456
 102  778.0661
 103  794.892
 104  818.8541
 105  1120.98
 106  972.5699
 107  987.6277
 108  718.6311
 109  478.4677
 110  881.5115
 111  1418.216
 112  1290.887
 113  1490.258
 114  1370.866
 115  1012.072
 116  645.6731
 117  1119.996
 118  1143.564
 119  917.351
 120  1005.495
 121  1179.031
 122  1392.467
 123  1495.46
 124  1217.846
 125  1259.736
 126  1353.531
 127  1420.783
 128  1200.341
 129  801.6152
 130  1000.438
 131  1025.211
 132  869.5776
 133  605.0504
 134  812.8025
 135  1020.621
 136  1138.555
 137  1249.573
 138  1205.011
 139  681.6998
 140  828.8466
 141  1117.632
 142  1154.732
 143  1264.017
 144  1431.626
 145  1198.538
 146  1108.388
 147  1296.164
 148  1258.244
 149  1213.101
 150  1010.791
 151  1453.259
 152  1041.873
 153  1181.979
 154  1289.994
 155  1192.787
 156  788.3086
 157  879.8682
 158  785.0484
 159  578.9907
 160  525.3946
 161  793.896
 162  789.7472
 163  387.615
 164  664.6384
 165  538.3259
 166  777.1822
 167  1010.698
 168  1364.085
 169  1227.177
 170  1032.553
 171  927.1128
 172  1103.754
 173  1284.176
 174  1110.73
 175  801.3964
 176  923.3203
 177  884.2869
 178  1026.651
 179  1059.465
 180  885.7996
 181  1014.122
 182  1390.012
 183  1502.86
 184  1174.699
 185  1012.385
 186  700.4691
 187  1130.88
 188  1277.04
 189  1162.888
 190  1250.849
 191  1090.613
 192  980.7344
 193  1209.549
 194  996.8557
 195  975.7673
 196  855.1019
 197  640.3452
 198  609.4672
 199  873.1603
 200  1022.401
 201  1258.658
 202  805.85
 203  912.957
 204  499.3032
 205  380.2791
 206  1032.45
 207  1689.815
 208  1917.855
 209  1544.449
 210  1432.402
 211  1131.58
 212  1312.756
 213  1217.744
 214  1425.729
 215  1175.979
 216  1465.989
 217  1435.219
 218  1095.966
 219  1177.852
 220  1187.337
 221  891.3166
 222  838.9003
 223  1022.619
 224  902.907
 225  835.9009
 226  870.894
 227  1103.906
 228  1152.757
 229  931.2344
 230  1307.679
 231  1247.642
 232  480.0923
 233  597.08
 234  712.4091
 235  1402.887
 236  1337.293
 237  1537.278
 238  1362.172
 239  891.1522
 240  728.4496
 241  1155.775
 242  1081.33
 243  917.3571
 244  1161.334
 245  804.8174
 246  1066.553
 247  1078.636
 248  809.8188
 249  621.6838
 250  378.9137
 251  630.4036
 252  770.1851
 253  610.5787
 254  984.6735
 255  1198.177
 256  962.9554
 257  655.8151
 258  553.3723
 259  938.5917
 260  1139.953
 261  1159.072
 262  1119.868
 263  650.5444
 264  666.073
 265  747.1663
 266  1272.429
 267  1377.763
 268  1781.22
 269  1472.082
 270  1295.585
 271  1407.885
 272  787.1599
 273  1058.924
 274  1213.936
 275  1236.403
 276  1072.796
 277  1376.144
 278  1054.706
 279  833.6035
 280  823.4298
 281  1044.509
 282  1233.614
 283  905.0286
 284  1119.423
 285  1216.835
 286  1389.598
 287  1465.303
 288  1135.029
 289  860.388
 290  1084.782
 291  1190.746
 292  838.2935
 293  535.7388
 294  915.656
 295  761.305
 296  1105.736
 297  1182.124
 298  1149.628
 299  768.4349
 300  537.4534
 301  970.4241
 302  1395.644
 303  1230.816
 304  1138.747
 305  1176.627
 306  1435.844
 307  1127.195
 308  1384.255
 309  1307.276
 310  1010.68
 311  1067.896
 312  873.4503
 313  861.3387
 314  796.064
 315  1498.428
 316  1676.217
 317  1371.279
 318  1203.666
 319  1390.805
 320  992.7156
 321  873.2603
 322  652.3776
 323  981.1624
 324  1167.319
 325  1043.989
 326  1061.226
 327  1003.867
 328  1099.836
 329  1274.532
 330  1739.127
 331  2334.864
 332  2524.121
 333  2670.688
 334  2843.138
 335  2231.271
 336  1730.567
 337  1433.685
 338  1454.057
 339  1381.443
 340  1350.174
 341  1642.203
 342  1475.132
 343  1201.915
 344  646.3403
 345  562.3638
 346  980.9013
 347  1026.309
 348  1001.449
 349  890.055
 350  1063.851
 351  1328.199
 352  1100.661
 353  939.6262
 354  1025.26
 355  1296.548
 356  1342.085
 357  1262.512
 358  1229.126
 359  1406.601
 360  1378.153
 361  1008.408
 362  876.3076
 363  924.2043
 364  957.9252
 365  1104.087
 366  1106.054
 367  921.1467
 368  935.9517
 369  1377.429
 370  1491.794
 371  904.9772
 372  1151.797
 373  1616.951
 374  1205.961
 375  1275.051
 376  1614.669
 377  1815.562
 378  1694.489
 379  1521.517
 380  1515.025
 381  1159.419
 382  1233.96
 383  1542.499
 384  2089.18
 385  1851.807
 386  1361.188
 387  1223.455
 388  1194.288
 389  919.5724
 390  1463.531
 391  1657.721
 392  1483.991
 393  1624.853
 394  1569
 395  1354.813
 396  1300.85
 397  1523.118
 398  1986.67
 399  1627.418
 400  1729.64
 401  1739.089
 402  1165.32
 403  842.087
 404  1210.46
 405  1734.737
 406  2485.001
 407  1994.052
 408  1424.98
 409  1463.444
 410  1506.232
 411  1489.29
 412  1374.506
 413  1723.119
 414  2089.62
 415  1759.881
 416  1722.541
 417  1732
 418  1174.686
 419  1415.548
 420  1469.098
 421  1299.417
 422  1217.393
 423  1332.468
 424  1191.053
 425  1257.661
 426  1278.543
 427  1704.263
 428  1827.146
 429  1564.827
 430  1862.384
 431  1655.609
 432  1038.29
 433  1050.046
 434  1320.647
 435  1157.891
 436  1412.737
 437  1438.601
 438  1694.687
 439  1502.38
 440  1177.375
 441  1214.295
 442  1522.627
 443  1511.333
 444  1478.827
 445  1554.642
 446  1640.972
 447  1615.399
 448  1540.637
 449  1485.139
 450  1251.097
 451  1222.008
 452  1398.039
 453  1103.228
 454  1230.915
 455  1617.996
 456  1616.379
 457  1206.714
 458  1424.509
 459  1568.615
 460  1609.235
 461  1217.959
 462  1357.201
 463  1616.449
 464  1037.409
 465  1250.221
 466  1579.966
 467  1315.828
 468  1192.049
 469  939.9545
 470  1498.823
 471  1368.591
 472  1374.062
 473  1601.354
 474  1278.191
 475  1183.208
 476  643.717
 477  1068.654
 478  918.4168
 479  1069.979
 480  968.5718
 481  1133.276
 482  891.6568
 483  747.3471
 484  1318.231
 485  1508.906
 486  1105.627
 487  1516.626
 488  1706.415
 489  1435.546
 490  1600.704
 491  1541.042
 492  1442.279
 493  1415.838
 494  1747.594
 495  1643.409
 496  1062.906
 497  1395.055
 498  1230.018
 499  1332.942
 500  1481.842
 501  1327.001
 502  1118.12
 503  1064.139
 504  1141.668
 505  1152.572
 506  1219.683
 507  1271.115
 508  1025.389
 509  1336.901
 510  1080.071
 511  999.4772
