# Input file       =  1200398598.099281_cleaned.dat
# Candidate        =  PSR_0332+5434
# Telescope        =  AR
# Epoch_topo       =  58137.502512723164
# Epoch_bary       =  N/A
# T_sample         =  0.002
# Data Folded      =  7143424
# Data Avg         =  0.0997258324866017
# Data StdDev      =  5.44120976039213 
# Profile Bins     =  1024
# Profile Avg      =  695.602401159561 
# Profile StdDev   =  454.463181422157 
# Reduced chi-sqr  =  0.687
# Prob(Noise)      <  1   (~0.0 sigma)
# P_topo (ms)      =  714.569489329757  +/- 7.23e-05
# P'_topo (s/s)    =  -0                +/- 3.92e-11
# P''_topo (s/s^2) =  0                 +/- 1.78e-14
# P_bary (ms)      =  N/A
# P'_bary (s/s)    =  N/A
# P''_bary (s/s^2) =  N/A
# P_orb (s)        =  N/A
# asin(i)/c (s)    =  N/A
# eccentricity     =  N/A
# w (rad)          =  N/A
# T_peri           =  N/A
######################################################
   0  475.5255
   1  671.2544
   2  770.7374
   3  703.7962
   4  636.0148
   5  623.7754
   6  640.6133
   7  805.1055
   8  763.1049
   9  795.2565
  10  761.6376
  11  360.2774
  12  267.8748
  13  173.4255
  14  287.7297
  15  467.8773
  16  285.1169
  17  558.1528
  18  534.6774
  19  568.3699
  20  790.1484
  21  924.5071
  22  1012.357
  23  913.5731
  24  1072.832
  25  1209.176
  26  882.2919
  27  726.7798
  28  785.6143
  29  976.4678
  30  776.4875
  31  634.4566
  32  747.8522
  33  702.9633
  34  774.6429
  35  592.7075
  36  695.8858
  37  668.3925
  38  556.341
  39  554.3036
  40  741.1779
  41  882.4196
  42  1023.074
  43  857.3727
  44  617.6311
  45  592.2268
  46  521.9573
  47  602.2942
  48  430.4108
  49  548.2246
  50  659.2665
  51  582.0137
  52  708.3051
  53  658.8986
  54  863.6603
  55  824.5837
  56  654.7622
  57  631.5704
  58  714.7437
  59  803.1507
  60  691.8004
  61  558.3723
  62  391.3355
  63  432.4218
  64  572.0239
  65  743.0603
  66  818.8021
  67  795.3506
  68  687.9283
  69  711.3909
  70  615.036
  71  446.9849
  72  425.5542
  73  769.3083
  74  1292.855
  75  1211.795
  76  768.209
  77  793.8307
  78  682.0505
  79  708.577
  80  603.1453
  81  577.564
  82  667.1883
  83  541.7543
  84  537.2134
  85  687.5097
  86  797.9464
  87  981.9839
  88  753.0854
  89  555.9612
  90  653.8415
  91  511.9565
  92  563.7333
  93  320.7994
  94  345.1056
  95  462.0949
  96  584.0242
  97  543.0165
  98  317.7283
  99  391.0608
 100  500.1113
 101  519.3053
 102  423.1593
 103  390.6371
 104  538.7606
 105  569.9229
 106  524.2603
 107  490.1813
 108  515.1003
 109  557.7863
 110  516.4503
 111  572.001
 112  641.3629
 113  440.9704
 114  570.083
 115  882.0865
 116  862.3373
 117  895.3586
 118  709.2739
 119  840.5459
 120  811.1615
 121  519.0437
 122  800.2925
 123  1057.77
 124  1168.645
 125  987.1015
 126  696.8906
 127  557.0895
 128  398.2182
 129  448.0444
 130  734.0212
 131  614.5839
 132  601.2407
 133  649.5376
 134  944.9498
 135  965.6741
 136  827.8299
 137  881.3939
 138  987.9745
 139  1172.523
 140  1077.221
 141  868.5944
 142  739.0833
 143  527.1302
 144  528.3442
 145  501.3778
 146  525.0956
 147  908.1003
 148  1023.347
 149  968.5433
 150  754.9105
 151  629.3302
 152  729.8292
 153  742.0463
 154  1009.619
 155  1051.517
 156  823.1063
 157  800.1331
 158  838.7573
 159  777.5162
 160  921.1198
 161  814.4428
 162  767.9402
 163  604.5625
 164  690.3073
 165  907.3149
 166  677.3103
 167  601.2585
 168  735.0144
 169  826.558
 170  698.9393
 171  476.968
 172  633.0916
 173  875.2636
 174  864.3091
 175  629.3007
 176  227.6169
 177  164.627
 178  166.789
 179  484.2872
 180  402.6291
 181  286.9234
 182  255.2268
 183  350.6815
 184  341.3886
 185  411.8493
 186  582.3908
 187  933.1029
 188  911.078
 189  581.3917
 190  630.5693
 191  405.3529
 192  542.5294
 193  471.3064
 194  653.3016
 195  754.1009
 196  719.5642
 197  978.9148
 198  919.7277
 199  752.9877
 200  616.4861
 201  701.2812
 202  977.5995
 203  970.2739
 204  935.2306
 205  916.925
 206  942.2638
 207  997.916
 208  1074.434
 209  1025.858
 210  948.0732
 211  693.5349
 212  586.5951
 213  483.0966
 214  464.3948
 215  567.0031
 216  673.5054
 217  795.1794
 218  734.731
 219  903.2113
 220  1135.183
 221  1166.31
 222  1148.798
 223  1056.966
 224  906.7718
 225  980.7018
 226  623.0182
 227  587.2248
 228  414.7384
 229  653.1569
 230  901.5021
 231  810.1762
 232  891.6865
 233  930.801
 234  906.2319
 235  943.8413
 236  717.0095
 237  803.8923
 238  709.1994
 239  594.3808
 240  563.7348
 241  519.7526
 242  513.4049
 243  544.9097
 244  717.6298
 245  893.2803
 246  912.5906
 247  892.2787
 248  923.9576
 249  764.359
 250  773.0191
 251  796.0726
 252  960.3795
 253  805.7639
 254  701.0941
 255  1003.933
 256  922.7562
 257  799.2451
 258  644.9243
 259  813.2097
 260  1041.773
 261  735.3563
 262  801.09
 263  654.1533
 264  665.3741
 265  660.0369
 266  677.6965
 267  805.054
 268  743.4616
 269  558.3804
 270  707.6378
 271  720.4771
 272  687.635
 273  715.1167
 274  495.4764
 275  612.6761
 276  466.0357
 277  493.0807
 278  531.3011
 279  614.1241
 280  878.9774
 281  959.0805
 282  880.8202
 283  894.5112
 284  767.0719
 285  737.3849
 286  643.2328
 287  841.6763
 288  828.3584
 289  578.86
 290  412.2025
 291  267.4572
 292  435.1293
 293  516.1802
 294  640.0587
 295  757.278
 296  565.6608
 297  666.8123
 298  513.3163
 299  572.6718
 300  795.1013
 301  825.0496
 302  820.7632
 303  796.7068
 304  870.5778
 305  878.7972
 306  521.9186
 307  323.2149
 308  341.2205
 309  275.8855
 310  671.8193
 311  920.7898
 312  1088.221
 313  772.6228
 314  616.8441
 315  872.8972
 316  1131.308
 317  1082.306
 318  927.5941
 319  789.1378
 320  747.8022
 321  770.4572
 322  958.5613
 323  923.9373
 324  807.0275
 325  761.5445
 326  765.1559
 327  973.2377
 328  914.7924
 329  1009.105
 330  1068.908
 331  1134.582
 332  1227.232
 333  1083.012
 334  852.6147
 335  1041.491
 336  1066.591
 337  1072.647
 338  959.2211
 339  984.7733
 340  1095.535
 341  798.1263
 342  636.1614
 343  808.2889
 344  925.2227
 345  1057.324
 346  1015.333
 347  944.3608
 348  896.3584
 349  744.7833
 350  901.2473
 351  887.2337
 352  921.6265
 353  918.9218
 354  995.4785
 355  870.9897
 356  907.5162
 357  981.6895
 358  1146.698
 359  1247.935
 360  1261.79
 361  996.5693
 362  742.8217
 363  634.0978
 364  611.1011
 365  703.151
 366  574.1431
 367  694.4653
 368  791.2193
 369  980.832
 370  1074.557
 371  846.1792
 372  891.5524
 373  809.335
 374  670.1481
 375  646.8022
 376  503.7059
 377  673.9804
 378  937.0898
 379  835.3376
 380  849.438
 381  740.4292
 382  861.8207
 383  757.8596
 384  711.0403
 385  950.198
 386  975.8909
 387  929.2013
 388  839.2042
 389  838.7756
 390  784.316
 391  774.9863
 392  887.2327
 393  893.225
 394  740.7884
 395  836.718
 396  762.8748
 397  799.4954
 398  560.9648
 399  627.8429
 400  805.3383
 401  826.1247
 402  772.7631
 403  768.6356
 404  611.5927
 405  779.3088
 406  708.9182
 407  869.5142
 408  681.0483
 409  646.5427
 410  941.8464
 411  973.8947
 412  860.5623
 413  838.3602
 414  851.69
 415  1034.105
 416  987.1516
 417  894.1279
 418  982.3923
 419  791.1871
 420  858.5886
 421  789.9505
 422  537.8731
 423  406.033
 424  488.6429
 425  695.1938
 426  836.9754
 427  765.3549
 428  908.6494
 429  928.9321
 430  1092.501
 431  958.8766
 432  743.011
 433  578.8914
 434  619.6234
 435  775.5824
 436  653.2755
 437  638.0081
 438  553.4272
 439  341.6295
 440  413.528
 441  322.7038
 442  531.1973
 443  652.5355
 444  774.3047
 445  981.4699
 446  901.7582
 447  705.8214
 448  724.4813
 449  668.2329
 450  753.2075
 451  686.6324
 452  643.7587
 453  697.1564
 454  506.5206
 455  682.5695
 456  417.5542
 457  312.7896
 458  261.2127
 459  489.0055
 460  815.5924
 461  650.0294
 462  762.3957
 463  708.232
 464  925.001
 465  917.689
 466  1082.625
 467  933.769
 468  760.093
 469  573.0638
 470  719.798
 471  722.3929
 472  738.7368
 473  689.2796
 474  655.9625
 475  692.725
 476  504.9328
 477  534.2524
 478  590.9778
 479  691.7142
 480  889.0964
 481  830.7992
 482  780.1631
 483  868.8081
 484  716.8326
 485  740.1842
 486  504.3788
 487  555.5805
 488  679.4114
 489  680.8508
 490  635.9672
 491  577.8328
 492  504.087
 493  613.2
 494  513.7371
 495  602.973
 496  594.5693
 497  583.4548
 498  585.7263
 499  437.4189
 500  524.6565
 501  521.8817
 502  654.3406
 503  699.5407
 504  593.8819
 505  492.8025
 506  292.7111
 507  400.5629
 508  420.9738
 509  447.5059
 510  506.5182
 511  549.5749
 512  604.9222
 513  603.4782
 514  520.7476
 515  533.9011
 516  583.342
 517  613.0095
 518  824.8392
 519  573.3458
 520  601.6028
 521  372.5805
 522  455.0808
 523  388.4188
 524  479.0493
 525  842.6467
 526  855.7062
 527  572.0966
 528  451.2287
 529  594.658
 530  642.8707
 531  567.7833
 532  471.3754
 533  502.7654
 534  389.8081
 535  406.392
 536  537.015
 537  564.3274
 538  460.8326
 539  421.0713
 540  401.7506
 541  555.2885
 542  707.1758
 543  834.6125
 544  716.6138
 545  777.8483
 546  728.1056
 547  666.1563
 548  578.5226
 549  469.4622
 550  662.5813
 551  635.3455
 552  641.9507
 553  715.6396
 554  676.4575
 555  701.8531
 556  518.0486
 557  451.0734
 558  482.9037
 559  505.1625
 560  632.1561
 561  586.2113
 562  493.9785
 563  422.4338
 564  331.2651
 565  391.9411
 566  377.9398
 567  204.8233
 568  349.3196
 569  315.6218
 570  453.582
 571  426.5828
 572  405.8713
 573  545.4611
 574  694.8138
 575  592.2458
 576  322.3311
 577  179.9105
 578  372.6601
 579  559.4286
 580  716.2736
 581  788.6959
 582  901.9928
 583  1015.62
 584  959.4849
 585  1043.118
 586  1156.309
 587  1051.546
 588  821.1161
 589  478.11
 590  688.9289
 591  747.7319
 592  676.8544
 593  702.3454
 594  505.0209
 595  549.7918
 596  616.1
 597  688.9434
 598  857.3895
 599  744.2319
 600  644.7097
 601  609.1255
 602  479.7726
 603  668.0654
 604  574.0922
 605  645.86
 606  704.3397
 607  681.0573
 608  694.0851
 609  501.2869
 610  573.1389
 611  691.4832
 612  927.064
 613  1043.533
 614  1300.365
 615  1460.236
 616  1444.723
 617  1349.174
 618  1488.021
 619  1236.367
 620  1069.135
 621  770.7817
 622  792.7021
 623  737.0032
 624  591.5457
 625  619.5406
 626  638.2686
 627  620.2072
 628  612.6697
 629  480.4664
 630  661.0459
 631  712.1669
 632  670.251
 633  461.3974
 634  469.5528
 635  357.1341
 636  503.323
 637  284.5942
 638  463.9073
 639  551.8835
 640  617.0997
 641  610.2156
 642  656.5352
 643  687.0342
 644  795.2812
 645  916.0012
 646  1110.269
 647  1142.989
 648  1098.397
 649  906.3438
 650  808.1605
 651  861.8052
 652  896.942
 653  871.1366
 654  533.9212
 655  724.3553
 656  733.8745
 657  688.2148
 658  689.197
 659  620.4976
 660  745.7482
 661  627.7678
 662  525.2258
 663  468.5106
 664  423.0605
 665  719.6027
 666  856.5633
 667  733.029
 668  866.2356
 669  668.3474
 670  699.199
 671  534.9677
 672  573.3484
 673  598.9786
 674  495.1487
 675  565.1806
 676  795.1898
 677  745.7782
 678  607.4266
 679  445.8521
 680  661.9956
 681  756.5743
 682  853.9083
 683  873.0819
 684  824.7308
 685  782.293
 686  722.3162
 687  855.9607
 688  1016.009
 689  975.7948
 690  933.7432
 691  671.2261
 692  671.2473
 693  613.8737
 694  651.4136
 695  713.1365
 696  874.897
 697  756.0226
 698  771.8709
 699  616.5146
 700  778.0123
 701  887.389
 702  852.1658
 703  807.5341
 704  652.4626
 705  630.1614
 706  581.0614
 707  518.2879
 708  667.1347
 709  596.0303
 710  589.1782
 711  650.0806
 712  759.5576
 713  897.958
 714  798.5118
 715  747.7488
 716  755.0244
 717  746.8093
 718  638.0185
 719  456.5097
 720  422.4353
 721  370.6618
 722  378.3611
 723  392.3618
 724  636.3299
 725  749.4071
 726  651.8824
 727  517.9255
 728  682.9029
 729  732.3947
 730  785.348
 731  598.7836
 732  722.8925
 733  874.47
 734  684.3086
 735  557.7656
 736  418.8433
 737  457.0431
 738  427.8702
 739  315.7264
 740  189.5465
 741  205.3578
 742  517.381
 743  573.4363
 744  591.725
 745  386.9742
 746  640.0374
 747  686.0799
 748  716.2169
 749  732.4147
 750  705.1779
 751  786.5378
 752  622.1716
 753  624.6655
 754  594.7322
 755  573.9772
 756  603.6792
 757  532.8054
 758  677.147
 759  588.163
 760  663.4662
 761  724.9821
 762  865.1011
 763  868.0129
 764  632.9751
 765  630.2935
 766  829.29
 767  854.8208
 768  675.923
 769  367.6086
 770  345.7951
 771  436.1776
 772  321.0174
 773  282.8386
 774  237.5558
 775  522.5935
 776  635.0513
 777  554.3782
 778  808.8528
 779  848.2258
 780  1093.839
 781  1090.242
 782  997.2732
 783  818.9237
 784  616.1714
 785  570.0946
 786  544.9509
 787  399.9362
 788  309.6425
 789  219.2283
 790  239.4394
 791  323.366
 792  503.5239
 793  653.1839
 794  786.7167
 795  830.8314
 796  812.0797
 797  620.4528
 798  566.1212
 799  593.4353
 800  585.5997
 801  484.6369
 802  356.7785
 803  530.1249
 804  259.1894
 805  198.0826
 806  290.4971
 807  483.4209
 808  603.5889
 809  482.1053
 810  711.6984
 811  746.992
 812  678.525
 813  722.8381
 814  744.1055
 815  744.5038
 816  751.4094
 817  610.1633
 818  616.5994
 819  541.1797
 820  600.0295
 821  672.9578
 822  663.5244
 823  744.2805
 824  651.1222
 825  530.3577
 826  555.7028
 827  686.359
 828  767.7836
 829  680.0464
 830  631.0941
 831  748.4683
 832  836.1912
 833  784.3519
 834  808.4252
 835  811.9218
 836  801.5871
 837  708.0864
 838  718.6152
 839  609.2691
 840  868.0018
 841  1079.186
 842  1057.843
 843  991.4213
 844  883.9876
 845  1011.52
 846  1001.873
 847  899.0697
 848  893.8359
 849  913.5432
 850  814.6619
 851  893.9247
 852  872.3283
 853  902.2391
 854  766.9551
 855  676.2856
 856  842.244
 857  760.7013
 858  802.7745
 859  817.9106
 860  754.7517
 861  744.9521
 862  648.2831
 863  707.5768
 864  587.0587
 865  601.0795
 866  539.2868
 867  445.517
 868  508.1796
 869  446.0916
 870  437.5653
 871  415.6694
 872  354.2344
 873  518.7593
 874  651.7634
 875  819.5974
 876  779.3982
 877  771.2869
 878  809.33
 879  686.3055
 880  804.0906
 881  1059.542
 882  1059.435
 883  1050.886
 884  799.3173
 885  691.0203
 886  716.0878
 887  643.2167
 888  821.0022
 889  771.2692
 890  862.1916
 891  779.8044
 892  740.8606
 893  705.2056
 894  818.5275
 895  798.2155
 896  1123.596
 897  1148.955
 898  1120.27
 899  1037.894
 900  897.8503
 901  894.6285
 902  767.162
 903  789.3043
 904  584.3306
 905  691.02
 906  578.4506
 907  574.059
 908  401.1925
 909  560.2966
 910  716.6114
 911  825.9698
 912  780.2418
 913  797.5863
 914  830.4514
 915  841.4562
 916  684.526
 917  704.0073
 918  847.9507
 919  793.4062
 920  587.313
 921  557.7533
 922  483.9292
 923  621.7979
 924  629.7472
 925  678.046
 926  793.6222
 927  592.441
 928  794.9185
 929  795.8735
 930  981.666
 931  1142.517
 932  1105.174
 933  1055.943
 934  844.5385
 935  546.0106
 936  334.8865
 937  304.3153
 938  492.7445
 939  597.889
 940  587.8559
 941  557.6367
 942  583.7627
 943  697.9273
 944  700.0235
 945  717.3819
 946  912.6583
 947  1051.538
 948  1100.638
 949  888.7215
 950  796.3826
 951  766.5512
 952  549.4089
 953  467.5096
 954  409.4734
 955  446.7283
 956  447.783
 957  323.9522
 958  339.2662
 959  586.9323
 960  773.0524
 961  1011.643
 962  796.6833
 963  675.9412
 964  431.1953
 965  272.8535
 966  356.2393
 967  552.3367
 968  567.1522
 969  449.4832
 970  322.8597
 971  469.6636
 972  360.1669
 973  472.3153
 974  583.5388
 975  788.1006
 976  695.7609
 977  594.7663
 978  613.5062
 979  620.2159
 980  777.079
 981  816.3727
 982  906.0985
 983  895.4695
 984  819.4698
 985  619.3271
 986  461.963
 987  258.174
 988  512.1962
 989  687.435
 990  677.4626
 991  747.3435
 992  452.4803
 993  503.4484
 994  437.4473
 995  559.2182
 996  853.8933
 997  732.1398
 998  914.5904
 999  858.4672
1000  759.1027
1001  620.6652
1002  297.9924
1003  360.0967
1004  434.5028
1005  453.1548
1006  505.0631
1007  447.5749
1008  556.2778
1009  641.6693
1010  781.2025
1011  857.8228
1012  764.4951
1013  743.952
1014  786.2275
1015  800.7803
1016  851.6531
1017  647.2904
1018  564.264
1019  401.2914
1020  416.3406
1021  343.3488
1022  229.0713
1023  441.3334
