# Input file       =  1200140058.09837_cleaned.dat
# Candidate        =  PSR_0332+5434
# Telescope        =  AR
# Epoch_topo       =  58134.510151601506
# Epoch_bary       =  N/A
# T_sample         =  0.002
# Data Folded      =  7208960
# Data Avg         =  0.0948389412306082
# Data StdDev      =  4.17895104725584 
# Profile Bins     =  512
# Profile Avg      =  1335.26208318621 
# Profile StdDev   =  495.87088694889  
# Reduced chi-sqr  =  2.251
# Prob(Noise)      <  3.18e-51   (~15.0 sigma)
# P_topo (ms)      =  714.567578981994  +/- 1.74e-05
# P'_topo (s/s)    =  -0                +/- 9.37e-12
# P''_topo (s/s^2) =  0                 +/- 4.21e-15
# P_bary (ms)      =  N/A
# P'_bary (s/s)    =  N/A
# P''_bary (s/s^2) =  N/A
# P_orb (s)        =  N/A
# asin(i)/c (s)    =  N/A
# eccentricity     =  N/A
# w (rad)          =  N/A
# T_peri           =  N/A
######################################################
   0  1106.067
   1  690.1904
   2  1047.339
   3  1903.86
   4  2092.688
   5  1639.029
   6  769.3749
   7  827.0455
   8  997.7772
   9  1260.718
  10  1952.223
  11  2498.118
  12  2618.07
  13  1819.624
  14  1170.509
  15  1365.857
  16  1470.937
  17  1436.612
  18  1156.35
  19  1681.828
  20  1863.33
  21  1463.935
  22  997.5466
  23  1058.912
  24  1192.148
  25  1173.755
  26  1437.818
  27  2070.051
  28  2439.635
  29  2282.859
  30  1681.814
  31  1413.693
  32  1175.372
  33  979.2119
  34  932.0276
  35  1316.233
  36  2016.634
  37  1881.911
  38  1310.403
  39  695.6409
  40  548.3062
  41  496.8132
  42  1002.597
  43  1363.213
  44  2165.532
  45  2001.493
  46  1503.975
  47  1068.22
  48  741.3817
  49  736.15
  50  885.2012
  51  1022.411
  52  1642.598
  53  1969.75
  54  1782.772
  55  1223.828
  56  750.2714
  57  467.6462
  58  543.4329
  59  882.968
  60  1455.295
  61  2324.595
  62  1994.89
  63  1267.926
  64  659.2957
  65  1053.759
  66  960.6807
  67  804.915
  68  1474.364
  69  2330.938
  70  2276.826
  71  1714.19
  72  1305.215
  73  1049.765
  74  902.0598
  75  1038.175
  76  1984.049
  77  2263.986
  78  2479.656
  79  1917.62
  80  1039.1
  81  924.3868
  82  1133.247
  83  924.3718
  84  637.761
  85  1277.688
  86  1875.439
  87  1571.166
  88  1205.536
  89  964.8511
  90  963.1682
  91  730.9589
  92  907.8589
  93  1805.579
  94  2368.112
  95  2272.408
  96  1843.843
  97  1689.146
  98  1454.596
  99  1186.668
 100  1213.478
 101  1391.734
 102  2042.647
 103  2045.256
 104  1713.159
 105  1112.857
 106  779.4729
 107  849.7877
 108  1057.416
 109  1377.806
 110  2211.728
 111  2586.845
 112  1891.314
 113  1332.419
 114  964.7613
 115  926.885
 116  1002.941
 117  1275.672
 118  1725.397
 119  1807.931
 120  1766.188
 121  1051.971
 122  699.3874
 123  247.4162
 124  145.4532
 125  991.9837
 126  1858.811
 127  2811.977
 128  2412.347
 129  1335.416
 130  745.5909
 131  913.6517
 132  1390.002
 133  895.9869
 134  1203.296
 135  1909.148
 136  2000.312
 137  1455.284
 138  611.3248
 139  595.0169
 140  817.3993
 141  1197.882
 142  1220.802
 143  1773.624
 144  2149.16
 145  1871.074
 146  1469.016
 147  917.3372
 148  927.1157
 149  1247.734
 150  816.5419
 151  1412.011
 152  2154.655
 153  1739.637
 154  1334.599
 155  784.9353
 156  568.3475
 157  561.1699
 158  942.3137
 159  1509.934
 160  2134.515
 161  2122.77
 162  1690.703
 163  1300.53
 164  1404.739
 165  1208.608
 166  939.0342
 167  1159.811
 168  1554.518
 169  1608.271
 170  1606.918
 171  1107.383
 172  786.6534
 173  759.1023
 174  467.4047
 175  950.4351
 176  1747.584
 177  2030.227
 178  1877.759
 179  1088.448
 180  963.2902
 181  1069.78
 182  1088.975
 183  1094.79
 184  1425.684
 185  1505.072
 186  1264.923
 187  1127.369
 188  956.6289
 189  667.8257
 190  424.4796
 191  620.6674
 192  1399.776
 193  2074.05
 194  1864.429
 195  1526.323
 196  1318.735
 197  1009.508
 198  869.869
 199  1059.263
 200  1217.784
 201  1785.611
 202  1580.768
 203  1163.487
 204  527.3316
 205  608.8159
 206  714.1345
 207  815.5616
 208  1369.001
 209  1711.229
 210  1836.077
 211  1190.276
 212  809.8921
 213  942.3202
 214  859.4332
 215  730.2666
 216  1078.697
 217  1708.699
 218  2018.819
 219  1605.926
 220  1060.742
 221  678.0847
 222  414.5372
 223  510.6843
 224  1368.423
 225  1983.323
 226  2168.224
 227  2074.371
 228  1353.933
 229  1020.997
 230  1083.618
 231  1023.969
 232  667.0687
 233  763.6813
 234  1530.719
 235  1879.365
 236  1618.301
 237  1079.655
 238  887.5786
 239  504.6083
 240  439.1021
 241  804.9459
 242  1404.921
 243  1835.617
 244  1405.625
 245  1278.843
 246  1194.805
 247  906.6949
 248  864.7542
 249  944.3373
 250  1462.57
 251  1670.292
 252  1438.344
 253  770.4017
 254  558.5488
 255  691.5439
 256  523.8177
 257  711.4489
 258  1178.335
 259  1578.378
 260  1691.284
 261  1207.601
 262  891.159
 263  839.9498
 264  1058.07
 265  858.0175
 266  881.0277
 267  1495.766
 268  1772.536
 269  1327.009
 270  1125.989
 271  721.6875
 272  354.5803
 273  318.8052
 274  1083.881
 275  1917.505
 276  2295.762
 277  2163.51
 278  1578.118
 279  1122.815
 280  1149.354
 281  776.6654
 282  1117.649
 283  1714.245
 284  2224.634
 285  1660.222
 286  1262.66
 287  992.5933
 288  992.5859
 289  1341.996
 290  1300.31
 291  1775.757
 292  2197.39
 293  2039.682
 294  1748.54
 295  1661.884
 296  1299.904
 297  845.6215
 298  804.2633
 299  1137.693
 300  1589.926
 301  2022.304
 302  1887.788
 303  1305.14
 304  897.9979
 305  919.9717
 306  1557.615
 307  2257.389
 308  3322.92
 309  3940.854
 310  3815.552
 311  2628.977
 312  1779.815
 313  1387.198
 314  1091.582
 315  1076.21
 316  1294.583
 317  1794.078
 318  1888.061
 319  1774.709
 320  1354.924
 321  1254.909
 322  1017.379
 323  1256.128
 324  1862.524
 325  2306.79
 326  1919.937
 327  1500.775
 328  1045.705
 329  1037.906
 330  1273.232
 331  870.408
 332  864.1274
 333  1713.799
 334  1803.976
 335  1586.583
 336  1190.168
 337  874.6321
 338  480.3632
 339  730.7309
 340  1088.192
 341  1963.836
 342  2486.6
 343  1681.042
 344  1280.883
 345  1158.227
 346  1393.45
 347  1239.22
 348  1363.894
 349  1785.926
 350  1823.731
 351  1573.735
 352  1338.63
 353  987.7692
 354  645.8494
 355  898.6979
 356  1345.705
 357  1850.586
 358  2280.935
 359  2103.158
 360  1668.85
 361  920.6249
 362  952.8949
 363  1007.739
 364  674.7574
 365  1043.958
 366  1712.313
 367  1745.945
 368  1216.528
 369  1061.954
 370  893.8216
 371  824.8806
 372  837.5015
 373  941.5001
 374  2017.688
 375  2081.261
 376  1790.23
 377  1126.947
 378  1026.036
 379  1178.774
 380  887.3801
 381  630.7528
 382  1006.091
 383  1560.115
 384  1597.751
 385  1087.276
 386  954.2391
 387  916.0065
 388  872.6403
 389  791.1514
 390  1110.496
 391  1859.35
 392  1741.362
 393  1700.277
 394  1002.581
 395  920.6659
 396  932.0314
 397  698.8157
 398  957.9189
 399  1520.337
 400  1579.701
 401  1480.517
 402  1120.492
 403  561.8289
 404  544.608
 405  431.3783
 406  798.1885
 407  1713.091
 408  2090.872
 409  2065.5
 410  1533.159
 411  1239.262
 412  816.2706
 413  656.2427
 414  963.5035
 415  1319.479
 416  1828.029
 417  2033.526
 418  1570.724
 419  1159.106
 420  945.2374
 421  673.6987
 422  557.9296
 423  951.1289
 424  1890.411
 425  2127.621
 426  1643.758
 427  1412.052
 428  1253.209
 429  758.8472
 430  431.7835
 431  913.1461
 432  1363.308
 433  1522.645
 434  1159.19
 435  1048.581
 436  1090.838
 437  746.5216
 438  825.3782
 439  1360.693
 440  2093.579
 441  2200.297
 442  1399.511
 443  1106.31
 444  1269.871
 445  1224.86
 446  1325.789
 447  1371.751
 448  1445.268
 449  1553.785
 450  1258.118
 451  930.5825
 452  744.3081
 453  758.7034
 454  903.1985
 455  1166.385
 456  1460.142
 457  2140.708
 458  2775.956
 459  2431.158
 460  1579.334
 461  1236.33
 462  1430.141
 463  1298.6
 464  1036.071
 465  1528.369
 466  2039.314
 467  1656.251
 468  1127.05
 469  1032.197
 470  693.0482
 471  699.6265
 472  1433.811
 473  1957.081
 474  2602.395
 475  2051.804
 476  1155.983
 477  983.6382
 478  1012.175
 479  825.2211
 480  946.2809
 481  1217.534
 482  2028.833
 483  1980.135
 484  1122.458
 485  599.1068
 486  634.1851
 487  641.9827
 488  882.1495
 489  1277.058
 490  2264.007
 491  2652.765
 492  1949.299
 493  1348.103
 494  1337.976
 495  1511.283
 496  932.1401
 497  801.9232
 498  1209.341
 499  1848.475
 500  1338.318
 501  1061.942
 502  979.7721
 503  1092.199
 504  973.4969
 505  1216.133
 506  1903.156
 507  2398.781
 508  2114.496
 509  1402.021
 510  1129.504
 511  1079.916
