# Input file       =  1200341954.115353_cleaned.dat
# Candidate        =  PSR_0332+5434
# Telescope        =  AR
# Epoch_topo       =  58136.846911057328
# Epoch_bary       =  N/A
# T_sample         =  0.002
# Data Folded      =  7340032
# Data Avg         =  0.620612864355537
# Data StdDev      =  6.4784770668993  
# Profile Bins     =  1024
# Profile Avg      =  4448.25272989899 
# Profile StdDev   =  548.494054190423 
# Reduced chi-sqr  =  0.781
# Prob(Noise)      <  1   (~0.0 sigma)
# P_topo (ms)      =  714.569433239074  +/- 2.1e-05
# P'_topo (s/s)    =  -0                +/- 1.11e-11
# P''_topo (s/s^2) =  0                 +/- 4.89e-15
# P_bary (ms)      =  N/A
# P'_bary (s/s)    =  N/A
# P''_bary (s/s^2) =  N/A
# P_orb (s)        =  N/A
# asin(i)/c (s)    =  N/A
# eccentricity     =  N/A
# w (rad)          =  N/A
# T_peri           =  N/A
######################################################
   0  4167.797
   1  4178.415
   2  4377.188
   3  4590.2
   4  4410.045
   5  4398.385
   6  4643.918
   7  4647.898
   8  4391.18
   9  4272.192
  10  4247.805
  11  4148.382
  12  4090.985
  13  4319.623
  14  4593.604
  15  4463.398
  16  4214.435
  17  4198.903
  18  4169.644
  19  4151.003
  20  4017.146
  21  4121.587
  22  4355.666
  23  4596.615
  24  4751.898
  25  4620.221
  26  4459.825
  27  4373.073
  28  4129.879
  29  4080.107
  30  4162.116
  31  4306.184
  32  4370.339
  33  4098.914
  34  4314.759
  35  4480.298
  36  4457.354
  37  4297.822
  38  4191.047
  39  4334.458
  40  4384.396
  41  4504.647
  42  4665.921
  43  4782.458
  44  4613.434
  45  4437.984
  46  4290.021
  47  4234.658
  48  4096.353
  49  3909.043
  50  4233.015
  51  4308.377
  52  4509.972
  53  4600.729
  54  4626.452
  55  4621.208
  56  4581.72
  57  4461.53
  58  4596.582
  59  4634.226
  60  4583.735
  61  4385.807
  62  4256.012
  63  4489.414
  64  4342.229
  65  3956.913
  66  3778.939
  67  3973.753
  68  4318.778
  69  4219.059
  70  4230.75
  71  4389.266
  72  4511.405
  73  4383.094
  74  4354.44
  75  4219.173
  76  4095.135
  77  3917.376
  78  3909.013
  79  4100.408
  80  4414.955
  81  4455.525
  82  4313.951
  83  4082.712
  84  4272.883
  85  4286.149
  86  4177.701
  87  4218.263
  88  4543.195
  89  4755.976
  90  4560.056
  91  4466.531
  92  4629.271
  93  4310.946
  94  3917.594
  95  3839.051
  96  4123.083
  97  4068.847
  98  4095.428
  99  4290.361
 100  4455.72
 101  4292.566
 102  4236.355
 103  4307.78
 104  4288.806
 105  4224.763
 106  4089.407
 107  4225.829
 108  4423.366
 109  4673.161
 110  4726.005
 111  4600.279
 112  4560.814
 113  4630.121
 114  4598.816
 115  4332.148
 116  4291.452
 117  4288.528
 118  4417.529
 119  4207.24
 120  4331.231
 121  4301.341
 122  4116.388
 123  4024.96
 124  4005.8
 125  4291.918
 126  4450.082
 127  4713.665
 128  4907.109
 129  4820.412
 130  4510.444
 131  4291.539
 132  4194.377
 133  4195.409
 134  4268.76
 135  4046.556
 136  4138.041
 137  4214.459
 138  4405.155
 139  4408.449
 140  4407.661
 141  4479.384
 142  4466.016
 143  4209.143
 144  4124.165
 145  4370.188
 146  4594.72
 147  4698.59
 148  4415.865
 149  4324.897
 150  4259.418
 151  3912.451
 152  3751.858
 153  3539.233
 154  3831.073
 155  4155.154
 156  4447.496
 157  4815.96
 158  4775.183
 159  4565.43
 160  4430.791
 161  4344.26
 162  4385.563
 163  4369.186
 164  4363.951
 165  4482.405
 166  4681.877
 167  4800.099
 168  4741.442
 169  4579.353
 170  4558.436
 171  4385.364
 172  4431.083
 173  4501.57
 174  4649.214
 175  4498.448
 176  4395.385
 177  4481.06
 178  4676.336
 179  4616.995
 180  4345.992
 181  4225.977
 182  4191.143
 183  4031.298
 184  4226.512
 185  4456.472
 186  4757.196
 187  4665.387
 188  4452.141
 189  4142.098
 190  4046.238
 191  4142.695
 192  4106.841
 193  4187.335
 194  4390.93
 195  4340.827
 196  4516.461
 197  4477.531
 198  4587.661
 199  4611.443
 200  4395.456
 201  4277.255
 202  4248.218
 203  4435.047
 204  4624.476
 205  4709.276
 206  4864.841
 207  4789.353
 208  4556.928
 209  4302.558
 210  4333.545
 211  4371.7
 212  4513.99
 213  4437.854
 214  4579.809
 215  4703.185
 216  4507.382
 217  4525.35
 218  4410.075
 219  4324.629
 220  4162.602
 221  4054.719
 222  4431.055
 223  4704.235
 224  5066.035
 225  4991.819
 226  4768.655
 227  4581.654
 228  4412.205
 229  4231.702
 230  4173.745
 231  4374.817
 232  4624.229
 233  4785.575
 234  4760.426
 235  4701.411
 236  4497.758
 237  4329.669
 238  4340.634
 239  4459.556
 240  4685.304
 241  4737.028
 242  4638.613
 243  4486.176
 244  4463.28
 245  4457.438
 246  4448.315
 247  4377.161
 248  4511.014
 249  4568.036
 250  4544.161
 251  4674.49
 252  4929.23
 253  4975.991
 254  4836.654
 255  4683.981
 256  4639.679
 257  4320.982
 258  3957.036
 259  3884.929
 260  4150.792
 261  4267.558
 262  4139.634
 263  4293.044
 264  4519.985
 265  4524.48
 266  4283.737
 267  4087.712
 268  4073.31
 269  4078.643
 270  4203.409
 271  4393.285
 272  4543.512
 273  4563.341
 274  4401.739
 275  4458.756
 276  4391.364
 277  4453.625
 278  4316.64
 279  4432.127
 280  4515.412
 281  4627.579
 282  4777.941
 283  4571.187
 284  4543.325
 285  4460.125
 286  4265.192
 287  4156.064
 288  4305.751
 289  4614.173
 290  4572.231
 291  4508.762
 292  4376.949
 293  4549.215
 294  4544.75
 295  4580.733
 296  4474.393
 297  4496.682
 298  4362.717
 299  4278.905
 300  4400.995
 301  4672.932
 302  4742.783
 303  4819.416
 304  4571.796
 305  4523.038
 306  4231.344
 307  4279.969
 308  4420.183
 309  4807.98
 310  4900.827
 311  4891.373
 312  4622.333
 313  4566.423
 314  4387.496
 315  4188.606
 316  4201.679
 317  4199.472
 318  4337.826
 319  4283.866
 320  4093.95
 321  4234.701
 322  4418.629
 323  4346.877
 324  4224.68
 325  4099.38
 326  4157.002
 327  4207.008
 328  4207.006
 329  4433.78
 330  4267.946
 331  4098.448
 332  3915.106
 333  4155.031
 334  4338.01
 335  4407.999
 336  4431.265
 337  4466.948
 338  4725.925
 339  4745.125
 340  4769.394
 341  4516.326
 342  4511.743
 343  4473.529
 344  4285.387
 345  4326.409
 346  4408.762
 347  4509.745
 348  4323.668
 349  4455.511
 350  4671.342
 351  4697.971
 352  4360.567
 353  4112.49
 354  4002.008
 355  4063.233
 356  4192.702
 357  4495.052
 358  4834.973
 359  5000.595
 360  4904.199
 361  4465.788
 362  4199.19
 363  4105.394
 364  4234.209
 365  4490.46
 366  4535.165
 367  4738.588
 368  4680.725
 369  4598.645
 370  4492.94
 371  4384.893
 372  4154.428
 373  3893.202
 374  3960.821
 375  4210.21
 376  4519.751
 377  4635.995
 378  4899.606
 379  4888.805
 380  4692.141
 381  4390.903
 382  4337.749
 383  4303.813
 384  4441.72
 385  4391.173
 386  4420.254
 387  4368.627
 388  4438.549
 389  4458.175
 390  4152.736
 391  3979.552
 392  4244.652
 393  4298.787
 394  4587.941
 395  4553.556
 396  4851.64
 397  4966.478
 398  4714.67
 399  4452.641
 400  4360.868
 401  4158.121
 402  4059.531
 403  4223.25
 404  4469.9
 405  4530.918
 406  4441.588
 407  4682.991
 408  4688.164
 409  4334.917
 410  4190.608
 411  4073.503
 412  4086.583
 413  4019.483
 414  4121.168
 415  4583.841
 416  4917.27
 417  4802.35
 418  4652.144
 419  4413.819
 420  4381.858
 421  4171.642
 422  4056.944
 423  4203.027
 424  4263.876
 425  4359.796
 426  4233.447
 427  4234.135
 428  4427.243
 429  4577.998
 430  4315.236
 431  4081.067
 432  4142.37
 433  4325.061
 434  4510.785
 435  4621.12
 436  4726.419
 437  4535.113
 438  4252.71
 439  4076.062
 440  4048.894
 441  4096.504
 442  4328.162
 443  4608.948
 444  4783.719
 445  4631.028
 446  4439.537
 447  4607.286
 448  4585.926
 449  4636.343
 450  4381.604
 451  4336.611
 452  4559.163
 453  4837.53
 454  4867.483
 455  4631.719
 456  4424.494
 457  4661.858
 458  4605.683
 459  4519.234
 460  4496.125
 461  4529.805
 462  4639.712
 463  4335.241
 464  4470.964
 465  4557.807
 466  4478.469
 467  4415.32
 468  4380.428
 469  4407.591
 470  4406.799
 471  4068.916
 472  4331.035
 473  4470.718
 474  4783.933
 475  4798.048
 476  4487.199
 477  4268.707
 478  3975.916
 479  3946.791
 480  4141.312
 481  4445.402
 482  4857.051
 483  4994.044
 484  4908.359
 485  4759.204
 486  4624.471
 487  4338.939
 488  4256.002
 489  4370.573
 490  4468.503
 491  4476.454
 492  4299.763
 493  4543.301
 494  4555.231
 495  4454.321
 496  4468.319
 497  4343.535
 498  4275.551
 499  4044.303
 500  4123.411
 501  4388
 502  4604.59
 503  4603.376
 504  4696.054
 505  4633.96
 506  4553.492
 507  4421.712
 508  4090.901
 509  4115.041
 510  4291.689
 511  4606.365
 512  4560.403
 513  4361.616
 514  4437.092
 515  4388.215
 516  4253.824
 517  4300.196
 518  4428.572
 519  4581.208
 520  4387.334
 521  4286.476
 522  4255.574
 523  4165.717
 524  4079.434
 525  4180.845
 526  4259.082
 527  4347.842
 528  4284.989
 529  4362.074
 530  4508.569
 531  4597.183
 532  4490.12
 533  4257.613
 534  4085.781
 535  4174.794
 536  3990.62
 537  4192.982
 538  4460.188
 539  4790.804
 540  4936.43
 541  4751.239
 542  4681.819
 543  4451.849
 544  4487.238
 545  4420.536
 546  4480.119
 547  4413.157
 548  4490.692
 549  4365.319
 550  4494.951
 551  4619.671
 552  4762.377
 553  4828.905
 554  4700.625
 555  4480.595
 556  4300.195
 557  4123.589
 558  4523.138
 559  4658.581
 560  4764.183
 561  4738.887
 562  4735.554
 563  4735.665
 564  4508.973
 565  4459.313
 566  4628.822
 567  4654.816
 568  4583.571
 569  4666.376
 570  4654.458
 571  4554.597
 572  4391.099
 573  4097.253
 574  4113.202
 575  4199.644
 576  4602.24
 577  4756.573
 578  4912.685
 579  5078.324
 580  5026.785
 581  4718.105
 582  4605.947
 583  4624.683
 584  4493.244
 585  4390.847
 586  4342.049
 587  4704.328
 588  4808.706
 589  4800.739
 590  4690.261
 591  4564.652
 592  4558.711
 593  4386.732
 594  4172.601
 595  4393.554
 596  4765.253
 597  5023.147
 598  5021.582
 599  4780.457
 600  4640.514
 601  4362.873
 602  4259.148
 603  4199.172
 604  4327.44
 605  4602.105
 606  4746.859
 607  4801.89
 608  4817.653
 609  4895.507
 610  4813.566
 611  4820.582
 612  4698.226
 613  5023.133
 614  5143.528
 615  5408.491
 616  5568.098
 617  5716.697
 618  5745.032
 619  5481.173
 620  5332.18
 621  5147.157
 622  4897.17
 623  4726.141
 624  4713.398
 625  4671.401
 626  4699.685
 627  4469.434
 628  4441.524
 629  4266.721
 630  4176.337
 631  3860.991
 632  3770.15
 633  4126.512
 634  4460.078
 635  4637.706
 636  4889.635
 637  5079.613
 638  5095.798
 639  4831.51
 640  4418.133
 641  4058.22
 642  4065.656
 643  4222.769
 644  4693.054
 645  4885.172
 646  4764.763
 647  4671.224
 648  4409.209
 649  4302.918
 650  4144.299
 651  4177.581
 652  4345.738
 653  4364.72
 654  4469.493
 655  4547.768
 656  4364.474
 657  4536.644
 658  4736.756
 659  4601.296
 660  4433.951
 661  4228.035
 662  4425.62
 663  4544.563
 664  4820.827
 665  4991.208
 666  4881.118
 667  4508.956
 668  4412.117
 669  4450.283
 670  4574.082
 671  4561.356
 672  4671.38
 673  4877.52
 674  4954.965
 675  4995.664
 676  4886.431
 677  4789.017
 678  4791.652
 679  4755.043
 680  4588.885
 681  4604.099
 682  5007.433
 683  5305.301
 684  5123.687
 685  4790.61
 686  4639.831
 687  4399.468
 688  4063.79
 689  4197.618
 690  4526.722
 691  4950.661
 692  5051.686
 693  5085.312
 694  4905.817
 695  4578.729
 696  4301.554
 697  4179.145
 698  4216.354
 699  4351.842
 700  4363.575
 701  4320.75
 702  4397.228
 703  4392.721
 704  4443.96
 705  4498.729
 706  4400.95
 707  4266.457
 708  3966.004
 709  4113.313
 710  4353.205
 711  4601.849
 712  4721.345
 713  4671.02
 714  4755.63
 715  4746.732
 716  4433.65
 717  4269.757
 718  4242.36
 719  4440.891
 720  4676.535
 721  4838.787
 722  5091.986
 723  4885.131
 724  4514.942
 725  4264.55
 726  4164.189
 727  4094.463
 728  3967.909
 729  3998.685
 730  4544.835
 731  4851.223
 732  5001.316
 733  4890.318
 734  4746.146
 735  4691.455
 736  4476.472
 737  4102.412
 738  4110.86
 739  4535.685
 740  5066.546
 741  5126.092
 742  4697.852
 743  4478.258
 744  4195.738
 745  3955.979
 746  3877.2
 747  4042.598
 748  4227.992
 749  4179.129
 750  4251.904
 751  4491.078
 752  4497.987
 753  4410.639
 754  4441.502
 755  4391.371
 756  4365.854
 757  4583.891
 758  4760.101
 759  4856.479
 760  4676.942
 761  4518.413
 762  4346.611
 763  4220.118
 764  4210.359
 765  4229.27
 766  4228.648
 767  4457.79
 768  4477.213
 769  4525.571
 770  4486.976
 771  4636.27
 772  4804.911
 773  4649.998
 774  4357.196
 775  4160.677
 776  4312.464
 777  4307.264
 778  4426.692
 779  4578.72
 780  4712.741
 781  4584.234
 782  4296.696
 783  4299.634
 784  4345.544
 785  4416.955
 786  4271.985
 787  4259.327
 788  4245.177
 789  4455.739
 790  4492.512
 791  4390.909
 792  4326.391
 793  4455.517
 794  4612.812
 795  4403.421
 796  4298.655
 797  4470.522
 798  4709.185
 799  4697.885
 800  4640.267
 801  4571.111
 802  4404.397
 803  4198.747
 804  4161.971
 805  4481.814
 806  4690.791
 807  4596.61
 808  4657.442
 809  4866.445
 810  4769.045
 811  4569.86
 812  4317.146
 813  4229.014
 814  4266.334
 815  4476.741
 816  4721.563
 817  4659.99
 818  4693.125
 819  4715.8
 820  4450.674
 821  4330.52
 822  4129.801
 823  4163.196
 824  4257.986
 825  4518.802
 826  4528.082
 827  4401.115
 828  4306.414
 829  4349.404
 830  4392.167
 831  4109.788
 832  4157.898
 833  4223.58
 834  4468.843
 835  4369.485
 836  4331.225
 837  4524.131
 838  4500.765
 839  4392.318
 840  4282.241
 841  4302.157
 842  4187.428
 843  4135.756
 844  4148.682
 845  4308.478
 846  4499.032
 847  4590.116
 848  4484.043
 849  4206.344
 850  4314.748
 851  4215.457
 852  3844.812
 853  3792.179
 854  4066.265
 855  4570.557
 856  4605.7
 857  4394.092
 858  4447.726
 859  4605.017
 860  4653.425
 861  4579.372
 862  4324.124
 863  4284.614
 864  4305.676
 865  4550.294
 866  4715.531
 867  4757.61
 868  4494.479
 869  4269.583
 870  4266.809
 871  4199.446
 872  4175.907
 873  4275.03
 874  4625.611
 875  4901.488
 876  4870.03
 877  4483.643
 878  4350.4
 879  4376.3
 880  4248.394
 881  4131.981
 882  4091.712
 883  4306.237
 884  4201.83
 885  4085.783
 886  4142.24
 887  4266.782
 888  4270.421
 889  4145.045
 890  4018.378
 891  4203.279
 892  4420.861
 893  4610.578
 894  4744.434
 895  4770.17
 896  4459.492
 897  4281.634
 898  4105.501
 899  4167.18
 900  4386.292
 901  4481.467
 902  4860.213
 903  5001.071
 904  4982.475
 905  4762.213
 906  4327.831
 907  4116.439
 908  3991.556
 909  3902.631
 910  3976.075
 911  4133.951
 912  4406.248
 913  4500.246
 914  4320.686
 915  4376.921
 916  4407.427
 917  4353.754
 918  4224.041
 919  4226.86
 920  4263.521
 921  4328.215
 922  4388.215
 923  4633.551
 924  4541.331
 925  4233.507
 926  3986.101
 927  3763.887
 928  3765.125
 929  3978.351
 930  4262.477
 931  4677.211
 932  4809.773
 933  4929.292
 934  4885.811
 935  4773.995
 936  4568.571
 937  4417.866
 938  4235.934
 939  4046.118
 940  4075.185
 941  4231.768
 942  4230.248
 943  4312.722
 944  4465.442
 945  4613.746
 946  4305.478
 947  4257.486
 948  4381.232
 949  4513.857
 950  4567.785
 951  4604.623
 952  4709.224
 953  4561.216
 954  4256.612
 955  4021.363
 956  4101.886
 957  4224.701
 958  4322.81
 959  4340.781
 960  4610.469
 961  4635.503
 962  4726.95
 963  4473.234
 964  4351.101
 965  4511.15
 966  4476.65
 967  4422.727
 968  4304.5
 969  4521.041
 970  4847.321
 971  4891.334
 972  4830.074
 973  4716.087
 974  4476.698
 975  4224.444
 976  4150.906
 977  4266.684
 978  4435.397
 979  4553.271
 980  4892.253
 981  4812.659
 982  4618.477
 983  4543.897
 984  4400.497
 985  4434.301
 986  4270.112
 987  4219.532
 988  4353.759
 989  4628.065
 990  4667.889
 991  4520.79
 992  4434.29
 993  4673.214
 994  4813.764
 995  4623.47
 996  4405.488
 997  4630.548
 998  4634.983
 999  4625.166
1000  4456.07
1001  4844.683
1002  4850.83
1003  4561.252
1004  4251.66
1005  4333.43
1006  4459.363
1007  4448.466
1008  4446.276
1009  4611.908
1010  4779.508
1011  4587.172
1012  4519.783
1013  4327.371
1014  4261.238
1015  4275.434
1016  4304.808
1017  4424.472
1018  4428.129
1019  4489.102
1020  4504.776
1021  4502.601
1022  4603.643
1023  4469.853
