# Input file       =  1200484724.120746_cleaned.dat
# Candidate        =  PSR_0332+5434
# Telescope        =  AR
# Epoch_topo       =  58138.499341675299
# Epoch_bary       =  N/A
# T_sample         =  0.002
# Data Folded      =  7143424
# Data Avg         =  0.0908358809837233
# Data StdDev      =  5.02236706952496 
# Profile Bins     =  1024
# Profile Avg      =  636.096028482917 
# Profile StdDev   =  419.480412848795 
# Reduced chi-sqr  =  0.855
# Prob(Noise)      <  1   (~0.0 sigma)
# P_topo (ms)      =  714.570094848059  +/- 3.66e-05
# P'_topo (s/s)    =  -0                +/- 1.98e-11
# P''_topo (s/s^2) =  0                 +/- 9e-15
# P_bary (ms)      =  N/A
# P'_bary (s/s)    =  N/A
# P''_bary (s/s^2) =  N/A
# P_orb (s)        =  N/A
# asin(i)/c (s)    =  N/A
# eccentricity     =  N/A
# w (rad)          =  N/A
# T_peri           =  N/A
######################################################
   0  701.5795
   1  530.807
   2  395.5706
   3  300.7874
   4  489.7848
   5  562.1697
   6  634.9482
   7  618.7116
   8  524.0901
   9  765.285
  10  896.6498
  11  1109.045
  12  1061.507
  13  1141.895
  14  1200.303
  15  1016.802
  16  839.0119
  17  483.4725
  18  456.4135
  19  488.4487
  20  501.3322
  21  545.8762
  22  590.5638
  23  682.1099
  24  639.9724
  25  564.5966
  26  702.4006
  27  616.3472
  28  640.444
  29  524.1854
  30  594.0372
  31  629.8991
  32  611.752
  33  439.5873
  34  442.9197
  35  282.4437
  36  325.1491
  37  270.1844
  38  476.2656
  39  669.4354
  40  736.467
  41  786.0233
  42  815.9267
  43  799.9818
  44  900.405
  45  814.5797
  46  986.7327
  47  1029.561
  48  1057.569
  49  1114.362
  50  893.6495
  51  644.0317
  52  311.9657
  53  255.5306
  54  438.9125
  55  435.4824
  56  633.4249
  57  662.8668
  58  693.1967
  59  807.913
  60  744.4669
  61  798.9954
  62  648.7868
  63  650.2245
  64  690.4478
  65  616.1419
  66  763.5688
  67  705.4459
  68  637.9075
  69  536.5848
  70  414.3294
  71  451.3826
  72  584.6509
  73  674.6813
  74  944.3887
  75  790.9122
  76  992.3431
  77  965.485
  78  1079.016
  79  1047.021
  80  847.2775
  81  896.937
  82  739.2704
  83  634.6016
  84  655.4526
  85  625.8488
  86  697.6366
  87  579.467
  88  598.1318
  89  777.4351
  90  709.3945
  91  795.6876
  92  617.1036
  93  659.6467
  94  656.9929
  95  593.6382
  96  715.47
  97  727.8887
  98  695.0522
  99  681.7972
 100  532.2155
 101  523.6907
 102  410.9722
 103  512.891
 104  651.7687
 105  590.2556
 106  617.0507
 107  610.9846
 108  663.8928
 109  727.2039
 110  544.5788
 111  475.6008
 112  482.4566
 113  651.5734
 114  783.797
 115  769.6332
 116  767.446
 117  655.4222
 118  510.8904
 119  506.3082
 120  485.4647
 121  602.0967
 122  620.2741
 123  573.3743
 124  602.4577
 125  331.315
 126  256.6167
 127  92.10352
 128  487.9099
 129  639.0321
 130  646.8489
 131  553.2088
 132  465.7993
 133  374.3856
 134  302.0582
 135  254.36
 136  319.3218
 137  435.0257
 138  495.7266
 139  525.6263
 140  610.3251
 141  831.3823
 142  972.3878
 143  917.1768
 144  1005.224
 145  869.2426
 146  1044.901
 147  973.3827
 148  824.4189
 149  787.9025
 150  541.389
 151  473.6518
 152  334.5908
 153  460.4025
 154  527.5145
 155  462.2342
 156  558.739
 157  562.4543
 158  495.1899
 159  622.6741
 160  588.3735
 161  626.3361
 162  617.5841
 163  628.548
 164  691.4737
 165  567.7571
 166  545.391
 167  425.195
 168  388.8611
 169  461.2393
 170  475.9443
 171  661.4153
 172  837.1235
 173  791.7007
 174  813.0869
 175  679.0256
 176  828.0627
 177  874.9606
 178  798.476
 179  746.3519
 180  622.2802
 181  576.3496
 182  421.9194
 183  291.1325
 184  311.5361
 185  297.4116
 186  442.6089
 187  467.6463
 188  415.0572
 189  572.6699
 190  575.9349
 191  743.3034
 192  614.454
 193  675.2634
 194  599.1817
 195  547.4989
 196  653.799
 197  684.4205
 198  605.1434
 199  452.914
 200  324.9438
 201  288.2809
 202  408.1546
 203  515.6697
 204  845.0179
 205  908.9612
 206  1053.786
 207  1092.162
 208  1096.739
 209  1159.385
 210  1076.474
 211  1140.24
 212  1173.507
 213  850.4842
 214  796.957
 215  528.895
 216  509.6066
 217  375.3719
 218  321.6521
 219  486.9102
 220  453.1049
 221  525.5443
 222  566.8119
 223  597.5754
 224  862.2205
 225  769.0891
 226  970.1476
 227  770.0097
 228  721.7143
 229  585.92
 230  529.1204
 231  477.7811
 232  497.6252
 233  532.3914
 234  557.6285
 235  423.4382
 236  464.3881
 237  553.0892
 238  490.4739
 239  604.2984
 240  675.2903
 241  773.0981
 242  854.2484
 243  694.5049
 244  857.401
 245  696.1036
 246  778.9446
 247  852.3745
 248  786.1212
 249  658.1759
 250  439.4863
 251  414.5244
 252  469.1941
 253  458.6405
 254  558.2888
 255  451.2794
 256  523.9856
 257  529.8005
 258  486.5948
 259  500.9041
 260  413.5353
 261  597.4554
 262  635.9938
 263  585.0383
 264  456.9286
 265  309.2291
 266  186.4901
 267  176.0657
 268  242.7879
 269  407.9309
 270  530.5991
 271  740.1135
 272  898.3487
 273  771.5918
 274  884.7472
 275  862.7557
 276  881.861
 277  787.3594
 278  582.4359
 279  651.6777
 280  502.8319
 281  652.7797
 282  573.8409
 283  594.7484
 284  536.8735
 285  452.1066
 286  457.7333
 287  583.3909
 288  654.2066
 289  744.1362
 290  547.506
 291  639.7029
 292  774.639
 293  735.9583
 294  694.1489
 295  550.2709
 296  682.4024
 297  655.3599
 298  611.8029
 299  431.5435
 300  370.1983
 301  327.8634
 302  452.2767
 303  542.9041
 304  784.137
 305  919.0388
 306  768.3071
 307  925.4398
 308  831.5568
 309  958.7081
 310  835.5169
 311  955.3011
 312  929.4469
 313  732.8241
 314  715.4451
 315  704.4494
 316  648.9084
 317  551.835
 318  389.4812
 319  451.3115
 320  464.6043
 321  627.4039
 322  773.9299
 323  727.9153
 324  733.3994
 325  531.2386
 326  597.3511
 327  554.5093
 328  612.2568
 329  629.4504
 330  481.0634
 331  209.9196
 332  53.51033
 333  66.29797
 334  302.4377
 335  553.2444
 336  783.6792
 337  721.424
 338  633.9551
 339  702.542
 340  823.4112
 341  658.2686
 342  658.4827
 343  705.7355
 344  878.6738
 345  772.3792
 346  684.0365
 347  708.8612
 348  468.162
 349  373.0045
 350  222.6084
 351  313.353
 352  335.578
 353  338.57
 354  587.3781
 355  648.7672
 356  592.4662
 357  665.4388
 358  605.6773
 359  792.9831
 360  579.6393
 361  670.379
 362  721.0164
 363  681.21
 364  565.3514
 365  403.8592
 366  247.9135
 367  256.5751
 368  236.1571
 369  450.0732
 370  390.0364
 371  510.4705
 372  708.8031
 373  767.2882
 374  822.1054
 375  832.0657
 376  894.8664
 377  960.7737
 378  876.7398
 379  729.0785
 380  508.4292
 381  376.6093
 382  509.0727
 383  532.3286
 384  573.9014
 385  585.9109
 386  623.2371
 387  677.3923
 388  485.6081
 389  433.6424
 390  350.0821
 391  455.3237
 392  572.1987
 393  541.7834
 394  641.384
 395  494.0663
 396  504.2325
 397  401.3087
 398  259.5046
 399  293.3856
 400  269.0938
 401  447.4304
 402  612.9958
 403  826.3081
 404  994.0019
 405  969.7406
 406  928.9028
 407  886.2504
 408  745.2361
 409  764.2336
 410  740.3456
 411  816.733
 412  767.1242
 413  644.1031
 414  671.5317
 415  511.6503
 416  393.784
 417  336.6439
 418  479.72
 419  671.5883
 420  583.6834
 421  368.7729
 422  392.2954
 423  295.4125
 424  249.5177
 425  316.1544
 426  527.1019
 427  706.9938
 428  679.2537
 429  655.2416
 430  525.372
 431  328.5899
 432  227.938
 433  229.0257
 434  210.3799
 435  273.7704
 436  274.926
 437  397.0757
 438  555.2267
 439  753.3798
 440  917.3687
 441  801.1466
 442  869.71
 443  759.553
 444  817.1628
 445  709.572
 446  766.8843
 447  596.9733
 448  482.9928
 449  469.1008
 450  731.9648
 451  849.4384
 452  733.707
 453  648.0036
 454  656.0453
 455  641.4485
 456  505.5196
 457  568.2826
 458  636.0395
 459  839.273
 460  715.9271
 461  657.031
 462  596.2858
 463  707.9168
 464  522.914
 465  294.6586
 466  107.1768
 467  322.8168
 468  546.974
 469  833.0999
 470  971.571
 471  944.9778
 472  986.8671
 473  970.4935
 474  1024.985
 475  959.1108
 476  892.6771
 477  824.971
 478  707.3459
 479  779.486
 480  749.3582
 481  549.969
 482  460.1922
 483  332.9131
 484  485.2789
 485  446.3135
 486  493.714
 487  626.808
 488  666.8261
 489  679.623
 490  714.8739
 491  719.2026
 492  859.7626
 493  752.2911
 494  820.8549
 495  532.3388
 496  344.9211
 497  184.0695
 498  221.3449
 499  215.7516
 500  392.5875
 501  570.9155
 502  809.8745
 503  796.7108
 504  772.7413
 505  848.0492
 506  1007.619
 507  1031.705
 508  957.6295
 509  1022.858
 510  958.5891
 511  607.0592
 512  418.2963
 513  339.8367
 514  437.9839
 515  313.6383
 516  278.8499
 517  344.5214
 518  374.9778
 519  625.1669
 520  656.0326
 521  722.4086
 522  762.7845
 523  656.7469
 524  525.224
 525  396.0585
 526  457.0859
 527  602.9161
 528  567.8088
 529  519.5392
 530  382.856
 531  324.8246
 532  355.103
 533  418.1627
 534  627.8177
 535  742.3928
 536  782.2166
 537  876.4688
 538  955.8666
 539  882.0172
 540  845.6021
 541  815.6149
 542  1031.277
 543  987.4218
 544  986.7862
 545  899.4919
 546  676.038
 547  495.7441
 548  371.6343
 549  419.3629
 550  480.783
 551  418.8571
 552  520.2276
 553  350.4683
 554  260.4468
 555  323.0582
 556  532.1145
 557  828.0483
 558  829.2462
 559  915.2566
 560  790.8859
 561  744.7771
 562  637.7857
 563  466.8983
 564  344.6228
 565  388.5587
 566  520.9938
 567  616.8779
 568  612.3942
 569  541.9328
 570  562.1984
 571  589.8601
 572  694.5016
 573  779.1614
 574  841.4774
 575  956.2571
 576  995.2974
 577  1029.096
 578  834.8871
 579  749.5181
 580  642.0392
 581  607.3735
 582  434.8578
 583  330.1749
 584  440.1434
 585  546.9081
 586  678.7424
 587  640.2247
 588  566.8209
 589  510.1993
 590  578.8355
 591  624.2632
 592  690.4034
 593  712.7488
 594  769.9193
 595  588.1577
 596  396.02
 597  382.4773
 598  477.2199
 599  479.7751
 600  544.3192
 601  735.7058
 602  955.7113
 603  930.8901
 604  812.3282
 605  796.16
 606  730.0566
 607  748.8392
 608  672.4381
 609  778.5441
 610  859.3473
 611  869.8972
 612  865.838
 613  833.5
 614  846.588
 615  1013.597
 616  1182.194
 617  1364.982
 618  1242.725
 619  1304.907
 620  1240.613
 621  1165.762
 622  1053.613
 623  1064.469
 624  1028.939
 625  935.8
 626  749.1475
 627  628.7601
 628  380.6507
 629  330.1867
 630  262.5026
 631  421.8918
 632  600.5978
 633  663.028
 634  700.3953
 635  740.9254
 636  815.4423
 637  853.881
 638  758.4647
 639  695.7527
 640  702.4594
 641  722.551
 642  805.2783
 643  796.5132
 644  867.4843
 645  843.5941
 646  625.5674
 647  611.0627
 648  649.9775
 649  764.9272
 650  657.9236
 651  535.6588
 652  755.9558
 653  822.3774
 654  883.4731
 655  868.1534
 656  785.3325
 657  826.3808
 658  840.3892
 659  1005.889
 660  864.2371
 661  677.1175
 662  607.7628
 663  531.2272
 664  548.2901
 665  622.2021
 666  709.371
 667  855.6619
 668  824.1854
 669  875.2761
 670  840.4958
 671  731.1041
 672  779.8606
 673  776.6134
 674  784.2381
 675  668.5455
 676  583.0038
 677  727.2651
 678  669.878
 679  553.1508
 680  436.3261
 681  368.9265
 682  286.0132
 683  227.6174
 684  373.8489
 685  527.6834
 686  516.072
 687  565.7577
 688  658.8344
 689  714.3101
 690  800.3295
 691  633.0839
 692  685.7715
 693  625.9669
 694  504.0096
 695  310.072
 696  152.9751
 697  246.1582
 698  364.2402
 699  435.1026
 700  580.8113
 701  642.5621
 702  806.1425
 703  725.6672
 704  787.041
 705  868.6056
 706  963.7375
 707  987.4562
 708  914.499
 709  917.3198
 710  744.1423
 711  587.769
 712  478.293
 713  261.7956
 714  104.5232
 715  137.4386
 716  237.6417
 717  430.9531
 718  417.5405
 719  624.9999
 720  705.9031
 721  611.2892
 722  478.8673
 723  495.7066
 724  619.4584
 725  606.2188
 726  599.0106
 727  603.9883
 728  535.379
 729  415.068
 730  263.5442
 731  280.2456
 732  369.3987
 733  607.382
 734  660.3207
 735  781.9849
 736  925.2975
 737  937.0803
 738  943.684
 739  900.8164
 740  1141.801
 741  995.6417
 742  925.2316
 743  577.048
 744  472.3996
 745  351.8229
 746  399.4132
 747  497.9279
 748  550.8187
 749  663.7491
 750  577.0646
 751  484.0688
 752  557.5513
 753  528.2917
 754  503.6128
 755  462.7943
 756  627.9067
 757  620.0902
 758  595.0951
 759  587.3298
 760  622.502
 761  600.0184
 762  453.8398
 763  374.0742
 764  401.3962
 765  468.5895
 766  589.2039
 767  690.154
 768  777.0018
 769  757.6176
 770  827.8899
 771  821.3124
 772  856.8305
 773  803.8577
 774  839.1915
 775  893.3979
 776  811.5895
 777  739.7302
 778  563.5723
 779  531.1149
 780  437.7876
 781  290.2639
 782  290.3181
 783  392.5657
 784  565.1191
 785  645.9695
 786  454.0625
 787  581.0037
 788  599.4894
 789  795.4193
 790  817.1602
 791  870.1262
 792  964.1644
 793  816.4526
 794  568.1713
 795  212.4568
 796  143.8683
 797  193.3963
 798  350.2548
 799  467.2622
 800  711.0989
 801  731.4658
 802  811.1289
 803  863.1998
 804  894.3349
 805  958.4377
 806  912.5854
 807  1120.545
 808  1040.276
 809  773.4405
 810  573.1536
 811  422.609
 812  336.0128
 813  265.2949
 814  323.9396
 815  498.4046
 816  552.4423
 817  728.6746
 818  684.529
 819  577.6781
 820  614.2756
 821  639.9286
 822  737.5223
 823  662.1426
 824  641.8921
 825  634.4348
 826  574.5548
 827  489.9515
 828  282.1119
 829  385.959
 830  471.9087
 831  791.4245
 832  971.111
 833  972.1906
 834  744.3209
 835  652.473
 836  713.8455
 837  757.8305
 838  791.9243
 839  759.7791
 840  747.9471
 841  658.5318
 842  648.387
 843  513.5759
 844  455.227
 845  455.3337
 846  253.5507
 847  302.3968
 848  236.433
 849  464.3232
 850  574.269
 851  631.1625
 852  568.9031
 853  507.3315
 854  637.4978
 855  662.6827
 856  679.1045
 857  788.345
 858  674.355
 859  467.6757
 860  222.5048
 861  42.99851
 862  -73.3178
 863  103.7723
 864  398.3922
 865  637.6641
 866  704.1458
 867  872.3651
 868  989.0146
 869  941.7421
 870  1019.062
 871  916.6868
 872  981.3474
 873  936.1326
 874  918.9113
 875  989.4579
 876  725.0998
 877  529.2701
 878  360.2625
 879  505.0646
 880  529.6989
 881  410.103
 882  541.6585
 883  687.9859
 884  779.5671
 885  823.1801
 886  793.7002
 887  816.4839
 888  917.3499
 889  1011.926
 890  921.3314
 891  686.6109
 892  538.4304
 893  405.8631
 894  392.8043
 895  434.3427
 896  545.7202
 897  613.6888
 898  728.3508
 899  795.6639
 900  988.7004
 901  931.8334
 902  1033.925
 903  1086.005
 904  1034.728
 905  857.8703
 906  749.6808
 907  868.9418
 908  969.2501
 909  834.6489
 910  722.6378
 911  529.4543
 912  461.3582
 913  395.9758
 914  469.0691
 915  663.7416
 916  606.9992
 917  636.1767
 918  577.7237
 919  626.3843
 920  661.7928
 921  732.8461
 922  796.4429
 923  784.0961
 924  701.301
 925  690.6259
 926  448.535
 927  329.5933
 928  250.267
 929  490.7672
 930  753.5405
 931  780.1203
 932  654.6717
 933  687.8962
 934  774.7676
 935  1068.126
 936  972.6434
 937  986.8032
 938  963.8318
 939  965.4814
 940  1003.307
 941  745.6646
 942  635.9952
 943  521.8524
 944  411.5495
 945  373.4247
 946  193.4585
 947  306.008
 948  361.1964
 949  438.321
 950  608.5644
 951  580.4536
 952  641.8175
 953  609.3884
 954  660.4502
 955  845.1562
 956  887.1256
 957  876.1482
 958  771.9631
 959  687.311
 960  542.1584
 961  311.3918
 962  410.0464
 963  511.1949
 964  531.6822
 965  606.1135
 966  650.3005
 967  785.858
 968  789.9974
 969  741.4066
 970  748.5778
 971  716.0958
 972  786.6218
 973  817.7876
 974  791.6791
 975  921.6884
 976  747.9689
 977  682.6838
 978  519.76
 979  505.0408
 980  580.4293
 981  484.0793
 982  487.219
 983  371.7418
 984  413.3469
 985  493.035
 986  486.9962
 987  638.5588
 988  767.3045
 989  743.9109
 990  717.9262
 991  571.091
 992  557.4679
 993  497.8555
 994  430.3448
 995  642.5255
 996  713.0804
 997  876.7894
 998  833.2723
 999  817.184
1000  924.5607
1001  877.2393
1002  778.9417
1003  745.4433
1004  680.3857
1005  746.0345
1006  778.7873
1007  826.0222
1008  775.0344
1009  539.2716
1010  484.1919
1011  295.7131
1012  302.9799
1013  308.1015
1014  310.0839
1015  436.8921
1016  494.6038
1017  628.3762
1018  659.1902
1019  653.3386
1020  588.0516
1021  616.3418
1022  662.7018
1023  762.7303
