# Input file       =  1200484724.120746_cleaned.dat
# Candidate        =  PSR_0332+5434
# Telescope        =  AR
# Epoch_topo       =  58138.499341675299
# Epoch_bary       =  N/A
# T_sample         =  0.002
# Data Folded      =  7143424
# Data Avg         =  0.0908358809837233
# Data StdDev      =  5.02236706952496 
# Profile Bins     =  512
# Profile Avg      =  1272.19205759271 
# Profile StdDev   =  593.234889000631 
# Reduced chi-sqr  =  0.930
# Prob(Noise)      <  0.871   (~0.0 sigma)
# P_topo (ms)      =  714.570094766833  +/- 3.75e-05
# P'_topo (s/s)    =  -0                +/- 2.03e-11
# P''_topo (s/s^2) =  0                 +/- 9.22e-15
# P_bary (ms)      =  N/A
# P'_bary (s/s)    =  N/A
# P''_bary (s/s^2) =  N/A
# P_orb (s)        =  N/A
# asin(i)/c (s)    =  N/A
# eccentricity     =  N/A
# w (rad)          =  N/A
# T_peri           =  N/A
######################################################
   0  1400.439
   1  782.0439
   2  903.3813
   3  1237.393
   4  1183.048
   5  1842.217
   6  2232.242
   7  2298.319
   8  1541.069
   9  932.6519
  10  1024.996
  11  1248.762
  12  1252.021
  13  1259.045
  14  1206.569
  15  1195.345
  16  1185.135
  17  756.4587
  18  600.9099
  19  908.2082
  20  1531.31
  21  1598.151
  22  1676.445
  23  1904.835
  24  2118.914
  25  1851.776
  26  715.6246
  27  795.6036
  28  1165.766
  29  1453.281
  30  1533.509
  31  1396.78
  32  1314.272
  33  1416.74
  34  1248.226
  35  920.2006
  36  1130.358
  37  1673.408
  38  1854.612
  39  2105.721
  40  1851.104
  41  1527.125
  42  1250.633
  43  1274.017
  44  1293.001
  45  1519.799
  46  1331.562
  47  1280.876
  48  1372.99
  49  1362.697
  50  1175.756
  51  896.9331
  52  1239.088
  53  1181.612
  54  1380.567
  55  1142.751
  56  1022.212
  57  1502.074
  58  1474.064
  59  1086.479
  60  1050.937
  61  1257.033
  62  1027.21
  63  393.1869
  64  863.9319
  65  1272.576
  66  936.6956
  67  624.2051
  68  630.2104
  69  1002.868
  70  1298.328
  71  1843.243
  72  1856.295
  73  1987.052
  74  1732.569
  75  1179.706
  76  798.1573
  77  971.6202
  78  1055.201
  79  1086.714
  80  1254.634
  81  1221.065
  82  1321.722
  83  1026.863
  84  797.3015
  85  1039.19
  86  1612.575
  87  1507.648
  88  1579.423
  89  1647.39
  90  1303.577
  91  866.4691
  92  541.7556
  93  824.66
  94  936.1974
  95  1283.576
  96  1341.47
  97  1177.347
  98  1260.979
  99  1194.798
 100  678.716
 101  744.3914
 102  1599.225
 103  2056.709
 104  2230.195
 105  2241.856
 106  2204.51
 107  1460.101
 108  954.087
 109  727.5237
 110  969.177
 111  1153.489
 112  1531.262
 113  1731.103
 114  1401.289
 115  1083.471
 116  966.7306
 117  1066.4
 118  919.4767
 119  1098.036
 120  1378.666
 121  1594.438
 122  1508.61
 123  1528.006
 124  1613.838
 125  950.0515
 126  908.7073
 127  1020.347
 128  1008.623
 129  967.9145
 130  981.0408
 131  1280.612
 132  888.9949
 133  408.3022
 134  522.0103
 135  1103.05
 136  1675.544
 137  1664.725
 138  1706.735
 139  1319.299
 140  1202.329
 141  1159.489
 142  1024.553
 143  958.0033
 144  1385.988
 145  1216.654
 146  1477.832
 147  1306.574
 148  1285.946
 149  1197.095
 150  732.1717
 151  836.0794
 152  1532.019
 153  1716.044
 154  1773.635
 155  1799.33
 156  1808.233
 157  1374.622
 158  1296.664
 159  879.2523
 160  1019.074
 161  1468.194
 162  1343.291
 163  1096.38
 164  1247.993
 165  942.0496
 166  151.2453
 167  569.2906
 168  1452.678
 169  1369.858
 170  1525.206
 171  1278.815
 172  1647.348
 173  1401.239
 174  1020.841
 175  587.2764
 176  636.1949
 177  1083.277
 178  1270.221
 179  1318.057
 180  1300.823
 181  1451.219
 182  1099.022
 183  531.5203
 184  605.2924
 185  866.7238
 186  1350.929
 187  1592.149
 188  1823.442
 189  1768.085
 190  1047.241
 191  921.8628
 192  1124.022
 193  1256.344
 194  1095.863
 195  750.4071
 196  1072.737
 197  1171.01
 198  951.7204
 199  586.4061
 200  621.9065
 201  1243.26
 202  1913.048
 203  1888.862
 204  1553.414
 205  1553.835
 206  1504.838
 207  1251.019
 208  759.7818
 209  1030.76
 210  1145.065
 211  704.8095
 212  472.8406
 213  1055.4
 214  1400.274
 215  1031.057
 216  483.2965
 217  439.4681
 218  597.1002
 219  1156.919
 220  1734.496
 221  1584.404
 222  1551.806
 223  1452.637
 224  1006.279
 225  1427.773
 226  1463.818
 227  1264.455
 228  1111.829
 229  1388.061
 230  1483.187
 231  1247.667
 232  1048.544
 233  351.6074
 234  1129.265
 235  1901.526
 236  1933.751
 237  1981.948
 238  1767.847
 239  1563.26
 240  1431.369
 241  838.9825
 242  866.6881
 243  1016.659
 244  1350.261
 245  1407.786
 246  1580.406
 247  1479.189
 248  731.8066
 249  403.7196
 250  746.9324
 251  1490.249
 252  1581.154
 253  1986.06
 254  2007.062
 255  1844.107
 256  799.8542
 257  791.9209
 258  564.6094
 259  876.9559
 260  1355.804
 261  1467.571
 262  1023.737
 263  952.1002
 264  1180.847
 265  782.3602
 266  684.3036
 267  1199.022
 268  1612.257
 269  1869.772
 270  1663.006
 271  1908.406
 272  1955.116
 273  1408.267
 274  822.9966
 275  889.6922
 276  888.0472
 277  553.4294
 278  1111.633
 279  1738.339
 280  1641.629
 281  1223.178
 282  725.6323
 283  1070.591
 284  1212.775
 285  1109.059
 286  1354.613
 287  1704.333
 288  2041.97
 289  1765.229
 290  1304.999
 291  849.1751
 292  822.7316
 293  1344.881
 294  1138.083
 295  1141.09
 296  1331.612
 297  1426.817
 298  872.8167
 299  961.6788
 300  1101.145
 301  1789.687
 302  1686.126
 303  1517.416
 304  1431.661
 305  1700.169
 306  1703.231
 307  1724.429
 308  2423.664
 309  2605.749
 310  2470.34
 311  2143.986
 312  2014.431
 313  1557.226
 314  862.4224
 315  648.7487
 316  1112.237
 317  1366.969
 318  1681.689
 319  1537.448
 320  1366.296
 321  1551.533
 322  1695.508
 323  1359.475
 324  1385.907
 325  1274.23
 326  1373.301
 327  1782.318
 328  1634.569
 329  1747.435
 330  1726.036
 331  1197.786
 332  1100.734
 333  1470.056
 334  1708.706
 335  1633.176
 336  1517.35
 337  1497.889
 338  1311.559
 339  1355.75
 340  891.4603
 341  533.392
 342  696.1316
 343  1095.478
 344  1357.14
 345  1475.011
 346  1280.634
 347  1008.313
 348  386.7761
 349  714.8896
 350  1122.257
 351  1456.261
 352  1572.316
 353  1960.614
 354  1864.687
 355  1482.344
 356  903.4858
 357  275.5493
 358  570.853
 359  918.0233
 360  1351.293
 361  957.4072
 362  1186.757
 363  1234.951
 364  1072.591
 365  588.0208
 366  792.481
 367  1332.529
 368  1826.561
 369  1882.237
 370  2089.201
 371  1683.669
 372  919.5384
 373  842.6127
 374  1165.855
 375  1136.266
 376  997.1603
 377  996.5813
 378  1227.13
 379  1214.798
 380  1209.956
 381  928.6923
 382  802.9147
 383  1178.889
 384  1511.573
 385  1626.438
 386  1649.996
 387  1650.857
 388  1725.746
 389  1185.382
 390  850.9733
 391  543.9027
 392  1122.369
 393  1052.831
 394  1354.529
 395  1614.693
 396  1808.134
 397  1084.625
 398  341.2591
 399  663.9023
 400  1290.848
 401  1588.553
 402  1819.694
 403  1995.64
 404  2031.429
 405  1135.774
 406  631.1623
 407  700.6641
 408  1186.635
 409  1362.585
 410  1200.396
 411  1396.774
 412  1275.025
 413  1175.881
 414  720.8888
 415  983.8861
 416  1900.201
 417  1565.351
 418  1427.638
 419  1573.068
 420  1444.235
 421  1194.898
 422  981.8323
 423  657.9115
 424  573.8061
 425  1106.242
 426  1103.04
 427  1262.124
 428  1422.592
 429  1342.108
 430  419.8858
 431  -63.07994
 432  816.4693
 433  1483.656
 434  1908.825
 435  1901.386
 436  1918.232
 437  1892.27
 438  1538.339
 439  835.7462
 440  1009.953
 441  1004.605
 442  1602.529
 443  1630.675
 444  1846.26
 445  1758.939
 446  1075.057
 447  757.8475
 448  1130.924
 449  1421.879
 450  1822.897
 451  2037.808
 452  2072.643
 453  1575.88
 454  1841.302
 455  1388.413
 456  892.8334
 457  1015.869
 458  1278.183
 459  1197.898
 460  1322.845
 461  1572.544
 462  1435.171
 463  980.8092
 464  582.7133
 465  1447.792
 466  1348.84
 467  1681.067
 468  2050.053
 469  1909.705
 470  1853.524
 471  1257.524
 472  891.3732
 473  527.1409
 474  745.4485
 475  1045.821
 476  1284.024
 477  1366.867
 478  1792.291
 479  1537.423
 480  1042.394
 481  775.8193
 482  1129.208
 483  1349.554
 484  1541.977
 485  1461.554
 486  1553.042
 487  1679.2
 488  1567.691
 489  1123.449
 490  1058.47
 491  898.1695
 492  844.7609
 493  1082.237
 494  1474.667
 495  1330.614
 496  1113.846
 497  964.8035
 498  1509.232
 499  1666.636
 500  1749.084
 501  1573.278
 502  1463.49
 503  1567.39
 504  1489.605
 505  854.7385
 506  590.8802
 507  723.5085
 508  1047.868
 509  1296.823
 510  1180.766
 511  1341.174
