# Input file       =  1200341954.115353_cleaned.dat
# Candidate        =  PSR_0332+5434
# Telescope        =  AR
# Epoch_topo       =  58136.846911057328
# Epoch_bary       =  N/A
# T_sample         =  0.002
# Data Folded      =  7340032
# Data Avg         =  0.620612864355537
# Data StdDev      =  6.4784770668993  
# Profile Bins     =  512
# Profile Avg      =  8896.50545979799 
# Profile StdDev   =  775.687730317099 
# Reduced chi-sqr  =  0.813
# Prob(Noise)      <  0.999   (~0.0 sigma)
# P_topo (ms)      =  714.569433239074  +/- 2.19e-05
# P'_topo (s/s)    =  -0                +/- 1.16e-11
# P''_topo (s/s^2) =  0                 +/- 5.11e-15
# P_bary (ms)      =  N/A
# P'_bary (s/s)    =  N/A
# P''_bary (s/s^2) =  N/A
# P_orb (s)        =  N/A
# asin(i)/c (s)    =  N/A
# eccentricity     =  N/A
# w (rad)          =  N/A
# T_peri           =  N/A
######################################################
   0  8259.087
   1  8701.546
   2  9280.448
   3  8974.634
   4  8183.366
   5  8320.696
   6  9230.531
   7  9178.059
   8  9129.825
   9  9159.176
  10  8748.593
  11  9628.409
  12  9178.697
  13  9227.352
  14  9037.647
  15  9174.68
  16  8802.081
  17  9081.897
  18  8785.602
  19  8865.501
  20  8389.489
  21  9096.086
  22  9429.505
  23  8429.029
  24  7975.768
  25  8987.273
  26  9975.101
  27  9493.153
  28  8716.646
  29  8709.685
  30  8868.522
  31  9019.932
  32  8978.573
  33  8715.323
  34  8149.456
  35  8795.025
  36  9296.574
  37  9278.656
  38  8677.929
  39  8290.774
  40  9092.154
  41  8858.744
  42  8680.173
  43  8647.73
  44  9023.414
  45  8567.26
  46  8308.042
  47  8354.628
  48  8668.317
  49  8751.789
  50  9126.121
  51  8489.096
  52  8238.08
  53  8402.813
  54  9593.771
  55  9503.812
  56  9037.751
  57  8904.466
  58  8919.553
  59  8805.031
  60  9324.225
  61  9580.131
  62  8918.83
  63  8504.596
  64  9363.599
  65  9477.755
  66  9337.146
  67  9051.056
  68  9213.843
  69  9322.204
  70  9054.548
  71  8287.182
  72  8577.949
  73  9552.988
  74  10144.94
  75  9455.247
  76  9180.344
  77  8733.43
  78  9384.794
  79  9549.329
  80  9156.849
  81  8676.543
  82  8924.458
  83  9994.074
  84  9612.646
  85  8693.426
  86  8474.96
  87  9210.342
  88  9595.751
  89  9695.641
  90  9568.902
  91  9964.135
  92  10840.48
  93  11431.82
  94  10920.16
  95  10255.28
  96  9480.637
  97  9413.459
  98  8966.996
  99  8613.729
 100  7709.981
 101  8345.223
 102  9328.108
 103  10140.32
 104  9545.913
 105  8193.947
 106  8649.637
 107  9701.934
 108  9233.989
 109  8514.143
 110  8416.962
 111  8777.652
 112  8993.881
 113  9105.793
 114  9213.057
 115  8584.782
 116  9216.771
 117  9922.612
 118  9068.524
 119  8949.022
 120  9131.826
 121  9774.6
 122  9899.127
 123  9624.048
 124  9402.774
 125  9408.499
 126  10490.32
 127  9641.815
 128  8653.891
 129  8470.387
 130  9851.575
 131  10081.48
 132  9118.343
 133  8371.413
 134  8709.917
 135  8683.327
 136  8815.808
 137  8894.136
 138  8444.085
 139  8230.191
 140  9236.199
 141  9384.273
 142  9372.11
 143  8529.378
 144  8937.032
 145  9781.156
 146  9682.139
 147  8555.424
 148  8113.318
 149  8233.579
 150  9733.644
 151  9783.392
 152  9270.055
 153  8323.921
 154  9203.135
 155  10054.01
 156  8833.893
 157  7924.666
 158  8126.581
 159  8409.983
 160  8925.666
 161  8883.278
 162  8794.091
 163  9116.596
 164  9642.484
 165  8991.428
 166  8485.672
 167  8366.025
 168  8912.045
 169  9017.549
 170  9349.521
 171  9141.506
 172  8483.611
 173  8702.425
 174  9192.783
 175  9000.332
 176  8650.989
 177  8731.711
 178  8502.042
 179  8830.897
 180  8765.606
 181  9005.689
 182  8788.307
 183  9036.589
 184  9375.227
 185  9134.04
 186  8352.068
 187  8996.03
 188  9235.438
 189  9654.563
 190  9029.575
 191  8487.607
 192  9021.607
 193  9381.6
 194  9310.734
 195  8528.714
 196  8398.501
 197  8939.81
 198  8784.711
 199  8713.959
 200  8344.751
 201  8562.39
 202  8750.348
 203  8973.612
 204  8767.837
 205  8525.775
 206  8259.931
 207  8698.62
 208  9110.016
 209  8556.404
 210  8263.568
 211  7729.919
 212  9015.706
 213  8885.356
 214  9165.735
 215  9073.393
 216  8539.609
 217  9103.688
 218  9398.256
 219  8594.539
 220  8438.472
 221  8657.604
 222  9738.223
 223  8980.899
 224  8729.031
 225  8235.241
 226  8498.025
 227  8176.265
 228  8583.283
 229  8182.801
 230  8472.122
 231  9250.609
 232  9382.417
 233  8491.746
 234  8420.723
 235  9183.403
 236  9950.631
 237  9380.419
 238  8215.528
 239  7872.514
 240  8305.84
 241  8928.981
 242  8739.224
 243  8646.312
 244  8467.442
 245  8648.89
 246  9135.72
 247  8461.105
 248  7573.322
 249  8020.691
 250  9317.098
 251  9784.41
 252  9506.479
 253  8731.758
 254  8195.126
 255  8424.23
 256  8658.812
 257  9007.054
 258  8593.99
 259  9039.157
 260  9255.563
 261  9009.159
 262  8143.017
 263  8461.881
 264  8812.807
 265  9352.19
 266  8932.844
 267  8981.183
 268  8752.312
 269  9158.145
 270  9713.833
 271  9427.062
 272  8428.041
 273  8594.026
 274  9258.162
 275  9576.352
 276  9024.388
 277  8756.633
 278  8509.669
 279  9193.038
 280  9052.08
 281  9330.672
 282  9221.336
 283  9165.506
 284  9104.738
 285  9562.121
 286  9046.063
 287  8708.452
 288  8905.67
 289  9287.536
 290  9215.415
 291  8683.483
 292  8519.212
 293  8846.933
 294  8942.194
 295  9091.449
 296  8788.813
 297  8459.229
 298  8995.24
 299  8947.92
 300  9187.252
 301  8549.352
 302  8299.605
 303  8711.067
 304  8829.895
 305  8357.08
 306  8269.103
 307  8260.976
 308  9244.468
 309  9185.112
 310  8695.921
 311  8166.357
 312  8638.382
 313  8334.332
 314  8947.886
 315  8581.346
 316  8666.258
 317  9040.397
 318  9448.084
 319  8841.954
 320  8415.43
 321  8038.187
 322  8713.912
 323  9236.269
 324  9187.252
 325  9062.961
 326  9221.775
 327  8773.057
 328  8828.821
 329  7948.138
 330  8085.655
 331  8418.278
 332  8824.401
 333  8796.941
 334  8422.304
 335  7859.624
 336  8362.07
 337  8844.37
 338  8353.982
 339  8488.36
 340  8578.065
 341  9358.225
 342  9068.909
 343  8481.013
 344  7870.477
 345  8169.983
 346  8649.472
 347  8586.386
 348  8562.307
 349  8436.757
 350  8486.207
 351  9307.949
 352  9155.917
 353  9329.678
 354  8691.258
 355  8675.254
 356  8536.205
 357  8546.705
 358  7995.739
 359  8582.897
 360  9454.272
 361  9532.755
 362  8593.793
 363  8440.556
 364  8214.586
 365  8547.688
 366  8801.017
 367  8927.37
 368  8441.648
 369  8729.888
 370  9284.358
 371  8618.54
 372  7886.492
 373  7264.086
 374  8351.901
 375  9537.787
 376  9150.023
 377  8703.599
 378  8697.726
 379  9062.436
 380  9549.562
 381  9222.821
 382  8783.803
 383  9136.759
 384  9000.009
 385  9032.624
 386  9085.039
 387  8493.664
 388  8208.053
 389  8992.337
 390  9307.427
 391  8283.394
 392  8263.923
 393  8436.265
 394  8827.591
 395  8998.543
 396  9155.825
 397  8525.427
 398  8945.089
 399  9429.238
 400  9546.895
 401  8663.866
 402  8848.285
 403  8945.444
 404  9300.576
 405  8957.197
 406  8595.818
 407  8358.165
 408  9516.771
 409  9963.967
 410  9087.135
 411  8433.295
 412  8794.124
 413  9573.844
 414  9313.346
 415  8684.156
 416  8998.298
 417  9441.452
 418  8981.312
 419  8934.745
 420  8843.97
 421  9078.369
 422  9470.782
 423  9862.588
 424  9416.282
 425  8528.062
 426  7939.275
 427  8412.845
 428  8678.066
 429  8903.28
 430  8225.044
 431  8247.892
 432  8815.277
 433  9022.861
 434  8856.658
 435  8823.588
 436  8824.377
 437  9311.986
 438  9174.466
 439  8897.138
 440  8365.396
 441  9144.085
 442  8906.626
 443  9056.167
 444  9093.174
 445  8906.041
 446  8633.733
 447  9296.597
 448  9504.263
 449  8863.696
 450  8598.99
 451  9525.712
 452  9640.887
 453  9039.052
 454  8464.981
 455  8453.106
 456  8515.219
 457  8515.223
 458  8690.271
 459  8248.768
 460  8350.058
 461  8752.711
 462  8117.104
 463  8327.646
 464  8787.006
 465  9088.433
 466  9516.851
 467  9120.732
 468  8826.42
 469  8690.46
 470  8875.563
 471  8964.648
 472  9216.518
 473  8244.544
 474  8164.489
 475  9068.956
 476  9926.66
 477  8923.137
 478  8338.725
 479  8854.188
 480  9404.179
 481  9166.168
 482  8709.396
 483  7851.752
 484  8520.819
 485  9374.627
 486  9746.427
 487  8848.647
 488  8667.924
 489  8849.186
 490  8768.558
 491  8761.149
 492  8130.914
 493  8800.816
 494  9244.134
 495  9792.959
 496  8913.195
 497  8369.691
 498  8485.549
 499  9011.232
 500  9299.017
 501  8715.286
 502  8229.493
 503  8043.007
 504  9226.298
 505  9614.574
 506  8894.298
 507  8271.191
 508  8404.163
 509  8621.833
 510  8570.349
 511  8976.049
