# Input file       =  1200600452.101729_cleaned.dat
# Candidate        =  PSR_0332+5434
# Telescope        =  AR
# Epoch_topo       =  58139.838785899643
# Epoch_bary       =  N/A
# T_sample         =  0.002
# Data Folded      =  7340032
# Data Avg         =  1.00356009849202 
# Data StdDev      =  9.14243285381729 
# Profile Bins     =  512
# Profile Avg      =  14386.8864398439 
# Profile StdDev   =  1094.65124545825 
# Reduced chi-sqr  =  0.538
# Prob(Noise)      <  1   (~0.0 sigma)
# P_topo (ms)      =  714.571232170835  +/- 0.000127
# P'_topo (s/s)    =  -0                +/- 6.7e-11
# P''_topo (s/s^2) =  0                 +/- 2.96e-14
# P_bary (ms)      =  N/A
# P'_bary (s/s)    =  N/A
# P''_bary (s/s^2) =  N/A
# P_orb (s)        =  N/A
# asin(i)/c (s)    =  N/A
# eccentricity     =  N/A
# w (rad)          =  N/A
# T_peri           =  N/A
######################################################
   0  13702.77
   1  13649.4
   2  14579.54
   3  14619.09
   4  13770.35
   5  14202.59
   6  13833.64
   7  13285.87
   8  13449.49
   9  13777.3
  10  13507.72
  11  13237.78
  12  14319
  13  14602.71
  14  13968.43
  15  13572.77
  16  13039.56
  17  14023.72
  18  14108.8
  19  13879.49
  20  13631.47
  21  14414.82
  22  14355.8
  23  13867.46
  24  14430.96
  25  14472.19
  26  13579.44
  27  14634.62
  28  15064.08
  29  14358.7
  30  14593.41
  31  14811.11
  32  14231.75
  33  13773.32
  34  14411.79
  35  14232.32
  36  13901.44
  37  14518.73
  38  14613.14
  39  14498.51
  40  13597.79
  41  13481.72
  42  14078.21
  43  13469.07
  44  13503.4
  45  14314.71
  46  14215.39
  47  13927.45
  48  14349.54
  49  15174.86
  50  14766.32
  51  14212.31
  52  14522.99
  53  14194.55
  54  14559.18
  55  14670.27
  56  14300.62
  57  15208.73
  58  14965.62
  59  15075.28
  60  14648.15
  61  14049.29
  62  14260.23
  63  14726.47
  64  15214.75
  65  14530.79
  66  14475.57
  67  14748.46
  68  14622.56
  69  14095.76
  70  14190.97
  71  14481.92
  72  14182.43
  73  14521.74
  74  14993.55
  75  14635.13
  76  14394.8
  77  14387.39
  78  14172.54
  79  13880.41
  80  14107.66
  81  14059.88
  82  13222.61
  83  13357.94
  84  13929.56
  85  14810.04
  86  14376.55
  87  14314.99
  88  13619.77
  89  13649.36
  90  13306.64
  91  13470.33
  92  14057.25
  93  14554.31
  94  15169.96
  95  15259.13
  96  15426.59
  97  14462.18
  98  14778.6
  99  14828.75
 100  14822.36
 101  14377.65
 102  14397.79
 103  14014.5
 104  14093.86
 105  14643.24
 106  15082.69
 107  14899.36
 108  14532.71
 109  14437.37
 110  14074.34
 111  14063.96
 112  13822.04
 113  13973.41
 114  14621.66
 115  14835.85
 116  14983.45
 117  14905.39
 118  14841.78
 119  14653.5
 120  14613.21
 121  14171.4
 122  14652.9
 123  14754.74
 124  14322.75
 125  14405.65
 126  13955.8
 127  14197.17
 128  14495.57
 129  14400.35
 130  14488.85
 131  14684.2
 132  14285.86
 133  14415.38
 134  15034.61
 135  14940.7
 136  14764.74
 137  15091.37
 138  14701.4
 139  14787.29
 140  15361.78
 141  15971.85
 142  15465.54
 143  14350.5
 144  14622.24
 145  15477.78
 146  15655.57
 147  15646.33
 148  14967.52
 149  15335.16
 150  15137.97
 151  14370.49
 152  14865.98
 153  15532.11
 154  15581.71
 155  15007
 156  15288.3
 157  14213.57
 158  13669.46
 159  14854.3
 160  14880.47
 161  14664.78
 162  15077.45
 163  15147.31
 164  14598.65
 165  14192.98
 166  14308.1
 167  13966.03
 168  13659.56
 169  13751.69
 170  14360.96
 171  14721.46
 172  14407.65
 173  14920.5
 174  15339.27
 175  14101.82
 176  13496.03
 177  14180.6
 178  14639.71
 179  14331.56
 180  14725.29
 181  15112.03
 182  14510.15
 183  13866.8
 184  14340
 185  14579.52
 186  14744.63
 187  14806.04
 188  13958.88
 189  13472.76
 190  13528.71
 191  13966.15
 192  14732.75
 193  14616.62
 194  14750.66
 195  15271.03
 196  14113.87
 197  14219.7
 198  14851.81
 199  15478.61
 200  15006.15
 201  14627.12
 202  14949.12
 203  15301.34
 204  14502.9
 205  14069.83
 206  14038.86
 207  14758.52
 208  14930.31
 209  14962.05
 210  14088.57
 211  13717.67
 212  14254.66
 213  14753.71
 214  15374.08
 215  14997.59
 216  14489.56
 217  14444.6
 218  14092.94
 219  13821.6
 220  13752.7
 221  15205.92
 222  15823.43
 223  15039.84
 224  14090.35
 225  13743.73
 226  14071.58
 227  14777.91
 228  15465.65
 229  14753.08
 230  13885.2
 231  14005.76
 232  13277.56
 233  13599.43
 234  13999.71
 235  14358.49
 236  14484.32
 237  14534.58
 238  14412.86
 239  14191.63
 240  13931.61
 241  14240.06
 242  15664.35
 243  15455.41
 244  14493.91
 245  13257.3
 246  13989.68
 247  14539.93
 248  14961.75
 249  14989.99
 250  14464.15
 251  14551.57
 252  13857.47
 253  14466.41
 254  13716.34
 255  13456.42
 256  14675.54
 257  14930.68
 258  14780.84
 259  14278.8
 260  14212.97
 261  15339.67
 262  15275.85
 263  15118.23
 264  14270.78
 265  14034.62
 266  14029.62
 267  13573.19
 268  14298.59
 269  15023.65
 270  15171.4
 271  15086.46
 272  14576.05
 273  13463.54
 274  13950.99
 275  13587.31
 276  13681.89
 277  13681.65
 278  13763.32
 279  14047.11
 280  13733.85
 281  13722.09
 282  14512.45
 283  14823.32
 284  14453.31
 285  14481.86
 286  14179.41
 287  13694.11
 288  13674.37
 289  13993.63
 290  13891.47
 291  13346.19
 292  13745.25
 293  13998.31
 294  13076.86
 295  13813.34
 296  15325.56
 297  15631.26
 298  14888.62
 299  14598.52
 300  14180.03
 301  14394.9
 302  14192.02
 303  14777.94
 304  14509.12
 305  14769.56
 306  15346.21
 307  15237.68
 308  15461.79
 309  15898.38
 310  16015.36
 311  15502.92
 312  14097.12
 313  13603.65
 314  13623.23
 315  13080.94
 316  13557.55
 317  13780.99
 318  14214.79
 319  14962.73
 320  14508.55
 321  13806.89
 322  13798.26
 323  13939.73
 324  13958.63
 325  14052.28
 326  13717.94
 327  13448.96
 328  13822.91
 329  13176.35
 330  14100.64
 331  14927.66
 332  14756.68
 333  15400.14
 334  14960.5
 335  14910.91
 336  14881.42
 337  14571.06
 338  13967.37
 339  15086.64
 340  14580.93
 341  14786.37
 342  15557.41
 343  15668.84
 344  15086.48
 345  14994.33
 346  15295.78
 347  14997.54
 348  14791.12
 349  14065.35
 350  14035.08
 351  13539.34
 352  14104.91
 353  14249.46
 354  13930.04
 355  13786.01
 356  13425.76
 357  13692.7
 358  13566.88
 359  14329.85
 360  14285.02
 361  14152.83
 362  14075.11
 363  14349.57
 364  14843.86
 365  14639.47
 366  14828.39
 367  13912.69
 368  13559.38
 369  13844.86
 370  14231.76
 371  14374.69
 372  14398.73
 373  14644.24
 374  14814.48
 375  14408.05
 376  14553.27
 377  14740.95
 378  14465.36
 379  13231.64
 380  13355.78
 381  14415.51
 382  14602.86
 383  14666.21
 384  15147.74
 385  14337.32
 386  14193.32
 387  14341.19
 388  13868.75
 389  13607.28
 390  13590.71
 391  14386.09
 392  14823.59
 393  14493.15
 394  13881.17
 395  13993.58
 396  13848.98
 397  13601.77
 398  14401.07
 399  14766.58
 400  14296.98
 401  13737.67
 402  15201.31
 403  15122.39
 404  14744.79
 405  14237.97
 406  14537.67
 407  14861.69
 408  14949.29
 409  14972.15
 410  15163.02
 411  14628.1
 412  14661.58
 413  15387.12
 414  14577.28
 415  14318.35
 416  14315.14
 417  14050.56
 418  14137.68
 419  14263.52
 420  14929.2
 421  15065.88
 422  14206.54
 423  13474.24
 424  13177.36
 425  13159.79
 426  13859.85
 427  13822.37
 428  15342.93
 429  15432.11
 430  14371.34
 431  14030.69
 432  14106.62
 433  13475.69
 434  13651.88
 435  13901.28
 436  14154.8
 437  12900.18
 438  13935.23
 439  13979.92
 440  13788.91
 441  14809.41
 442  15031.84
 443  15069.54
 444  14834.46
 445  13789.97
 446  13865.1
 447  14021.4
 448  13876.94
 449  14857.49
 450  15051.23
 451  14617.03
 452  14287.64
 453  14452.56
 454  14722.83
 455  13974.04
 456  13838.21
 457  15660.74
 458  15572.83
 459  14612.53
 460  14918.92
 461  14710.66
 462  14689.93
 463  15298.35
 464  14834.75
 465  14807.7
 466  14449.27
 467  14250.79
 468  14208.65
 469  14109.34
 470  13888.46
 471  14582.07
 472  15091.03
 473  14398.51
 474  14627.22
 475  14381.57
 476  14839.8
 477  14423.96
 478  14502.02
 479  14436.52
 480  14290.22
 481  14610.81
 482  14467.64
 483  14149.22
 484  13535.54
 485  14182.08
 486  14868.46
 487  15188.4
 488  15183.66
 489  15085.06
 490  14369.71
 491  14034.3
 492  14335.39
 493  14213.05
 494  14329.49
 495  14316.8
 496  13877.23
 497  13922.21
 498  13758.92
 499  13547.32
 500  13839.97
 501  14325.32
 502  14835.64
 503  14308.56
 504  13621.09
 505  13393.35
 506  13604.32
 507  14221.16
 508  14024.86
 509  13473.74
 510  13254.12
 511  13205.61
