# Input file       =  1200859475.122465_cleaned.dat
# Candidate        =  PSR_0332+5434
# Telescope        =  AR
# Epoch_topo       =  58142.836737528531
# Epoch_bary       =  N/A
# T_sample         =  0.002
# Data Folded      =  7340032
# Data Avg         =  0.0641392741433394
# Data StdDev      =  3.12562125807193 
# Profile Bins     =  512
# Profile Avg      =  919.209863051772 
# Profile StdDev   =  374.24012379272  
# Reduced chi-sqr  =  0.787
# Prob(Noise)      <  1   (~0.0 sigma)
# P_topo (ms)      =  714.572900113769  +/- 0.000218
# P'_topo (s/s)    =  -0                +/- 1.15e-10
# P''_topo (s/s^2) =  0                 +/- 5.07e-14
# P_bary (ms)      =  N/A
# P'_bary (s/s)    =  N/A
# P''_bary (s/s^2) =  N/A
# P_orb (s)        =  N/A
# asin(i)/c (s)    =  N/A
# eccentricity     =  N/A
# w (rad)          =  N/A
# T_peri           =  N/A
######################################################
   0  848.0594
   1  1078.621
   2  1317.978
   3  983.2295
   4  937.6103
   5  1069.927
   6  1057.424
   7  613.036
   8  650.4075
   9  765.8729
  10  852.1372
  11  1013.987
  12  1066.906
  13  990.8745
  14  990.4939
  15  603.5573
  16  852.733
  17  756.6642
  18  1008.025
  19  1171.132
  20  1121.249
  21  1392.672
  22  1152.651
  23  891.1114
  24  883.1035
  25  1213.077
  26  1325.071
  27  893.9633
  28  767.8276
  29  981.4249
  30  923.0012
  31  933.3333
  32  877.931
  33  940.2404
  34  968.4514
  35  929.9452
  36  881.7438
  37  536.6942
  38  604.3947
  39  965.3705
  40  921.1254
  41  1079.172
  42  1159.37
  43  939.8782
  44  866.2306
  45  784.8677
  46  830.1703
  47  696.0435
  48  856.8752
  49  920.2907
  50  749.4181
  51  750.3309
  52  404.3292
  53  578.9044
  54  720.3694
  55  830.8746
  56  677.9394
  57  739.3275
  58  1016.398
  59  1099.558
  60  994.5068
  61  720.776
  62  768.0704
  63  758.8816
  64  510.4882
  65  449.9707
  66  398.514
  67  818.5729
  68  976.0145
  69  1025.052
  70  716.2139
  71  937.0546
  72  1341.217
  73  794.3623
  74  701.3946
  75  899.3514
  76  790.9915
  77  847.1519
  78  1046.769
  79  1055.073
  80  987.7039
  81  1065.2
  82  1094.203
  83  880.9056
  84  868.4941
  85  758.0626
  86  985.2378
  87  817.5438
  88  1151.754
  89  1116.599
  90  1035.206
  91  1225.133
  92  1244.297
  93  1474.05
  94  1250.214
  95  1053.412
  96  841.0759
  97  1153.798
  98  831.2491
  99  897.9287
 100  868.0322
 101  1101.343
 102  1349.575
 103  861.8622
 104  892.3848
 105  1475.81
 106  1805.323
 107  2256.246
 108  2085.781
 109  1898.808
 110  1957.351
 111  1580.903
 112  1081.491
 113  742.2108
 114  640.9333
 115  856.5851
 116  801.4021
 117  1313.022
 118  1198.714
 119  1147.107
 120  1195.548
 121  871.0809
 122  707.4599
 123  1056.233
 124  1114.105
 125  932.2493
 126  655.3492
 127  1113.93
 128  1331.326
 129  1225.78
 130  766.6456
 131  632.0287
 132  801.8531
 133  843.2783
 134  1183.281
 135  1032.049
 136  1204.625
 137  1380.496
 138  1585.619
 139  1454.944
 140  1049.721
 141  638.8972
 142  517.9994
 143  1042.629
 144  1142.415
 145  1039.344
 146  944.4429
 147  940.961
 148  1093.816
 149  1074.711
 150  1101.875
 151  838.978
 152  824.0358
 153  922.2433
 154  1184.771
 155  892.8879
 156  1046.537
 157  1259.85
 158  970.1319
 159  758.6157
 160  815.46
 161  984.1442
 162  763.1752
 163  893.4965
 164  1130.586
 165  1151.326
 166  1047.025
 167  1179.778
 168  1402.994
 169  997.0859
 170  780.3149
 171  769.5886
 172  961.2871
 173  898.9279
 174  792.4984
 175  693.7406
 176  993.4452
 177  955.7624
 178  1169.167
 179  911.7302
 180  529.5714
 181  870.5521
 182  864.2839
 183  940.2664
 184  742.2169
 185  989.4706
 186  923.5605
 187  634.8572
 188  767.7542
 189  852.6931
 190  1026.317
 191  1243.98
 192  1367.895
 193  1003.303
 194  869.7095
 195  814.2522
 196  865.4046
 197  757.5005
 198  649.0611
 199  1081.404
 200  1280.06
 201  1430.806
 202  1507.507
 203  1262.845
 204  1020.604
 205  878.9106
 206  800.2104
 207  780.9939
 208  764.063
 209  1054.846
 210  1203.708
 211  1127.602
 212  643.1952
 213  466.8068
 214  562.5531
 215  716.2151
 216  814.5163
 217  951.755
 218  977.7894
 219  741.7225
 220  354.4333
 221  901.1579
 222  867.8828
 223  793.6719
 224  609.3779
 225  587.16
 226  637.127
 227  624.7703
 228  763.7387
 229  702.351
 230  782.793
 231  567.6
 232  762.4907
 233  907.386
 234  844.1935
 235  1084.779
 236  824.4633
 237  802.4666
 238  549.5095
 239  600.9678
 240  806.4115
 241  946.2728
 242  1201.807
 243  1134.786
 244  876.6995
 245  733.8115
 246  840.795
 247  840.4501
 248  830.1089
 249  782.3905
 250  702.5336
 251  621.9449
 252  832.5784
 253  802.4096
 254  977.3026
 255  977.2143
 256  882.7816
 257  855.0688
 258  749.1097
 259  925.7474
 260  927.8947
 261  936.0006
 262  833.4921
 263  763.9886
 264  743.3259
 265  900.852
 266  547.9241
 267  571.6584
 268  706.593
 269  943.9067
 270  1114.788
 271  879.498
 272  716.0736
 273  807.0151
 274  972.8826
 275  642.6297
 276  431.0321
 277  679.1616
 278  629.6774
 279  576.3654
 280  1031.669
 281  1112.399
 282  660.678
 283  666.8022
 284  1088.244
 285  1163.403
 286  713.4
 287  846.9807
 288  711.8591
 289  574.4225
 290  557.8282
 291  800.3726
 292  769.2822
 293  651.2393
 294  1028.424
 295  1064.913
 296  812.0494
 297  942.9857
 298  921.5717
 299  726.5511
 300  418.9043
 301  424.6055
 302  1038.273
 303  1001.715
 304  757.4398
 305  1083.566
 306  1037.053
 307  1142.599
 308  705.8828
 309  734.543
 310  986.6755
 311  901.474
 312  853.0787
 313  740.1689
 314  936.8319
 315  1082.562
 316  857.9062
 317  853.4952
 318  890.8535
 319  878.1375
 320  705.9691
 321  775.1213
 322  930.8809
 323  866.5684
 324  912.2834
 325  1035.667
 326  1097.594
 327  955.8296
 328  820.4907
 329  1022.828
 330  848.689
 331  836.848
 332  906.2867
 333  796.7031
 334  692.4305
 335  583.9277
 336  723.9854
 337  918.1799
 338  870.5689
 339  980.3672
 340  750.5443
 341  711.0009
 342  874.1712
 343  583.7269
 344  894.5622
 345  1317.64
 346  1065.147
 347  1064.288
 348  749.0972
 349  632.9166
 350  877.669
 351  673.5543
 352  683.9081
 353  770.0707
 354  963.4547
 355  1034.566
 356  1008.428
 357  901.106
 358  805.8898
 359  975.3339
 360  867.1436
 361  855.1306
 362  979.2315
 363  1139.607
 364  985.2991
 365  979.6516
 366  992.2388
 367  867.7571
 368  964.9365
 369  1067.038
 370  1059.406
 371  1084.485
 372  989.5166
 373  1043.772
 374  872.0045
 375  900.193
 376  748.2119
 377  989.3258
 378  1096.719
 379  1090.072
 380  1006.978
 381  1187.093
 382  1065.13
 383  1010.732
 384  903.0143
 385  1050.327
 386  902.2283
 387  1107.742
 388  1061.134
 389  870.5754
 390  852.4428
 391  830.5853
 392  762.1387
 393  782.3182
 394  1094.481
 395  1134.47
 396  1030.354
 397  1000.244
 398  1176.542
 399  1462.336
 400  1026.109
 401  734.0458
 402  592.9457
 403  786.6389
 404  706.0012
 405  580.8207
 406  750.235
 407  1348.917
 408  1259.074
 409  1341.468
 410  1395.041
 411  1017.922
 412  576.7248
 413  710.0674
 414  602.176
 415  984.4402
 416  1002.147
 417  513.7228
 418  731.6462
 419  675.5747
 420  610.817
 421  833.3627
 422  919.4846
 423  810.4968
 424  704.1505
 425  1054.689
 426  1267.74
 427  707.9818
 428  749.0338
 429  502.9256
 430  735.5553
 431  968.2443
 432  1146.584
 433  863.8098
 434  575.7319
 435  983.2963
 436  1018.99
 437  1203.596
 438  994.9727
 439  912.2253
 440  679.5881
 441  291.5818
 442  414.8862
 443  486.0362
 444  617.7614
 445  688.0099
 446  686.4343
 447  842.483
 448  879.3165
 449  923.8879
 450  1051.704
 451  1193.737
 452  712.5826
 453  836.0186
 454  1132.646
 455  886.4139
 456  1078.782
 457  1447.975
 458  1385.865
 459  1091.426
 460  1025.441
 461  1283.018
 462  1330.263
 463  936.8539
 464  1063.452
 465  1280.222
 466  1119.845
 467  1056.993
 468  1101.77
 469  1316.774
 470  1007.413
 471  1107.31
 472  1108.238
 473  773.1819
 474  891.0995
 475  1032.248
 476  831.472
 477  599.3552
 478  562.1252
 479  646.723
 480  622.4378
 481  821.9349
 482  1074.046
 483  614.8913
 484  764.791
 485  905.8639
 486  897.4506
 487  988.1998
 488  755.0264
 489  972.223
 490  846.6017
 491  1021.274
 492  1020.192
 493  1018.104
 494  969.7206
 495  786.0402
 496  942.6406
 497  1268.7
 498  1040.032
 499  1124.369
 500  741.6874
 501  858.6871
 502  776.4472
 503  798.3275
 504  1159.91
 505  671.2768
 506  502.9746
 507  721.7065
 508  906.4225
 509  1171.104
 510  875.9627
 511  755.2002
