# Input file       =  1200945207.105126_cleaned.dat
# Candidate        =  PSR_0332+5434
# Telescope        =  AR
# Epoch_topo       =  58143.829005846368
# Epoch_bary       =  N/A
# T_sample         =  0.002
# Data Folded      =  7340032
# Data Avg         =  0.0749927298498473
# Data StdDev      =  3.40823402839118 
# Profile Bins     =  512
# Profile Avg      =  1074.99614644615 
# Profile StdDev   =  408.078208901894 
# Reduced chi-sqr  =  0.723
# Prob(Noise)      <  1   (~0.0 sigma)
# P_topo (ms)      =  714.573402986696  +/- 0.000535
# P'_topo (s/s)    =  -0                +/- 2.82e-10
# P''_topo (s/s^2) =  0                 +/- 1.25e-13
# P_bary (ms)      =  N/A
# P'_bary (s/s)    =  N/A
# P''_bary (s/s^2) =  N/A
# P_orb (s)        =  N/A
# asin(i)/c (s)    =  N/A
# eccentricity     =  N/A
# w (rad)          =  N/A
# T_peri           =  N/A
######################################################
   0  1121.181
   1  1203.421
   2  1057.061
   3  971.509
   4  1143.796
   5  1171.82
   6  1308.483
   7  1416.291
   8  1556.71
   9  1009.171
  10  804.2825
  11  929.9189
  12  1251.354
  13  1200.242
  14  945.6674
  15  1252.386
  16  1250.017
  17  1332.581
  18  1180.87
  19  1305.474
  20  1121.753
  21  1056.997
  22  895.3377
  23  866.3331
  24  1186.797
  25  1272.644
  26  1174.754
  27  1031.229
  28  1234.124
  29  1332.738
  30  994.4843
  31  1228.388
  32  898.8765
  33  989.5317
  34  1001.88
  35  899.4278
  36  818.4849
  37  876.7075
  38  1079.657
  39  826.0941
  40  726.6956
  41  854.3933
  42  1010.304
  43  610.683
  44  701.7808
  45  658.083
  46  861.7837
  47  896.6512
  48  818.6732
  49  923.6053
  50  749.9582
  51  567.8567
  52  641.3181
  53  1031.777
  54  1024.363
  55  1005.09
  56  889.2161
  57  793.1156
  58  756.7783
  59  787.1906
  60  1154.958
  61  794.2412
  62  884.7817
  63  981.9025
  64  1055.906
  65  1159.059
  66  877.6545
  67  685.0976
  68  925.3802
  69  780.035
  70  880.1929
  71  1080.876
  72  923.9135
  73  985.5624
  74  1003.643
  75  997.3569
  76  856.1629
  77  759.1174
  78  1111.593
  79  1231.55
  80  759.1862
  81  710.4542
  82  702.4677
  83  1087.42
  84  1087.08
  85  944.8931
  86  854.2571
  87  898.9857
  88  791.9448
  89  1160.1
  90  1320.556
  91  731.659
  92  1192.732
  93  933.3496
  94  1284.853
  95  1201.916
  96  1077.483
  97  1273.369
  98  841.1523
  99  854.7408
 100  896.3232
 101  1113.755
 102  1102.34
 103  908.3816
 104  1021.589
 105  990.5224
 106  1009.739
 107  902.1423
 108  974.7854
 109  1538.674
 110  1536.508
 111  1082.298
 112  805.1417
 113  792.4952
 114  934.7863
 115  978.3191
 116  1011.385
 117  1208.343
 118  878.2624
 119  911.465
 120  666.2147
 121  1056.389
 122  1345.779
 123  1111.55
 124  976.326
 125  814.1246
 126  975.7162
 127  1012.751
 128  1088.795
 129  1025.603
 130  569.2728
 131  667.2318
 132  713.7911
 133  964.4142
 134  1042.608
 135  1068.757
 136  819.222
 137  1085.503
 138  1158.895
 139  1101.541
 140  1078.297
 141  1118.927
 142  1319.856
 143  1157.522
 144  1174.369
 145  1248.708
 146  1223.937
 147  1161.569
 148  1253.72
 149  824.077
 150  856.7024
 151  752.0654
 152  900.6437
 153  832.014
 154  1007.812
 155  1076.193
 156  604.8384
 157  1124.709
 158  1240.491
 159  1204.921
 160  1264.518
 161  1343.19
 162  878.3222
 163  960.0613
 164  831.7991
 165  1019.018
 166  885.4915
 167  861.4506
 168  989.7509
 169  1263.037
 170  1145.628
 171  1171.557
 172  1377.515
 173  1442.513
 174  1204.796
 175  1165.815
 176  1241.441
 177  1376.016
 178  1418.427
 179  1533.338
 180  1340.918
 181  957.5252
 182  1187.236
 183  1529.999
 184  1235.217
 185  1412.662
 186  1576.167
 187  1218.156
 188  749.7087
 189  1124.57
 190  1239.706
 191  1019.653
 192  1184.361
 193  1406.143
 194  1367.433
 195  912.0121
 196  790.2354
 197  1128.825
 198  912.025
 199  1150.871
 200  1275.467
 201  929.537
 202  989.1185
 203  943.3829
 204  943.5657
 205  1172.108
 206  1041.835
 207  760.6329
 208  884.0799
 209  931.7943
 210  1059.005
 211  1043.635
 212  1265.197
 213  1414.636
 214  1212.801
 215  701.9678
 216  607.4003
 217  842.6463
 218  1356.688
 219  1405.17
 220  1051.692
 221  921.8272
 222  1222.903
 223  1402.28
 224  1211.598
 225  925.7111
 226  803.6511
 227  1176.692
 228  1480.687
 229  1349.764
 230  957.165
 231  684.7195
 232  929.4536
 233  807.4185
 234  999.0138
 235  837.8458
 236  1033.332
 237  1114.997
 238  1199.898
 239  1140.447
 240  1091.698
 241  937.0439
 242  1027.159
 243  1006.081
 244  1345.72
 245  1368.616
 246  1208.895
 247  1156.658
 248  933.8539
 249  913.5588
 250  991.2234
 251  1386.456
 252  1286.115
 253  937.3915
 254  722.0559
 255  1223.336
 256  850.7031
 257  842.379
 258  1157.628
 259  961.4016
 260  987.4308
 261  1199.995
 262  1094.654
 263  1045.548
 264  1248.341
 265  968.9962
 266  1032.868
 267  1426.131
 268  1401.156
 269  1075.133
 270  889.2833
 271  1168.432
 272  1221.484
 273  1023.293
 274  1143.156
 275  1197.843
 276  1284.642
 277  1303.276
 278  834.6423
 279  1084.275
 280  1351.684
 281  1394.426
 282  1466.486
 283  1407.183
 284  1181.244
 285  1055.562
 286  1143.649
 287  1058.609
 288  994.7582
 289  1054.156
 290  885.3184
 291  1281.847
 292  1186.592
 293  1241.939
 294  972.2335
 295  1152.478
 296  1105.85
 297  842.0497
 298  1165.476
 299  1220.918
 300  1212.953
 301  930.9697
 302  798.0733
 303  607.2204
 304  808.754
 305  1182.375
 306  1248.975
 307  1452.26
 308  829.9316
 309  870.0355
 310  1255.613
 311  1095.635
 312  1133.966
 313  1552.092
 314  1596.924
 315  1413.9
 316  902.5208
 317  634.9318
 318  1111.284
 319  1321.352
 320  1119.641
 321  978.092
 322  1221.692
 323  1505.457
 324  1504.893
 325  1382.86
 326  1093.665
 327  1073.015
 328  972.5563
 329  1218.85
 330  1096.5
 331  1272.281
 332  1062.147
 333  760.8782
 334  1185.74
 335  1120.394
 336  882.3001
 337  965.6616
 338  1051.16
 339  1018.049
 340  580.2112
 341  631.2908
 342  813.3109
 343  1204.466
 344  1186.648
 345  679.4333
 346  919.7986
 347  1362.519
 348  1180.086
 349  1318.111
 350  1046.189
 351  1207.535
 352  1117.387
 353  1229.298
 354  1223.597
 355  950.9338
 356  980.4581
 357  1192.547
 358  979.9319
 359  1204.161
 360  1455.082
 361  1902.753
 362  2267.298
 363  2492.846
 364  2371.5
 365  2154.319
 366  1382.265
 367  923.5693
 368  1448.731
 369  824.2786
 370  974.1659
 371  1267.537
 372  845.767
 373  661.3328
 374  794.1882
 375  1180.524
 376  1225.389
 377  1025.986
 378  1323.991
 379  1276.136
 380  899.3956
 381  1236.478
 382  1016.268
 383  857.8851
 384  1162.601
 385  1042.495
 386  1182.281
 387  1382.44
 388  1272.716
 389  1309.071
 390  1420.864
 391  1476.148
 392  1182.384
 393  1215.479
 394  1244.764
 395  1384.084
 396  1168.094
 397  1263.828
 398  1327.877
 399  1238.748
 400  1334.012
 401  1492.215
 402  1655.901
 403  1451.781
 404  961.6204
 405  962.2299
 406  794.2746
 407  949.1208
 408  1004.787
 409  1304.314
 410  1340.258
 411  1128.258
 412  844.8687
 413  758.7162
 414  762.664
 415  1022.879
 416  590.7278
 417  687.0959
 418  946.0248
 419  798.1011
 420  762.2504
 421  983.8556
 422  1071.446
 423  882.7106
 424  931.3188
 425  1156.657
 426  1204.503
 427  1315.175
 428  1209.7
 429  1516.757
 430  1249.932
 431  803.2333
 432  1156.012
 433  1064.701
 434  1334.946
 435  1550.725
 436  1548.217
 437  1266.208
 438  1044.66
 439  819.5311
 440  872.3942
 441  935.7836
 442  965.1525
 443  1483.386
 444  1483.065
 445  1077.467
 446  978.8384
 447  900.7977
 448  649.5576
 449  925.1676
 450  1166.932
 451  1220.31
 452  1132.778
 453  996.5175
 454  988.6073
 455  813.903
 456  1054.955
 457  1051.002
 458  1020.644
 459  962.6916
 460  1136.233
 461  897.8142
 462  909.418
 463  879.3973
 464  854.0066
 465  1219.759
 466  985.4504
 467  1437.365
 468  1181.777
 469  820.4396
 470  1009.091
 471  870.4718
 472  876.2068
 473  1170.393
 474  1280.194
 475  1004.032
 476  742.1766
 477  1072.012
 478  1004.704
 479  829.5673
 480  702.3492
 481  636.6924
 482  531.0929
 483  737.9623
 484  825.8087
 485  1047.503
 486  1663.952
 487  1318.766
 488  1186.591
 489  1131.628
 490  1010.067
 491  879.3489
 492  1329.287
 493  1405.476
 494  1478.995
 495  1252.651
 496  688.1672
 497  717.6256
 498  763.8353
 499  699.0425
 500  728.011
 501  890.3132
 502  1003.627
 503  867.0966
 504  814.3994
 505  698.5838
 506  922.0717
 507  1200.058
 508  1445.561
 509  1167.891
 510  980.7195
 511  1256.566
