# Input file       =  1200829442.095395_cleaned.dat
# Candidate        =  PSR_0332+5434
# Telescope        =  AR
# Epoch_topo       =  58142.489133048555
# Epoch_bary       =  N/A
# T_sample         =  0.002
# Data Folded      =  7405568
# Data Avg         =  0.0882814903073913
# Data StdDev      =  3.30543363324874 
# Profile Bins     =  512
# Profile Avg      =  1276.92701861663 
# Profile StdDev   =  397.532507741362 
# Reduced chi-sqr  =  1.391
# Prob(Noise)      <  1.04e-08   (~5.6 sigma)
# P_topo (ms)      =  714.572351485492  +/- 4.85e-05
# P'_topo (s/s)    =  -0                +/- 2.54e-11
# P''_topo (s/s^2) =  0                 +/- 1.11e-14
# P_bary (ms)      =  N/A
# P'_bary (s/s)    =  N/A
# P''_bary (s/s^2) =  N/A
# P_orb (s)        =  N/A
# asin(i)/c (s)    =  N/A
# eccentricity     =  N/A
# w (rad)          =  N/A
# T_peri           =  N/A
######################################################
   0  1369.644
   1  1189.873
   2  875.9095
   3  1050.497
   4  1354.858
   5  1145.026
   6  1029.863
   7  910.1143
   8  1094.127
   9  1031.085
  10  1212.118
  11  1129.636
  12  1018.966
  13  1304.536
  14  1373.249
  15  1628.136
  16  1670.487
  17  1300
  18  1100.818
  19  1193.244
  20  1153.301
  21  1068.222
  22  847.9137
  23  1165.049
  24  1196.958
  25  876.5973
  26  464.6542
  27  727.6461
  28  1162.111
  29  1570.986
  30  1899.137
  31  1737.702
  32  1674.65
  33  1597.932
  34  1406.051
  35  1414.505
  36  1173.327
  37  1339.444
  38  1173.476
  39  1174.981
  40  1249.272
  41  964.327
  42  774.118
  43  728.9072
  44  1032.663
  45  1338.503
  46  1260.047
  47  1463.238
  48  1559.437
  49  1314.225
  50  1137.813
  51  1159.352
  52  1268.857
  53  1288.143
  54  1232.425
  55  944.8468
  56  1018.087
  57  1066.573
  58  743.4498
  59  782.4063
  60  808.8951
  61  1153.954
  62  1458.184
  63  1331.34
  64  1168.41
  65  1503.047
  66  1136.913
  67  1037.739
  68  948.0027
  69  1034.802
  70  1083.671
  71  869.1842
  72  1173.996
  73  1298.576
  74  1028.605
  75  944.2519
  76  831.6854
  77  1185.047
  78  1646.019
  79  1598.952
  80  2044.914
  81  1894.761
  82  1600.517
  83  1161.882
  84  1106.102
  85  1216.843
  86  1090.63
  87  972.4431
  88  1061.974
  89  1372.149
  90  1079.089
  91  1021.233
  92  1142.27
  93  1239.093
  94  1450.468
  95  1609.558
  96  1712.039
  97  1990.789
  98  1727.338
  99  1229.403
 100  1189.887
 101  1223.258
 102  1130.184
 103  1297.266
 104  1095.681
 105  941.2792
 106  1015.198
 107  1038.059
 108  827.3134
 109  734.863
 110  1192.1
 111  1659.261
 112  1875.158
 113  1539.712
 114  1167.988
 115  1427.294
 116  1395.845
 117  1046.09
 118  1200.042
 119  1527.903
 120  1209.479
 121  1044.737
 122  1132.921
 123  1224.851
 124  989.4386
 125  843.7955
 126  974.4869
 127  1466.486
 128  1767.067
 129  1565.859
 130  1762.823
 131  1662.925
 132  1356.71
 133  1243.611
 134  835.2528
 135  902.6565
 136  1042.852
 137  1029.746
 138  1015.881
 139  1075.988
 140  1043.799
 141  981.6576
 142  1141.103
 143  1258.511
 144  1494.326
 145  1501.149
 146  1967.893
 147  1845.525
 148  1584.986
 149  1450.483
 150  1324.429
 151  1322.631
 152  1216.638
 153  1211.382
 154  1018.299
 155  1075.924
 156  1074.879
 157  899.6228
 158  778.9142
 159  1331.07
 160  1682.997
 161  1470.964
 162  1384.215
 163  1503.447
 164  1842.33
 165  1515.669
 166  1089.436
 167  1180.674
 168  953.6605
 169  1305.466
 170  1296.64
 171  1220.709
 172  1134.422
 173  643.3934
 174  575.9064
 175  914.1508
 176  1073.207
 177  1579.071
 178  1629.794
 179  1730.502
 180  1960.051
 181  1699.926
 182  1314.96
 183  906.1561
 184  898.7729
 185  1577.337
 186  1702.733
 187  1631.843
 188  1534.619
 189  1143.931
 190  1069.412
 191  842.1769
 192  700.9469
 193  787.504
 194  1495.789
 195  1606.547
 196  1270.647
 197  1416.836
 198  1430.774
 199  1141.442
 200  1008.985
 201  1256.264
 202  1447.513
 203  962.0608
 204  1071.31
 205  922.5732
 206  1031.474
 207  1151.937
 208  808.8347
 209  919.4775
 210  1267.654
 211  1349
 212  1743.125
 213  1643.647
 214  1562.788
 215  1647.641
 216  1269.53
 217  978.2283
 218  1037.639
 219  1364.634
 220  1293.179
 221  994.9278
 222  1134.467
 223  962.772
 224  828.7853
 225  547.6282
 226  902.2136
 227  1218.758
 228  1318.965
 229  1833.483
 230  1615.929
 231  1328.683
 232  1382.557
 233  1250.273
 234  1102.459
 235  832.6879
 236  1046.628
 237  1352.92
 238  1128.749
 239  1085.727
 240  1055.182
 241  1007.389
 242  1092.953
 243  1373.181
 244  1516.032
 245  1566.344
 246  1689.254
 247  1697.997
 248  1467.594
 249  1120.847
 250  1048.282
 251  1538.485
 252  1642.158
 253  1534.907
 254  1192.513
 255  929.0262
 256  669.6966
 257  650.4689
 258  941.1959
 259  997.871
 260  1366.794
 261  1593.513
 262  2024.813
 263  1830.228
 264  1267.912
 265  1159.979
 266  1223.243
 267  1529.584
 268  1319.925
 269  1053.91
 270  956.6833
 271  1297.238
 272  1452.203
 273  971.4478
 274  1009.911
 275  1450.035
 276  1520.558
 277  1436.311
 278  1762.237
 279  1793.431
 280  1568.673
 281  1437.501
 282  1377.746
 283  1510.485
 284  1642.235
 285  1613.606
 286  1381.888
 287  1385.944
 288  1399.836
 289  1173.595
 290  1484.99
 291  2147.837
 292  2855.569
 293  3092.374
 294  2934.897
 295  2879.584
 296  2525.258
 297  2014.573
 298  1456.617
 299  1329.298
 300  1249.722
 301  1367.806
 302  1357.82
 303  1252.521
 304  1791.057
 305  1416.442
 306  1159.152
 307  992.447
 308  1274.195
 309  1399.443
 310  1742.159
 311  2049.608
 312  2059.9
 313  1626.129
 314  1565.13
 315  1565.889
 316  1191.33
 317  1410.35
 318  1364.118
 319  1153.676
 320  1059.902
 321  1285.344
 322  1440.198
 323  1290.444
 324  1165.231
 325  1364.063
 326  1358.21
 327  1417.076
 328  1698.243
 329  1657.182
 330  1395.849
 331  1253.549
 332  1282.718
 333  1352.013
 334  1390.139
 335  1180.829
 336  1221.166
 337  1273.96
 338  1063.623
 339  1220.09
 340  1189.082
 341  1601.705
 342  1540.45
 343  1417.521
 344  1456.679
 345  1770.523
 346  1584.364
 347  1341.432
 348  1341.397
 349  1399.072
 350  1569.012
 351  1211.787
 352  1163.115
 353  1137.839
 354  1048.647
 355  954.0735
 356  752.9266
 357  1117.785
 358  1550.794
 359  1438.422
 360  1466.57
 361  1645.477
 362  1777.54
 363  1608.938
 364  1311.137
 365  1369.269
 366  1055.437
 367  940.9146
 368  815.424
 369  845.8784
 370  974.1938
 371  791.9874
 372  924.9227
 373  859.7112
 374  795.4435
 375  1356.393
 376  1667.447
 377  1678.325
 378  1719.613
 379  1711.828
 380  1374.662
 381  1239.404
 382  1261.563
 383  1133.547
 384  972.6389
 385  1432.722
 386  1435.663
 387  1101.956
 388  700.1539
 389  753.8646
 390  748.7403
 391  1072.439
 392  1411.694
 393  1650.952
 394  1689.382
 395  1609.866
 396  1448.716
 397  1245.243
 398  1130.61
 399  969.6686
 400  938.1968
 401  1134.525
 402  1105.517
 403  1264.747
 404  1008.709
 405  887.2968
 406  721.7017
 407  675.3944
 408  1332.875
 409  1364.499
 410  1601.802
 411  1756.054
 412  1673.61
 413  1554.054
 414  1084.621
 415  951.1059
 416  1092.684
 417  890.5858
 418  1041.387
 419  1388.799
 420  1035.447
 421  1132.134
 422  1058.314
 423  1004.377
 424  1291.217
 425  1584.953
 426  1646.506
 427  1698.962
 428  1587.47
 429  1565.729
 430  1400.498
 431  1019.293
 432  1050.521
 433  1157.938
 434  1199.461
 435  1243.577
 436  1062.845
 437  863.9802
 438  942.2761
 439  953.0266
 440  882.1044
 441  982.1063
 442  1339.987
 443  1795.843
 444  1741.984
 445  1625.591
 446  1434.067
 447  1238.252
 448  951.8194
 449  836.7868
 450  918.3131
 451  905.4136
 452  909.5864
 453  1094.156
 454  1095.148
 455  747.6044
 456  906.7672
 457  970.3514
 458  1118.874
 459  1360.443
 460  1527.099
 461  1624.37
 462  1504.12
 463  1344.843
 464  1302.752
 465  1259.221
 466  1294.628
 467  923.985
 468  938.9135
 469  1238.731
 470  978.3689
 471  865.2836
 472  1016.456
 473  1066.662
 474  1387.863
 475  1569.082
 476  1845.204
 477  1511.294
 478  1447.473
 479  1767.119
 480  1323.585
 481  941.7408
 482  1310.629
 483  986.025
 484  1188.403
 485  1387.176
 486  1175.262
 487  814.2439
 488  681.4747
 489  548.9766
 490  1035.367
 491  1360.073
 492  1223.379
 493  1326.532
 494  1142.96
 495  1152.079
 496  1478.764
 497  1289.145
 498  915.7687
 499  778.8611
 500  1335.09
 501  1405.486
 502  1182.475
 503  1367.321
 504  1058.742
 505  871.2051
 506  1408.526
 507  1268.065
 508  1487.255
 509  1912.093
 510  1831.617
 511  1995.216
