# Input file       =  1200240925.108405_cleaned.dat
# Candidate        =  PSR_0332+5434
# Telescope        =  AR
# Epoch_topo       =  58135.677593847278
# Epoch_bary       =  N/A
# T_sample         =  0.002
# Data Folded      =  7340032
# Data Avg         =  0.139240382019904
# Data StdDev      =  3.80371221238855 
# Profile Bins     =  1024
# Profile Avg      =  998.343060157115 
# Profile StdDev   =  322.037650330861 
# Reduced chi-sqr  =  0.533
# Prob(Noise)      <  1   (~0.0 sigma)
# P_topo (ms)      =  714.568356279863  +/- 0.000118
# P'_topo (s/s)    =  -0                +/- 6.23e-11
# P''_topo (s/s^2) =  0                 +/- 2.75e-14
# P_bary (ms)      =  N/A
# P'_bary (s/s)    =  N/A
# P''_bary (s/s^2) =  N/A
# P_orb (s)        =  N/A
# asin(i)/c (s)    =  N/A
# eccentricity     =  N/A
# w (rad)          =  N/A
# T_peri           =  N/A
######################################################
   0  915.1954
   1  1115.856
   2  1133.969
   3  1079.006
   4  1039.779
   5  1033.563
   6  1159.548
   7  1150.146
   8  1125.627
   9  923.5212
  10  838.0804
  11  858.7126
  12  995.2195
  13  1042.841
  14  988.0902
  15  966.046
  16  1049.085
  17  1109.623
  18  1123.909
  19  1058.475
  20  1058.898
  21  1058.641
  22  1074.039
  23  1031.012
  24  1040.61
  25  1117.983
  26  1115.832
  27  1097.83
  28  1049.065
  29  1195.758
  30  1316.39
  31  1368.076
  32  1256.199
  33  1102.079
  34  1000.392
  35  915.5121
  36  957.4364
  37  1008.116
  38  1075.069
  39  1064.502
  40  1083.233
  41  1107.16
  42  1115.563
  43  1154.509
  44  1229.058
  45  1270.247
  46  1184.354
  47  1056.772
  48  980.6866
  49  880.5204
  50  805.7838
  51  775.1453
  52  886.9191
  53  926.3946
  54  896.8122
  55  939.9546
  56  966.4617
  57  1128.869
  58  1098.349
  59  1107.543
  60  1036.322
  61  1032.902
  62  1044.742
  63  1009.521
  64  879.8687
  65  928.6899
  66  1133.266
  67  1317.727
  68  1279.489
  69  1163.613
  70  1162.984
  71  1188.524
  72  1223.947
  73  1312.882
  74  1336.065
  75  1218.282
  76  1061.673
  77  1023.343
  78  1092.986
  79  1111.269
  80  1066.549
  81  1141.997
  82  1144.435
  83  1040.879
  84  1053.826
  85  1179.522
  86  1242.193
  87  1181.442
  88  1055.309
  89  981.6012
  90  1036.639
  91  1030.578
  92  1181.102
  93  1201.255
  94  1317.019
  95  1301.525
  96  1247.723
  97  1078.122
  98  1014.765
  99  981.4668
 100  1015.366
 101  1004.372
 102  1079.707
 103  1194.692
 104  1192.691
 105  1105.453
 106  1161.815
 107  1134.995
 108  1170.726
 109  1059.081
 110  1123.042
 111  1159.983
 112  1099.158
 113  1031.402
 114  963.661
 115  916.2236
 116  870.3493
 117  962.6138
 118  899.777
 119  896.9359
 120  857.6042
 121  967.9807
 122  1026.916
 123  1001.104
 124  930.9376
 125  829.3817
 126  801.2022
 127  823.6693
 128  752.4785
 129  857.6032
 130  989.1835
 131  1026.416
 132  882.5125
 133  769.4141
 134  807.6156
 135  872.7977
 136  830.9272
 137  816.2904
 138  787.4602
 139  859.9968
 140  899.1624
 141  967.7113
 142  968.211
 143  939.7794
 144  1003.413
 145  961.7806
 146  992.3257
 147  980.891
 148  1030.756
 149  1091.309
 150  1093.291
 151  1203.234
 152  1233.254
 153  1277.693
 154  1279.462
 155  1168.751
 156  1132.79
 157  1118.461
 158  1143.309
 159  1025.498
 160  989.2684
 161  961.4065
 162  1005.407
 163  1017.189
 164  1037.04
 165  1071.725
 166  1066.813
 167  1097.277
 168  1176.516
 169  1178.435
 170  1183.118
 171  1072.427
 172  1079.055
 173  1059.703
 174  1003.678
 175  1056.767
 176  1093.636
 177  1085.61
 178  1047.749
 179  913.5121
 180  905.1508
 181  837.8049
 182  919.8821
 183  895.8124
 184  956.0201
 185  795.776
 186  756.1877
 187  725.7865
 188  793.5552
 189  946.1317
 190  998.6182
 191  971.9977
 192  894.9844
 193  877.6545
 194  953.7457
 195  950.274
 196  956.6071
 197  1142.193
 198  1121.258
 199  1028.316
 200  892.8154
 201  890.8325
 202  910.1413
 203  1037.7
 204  1029.824
 205  1067.166
 206  953.5864
 207  994.295
 208  972.9058
 209  968.1559
 210  935.3763
 211  1026.34
 212  1022.13
 213  1120.147
 214  1096.984
 215  1087.692
 216  1084.384
 217  1111.083
 218  1193.448
 219  1195.904
 220  1066.86
 221  1033.758
 222  979.7117
 223  1123.05
 224  1199.964
 225  1088.233
 226  994.3719
 227  856.2218
 228  1030.831
 229  1091.817
 230  1031.855
 231  878.4009
 232  892.6639
 233  921.0293
 234  939.7596
 235  921.5765
 236  1039.214
 237  1114.742
 238  1170.336
 239  1129.043
 240  1173.864
 241  1106.32
 242  1094.304
 243  1013
 244  941.7971
 245  967.1076
 246  1009.702
 247  988.9243
 248  1037.36
 249  1071.758
 250  1139.67
 251  1066.983
 252  950.8486
 253  984.379
 254  948.1605
 255  945.4149
 256  882.9988
 257  1037.689
 258  1141.771
 259  1057.454
 260  925.4764
 261  856.7643
 262  957.1144
 263  992.5438
 264  1076.753
 265  1027.581
 266  1003.998
 267  943.0308
 268  885.5262
 269  876.0919
 270  879.7982
 271  882.8234
 272  875.8249
 273  961.2635
 274  1043.663
 275  1152.589
 276  1110.247
 277  1069.563
 278  904.1885
 279  773.4708
 280  759.7454
 281  804.995
 282  854.8149
 283  810.804
 284  791.1882
 285  858.4029
 286  846.6149
 287  931.1151
 288  1047.26
 289  1136.762
 290  1039.54
 291  1009.497
 292  1037.774
 293  1069.161
 294  1038.243
 295  980.8304
 296  940.0873
 297  933.5926
 298  1004.27
 299  939.045
 300  924.762
 301  920.1497
 302  1065.431
 303  955.9028
 304  912.1946
 305  867.5775
 306  890.162
 307  987.8657
 308  1023.465
 309  1029.926
 310  938.7642
 311  953.2696
 312  997.7513
 313  921.065
 314  897.8848
 315  889.6556
 316  943.9453
 317  852.3549
 318  921.5466
 319  834.6558
 320  808.2614
 321  868.3918
 322  930.9799
 323  1053.941
 324  1040.115
 325  1133.574
 326  1144.692
 327  1217.584
 328  1123.687
 329  1077.767
 330  1077.924
 331  1207.622
 332  1192.237
 333  1107.976
 334  1010.387
 335  977.48
 336  1010.721
 337  1047.885
 338  1038.307
 339  1078.368
 340  1200.547
 341  1205.785
 342  1153.862
 343  1008.18
 344  1111.452
 345  1179.839
 346  1192.703
 347  1179.397
 348  1188.449
 349  1176.279
 350  1105.215
 351  1069.37
 352  1240.775
 353  1365.193
 354  1310.878
 355  1226.142
 356  1166.353
 357  1049.619
 358  1028.043
 359  1095.553
 360  1139.264
 361  1076.227
 362  1042.309
 363  1123.888
 364  1090.009
 365  1003.618
 366  930.3615
 367  938.145
 368  1003.212
 369  1094.143
 370  1047.043
 371  970.6881
 372  991.0445
 373  1076.698
 374  1128.835
 375  1083.363
 376  1077.801
 377  1082.579
 378  1050.239
 379  942.6635
 380  1082.757
 381  1179.524
 382  1118.46
 383  1034.234
 384  947.2781
 385  1145.218
 386  1064.701
 387  989.3033
 388  825.5641
 389  800.4844
 390  851.6506
 391  950.5128
 392  1009.192
 393  1039.863
 394  1104.821
 395  1072.923
 396  1048.448
 397  1027.706
 398  1060.604
 399  1105.666
 400  1121.648
 401  1068.569
 402  1019.752
 403  888.8354
 404  768.0099
 405  704.1663
 406  786.3078
 407  919.976
 408  1003.769
 409  1058.671
 410  1105.599
 411  1077.678
 412  1181.839
 413  1145.918
 414  1096.556
 415  975.3528
 416  983.2017
 417  1038.993
 418  1033.265
 419  902.2066
 420  874.1724
 421  847.6763
 422  957.2632
 423  963.3815
 424  1049.364
 425  1002.625
 426  1084.343
 427  1030.789
 428  1017.917
 429  915.7081
 430  787.5635
 431  806.572
 432  803.0452
 433  904.1894
 434  874.2266
 435  821.1456
 436  751.1465
 437  698.2929
 438  853.9548
 439  964.0074
 440  931.724
 441  849.9365
 442  886.3786
 443  916.6655
 444  830.9335
 445  764.477
 446  722.601
 447  835.6664
 448  935.8668
 449  1004.825
 450  998.8083
 451  965.8992
 452  990.6121
 453  1037.385
 454  967.8463
 455  957.2922
 456  1008.611
 457  1156.42
 458  1162.959
 459  1099.611
 460  940.2985
 461  968.0393
 462  917.0652
 463  1018.427
 464  1048.084
 465  1021.027
 466  1000.422
 467  1000.065
 468  1058.41
 469  954.4538
 470  877.5334
 471  882.5726
 472  910.3063
 473  877.635
 474  898.3431
 475  992.6669
 476  948.7991
 477  925.6765
 478  823.5493
 479  1014.016
 480  1026.594
 481  1113.776
 482  1175.382
 483  1151.276
 484  1112.68
 485  1019.783
 486  977.5882
 487  976.9543
 488  986.3747
 489  970.2001
 490  960.2673
 491  905.3279
 492  927.2253
 493  927.6954
 494  940.4908
 495  998.0306
 496  1089.458
 497  1064.336
 498  976.8909
 499  835.8463
 500  903.118
 501  956.92
 502  1001.337
 503  983.0702
 504  999.9537
 505  923.345
 506  914.3176
 507  806.6251
 508  790.2528
 509  741.496
 510  792.8842
 511  869.4863
 512  868.3553
 513  902.9423
 514  1055.193
 515  1008.302
 516  1005.529
 517  1042.971
 518  1085.608
 519  1043.406
 520  949.4684
 521  1001.982
 522  1085.23
 523  1094.446
 524  951.7181
 525  834.4413
 526  746.6356
 527  805.6599
 528  883.9747
 529  957.7581
 530  931.6146
 531  966.4343
 532  974.3201
 533  1053.957
 534  998.9224
 535  914.7237
 536  880.6841
 537  863.8471
 538  962.7848
 539  930.3789
 540  878.5518
 541  911.9062
 542  995.7794
 543  1129.872
 544  1156.039
 545  1069.847
 546  906.8972
 547  813.2808
 548  747.7014
 549  815.1999
 550  897.3703
 551  991.8253
 552  1043.301
 553  1056.939
 554  1025.307
 555  1067.317
 556  938.3152
 557  913.697
 558  863.6576
 559  925.3003
 560  962.0547
 561  945.4503
 562  821.1405
 563  810.1945
 564  839.4765
 565  1035.757
 566  979.7718
 567  860.0259
 568  696.1022
 569  771.5298
 570  865.9024
 571  917.3688
 572  948.7071
 573  988.2169
 574  1029.597
 575  936.7628
 576  864.8444
 577  880.7551
 578  954.8694
 579  1020.476
 580  1021.617
 581  1010.933
 582  1007.436
 583  1050.01
 584  990.843
 585  924.6812
 586  934.5798
 587  991.3236
 588  1005.007
 589  1068.126
 590  1102.915
 591  1156.205
 592  1060.094
 593  1007.13
 594  974.9996
 595  1012.581
 596  973.6495
 597  872.0337
 598  783.5627
 599  834.2527
 600  915.1228
 601  971.5716
 602  1054.097
 603  1071.671
 604  1218.012
 605  1264.208
 606  1182.373
 607  1139.339
 608  1092.254
 609  1112.301
 610  1082.921
 611  1262.835
 612  1334.258
 613  1341.466
 614  1329.631
 615  1415.176
 616  1509.445
 617  1512.824
 618  1532.738
 619  1518.102
 620  1349.978
 621  1138.844
 622  990.502
 623  1045.071
 624  984.281
 625  952.9441
 626  886.0244
 627  900.3748
 628  778.3767
 629  819.8365
 630  974.4566
 631  1160.792
 632  1192.883
 633  1128.505
 634  942.4203
 635  808.3549
 636  752.9107
 637  788.9678
 638  767.3461
 639  819.6985
 640  951.827
 641  1035.589
 642  984.7258
 643  998.3448
 644  1137.756
 645  1132.458
 646  1112.331
 647  952.9123
 648  897.1023
 649  856.1983
 650  795.0111
 651  814.7954
 652  815.8769
 653  758.7681
 654  794.9298
 655  835.5676
 656  995.5604
 657  889.9167
 658  920.1082
 659  859.5511
 660  886.3702
 661  736.2727
 662  754.7455
 663  699.0499
 664  600.4318
 665  545.2747
 666  626.6367
 667  818.824
 668  857.9413
 669  803.5886
 670  751.0347
 671  795.921
 672  799.1041
 673  813.3919
 674  746.6592
 675  755.0056
 676  785.7765
 677  755.9676
 678  804.6301
 679  792.2917
 680  917.7899
 681  1023.021
 682  1060.567
 683  1093.118
 684  971.8044
 685  905.7637
 686  853.2511
 687  974.0201
 688  930.9297
 689  968.3568
 690  936.4299
 691  978.4462
 692  923.5568
 693  966.6909
 694  989.368
 695  1004.08
 696  1004.736
 697  1059.488
 698  1100.632
 699  1061.704
 700  915.1053
 701  840.153
 702  852.5774
 703  880.3606
 704  880.9797
 705  913.5309
 706  991.3835
 707  1021.247
 708  1047.001
 709  996.3679
 710  1030.521
 711  1037.362
 712  1092.762
 713  1019.187
 714  983.5964
 715  772.7248
 716  749.8564
 717  749.0718
 718  828.5084
 719  907.9189
 720  794.1766
 721  758.3893
 722  832.4336
 723  1050.34
 724  1217.206
 725  1187.075
 726  1152.99
 727  1158.675
 728  1023.791
 729  930.0872
 730  849.7563
 731  813.6713
 732  876.3973
 733  919.9808
 734  942.1833
 735  871.0321
 736  832.0001
 737  949.136
 738  1021.879
 739  1092.661
 740  1012.591
 741  973.8782
 742  949.2957
 743  918.701
 744  796.8405
 745  858.4426
 746  848.1907
 747  862.6325
 748  817.4467
 749  822.9285
 750  886.4496
 751  897.0972
 752  896.3738
 753  933.1214
 754  946.5605
 755  956.5151
 756  950.6526
 757  875.2658
 758  840.8936
 759  834.7802
 760  951.5896
 761  997.3912
 762  989.3842
 763  935.9806
 764  932.9971
 765  909.2521
 766  857.7042
 767  927.5474
 768  1023.445
 769  1113.535
 770  1056.821
 771  940.5383
 772  942.4363
 773  973.2465
 774  1034.401
 775  928.855
 776  825.9069
 777  774.109
 778  888.5405
 779  994.8236
 780  1083.115
 781  1189.163
 782  1232.187
 783  1109.539
 784  929.2648
 785  817.5498
 786  789.2767
 787  806.3347
 788  771.9354
 789  775.2849
 790  835.0035
 791  1001.869
 792  1051.211
 793  1041.025
 794  1071.029
 795  1049.268
 796  1076.486
 797  1131.814
 798  1034.388
 799  984.5402
 800  893.9744
 801  948.799
 802  959.1556
 803  946.356
 804  959.6426
 805  885.8744
 806  920.1558
 807  1006.523
 808  995.8036
 809  970.0261
 810  990.4322
 811  1058.557
 812  1051.675
 813  981.4331
 814  1015.442
 815  1189.394
 816  1201.939
 817  1239.945
 818  1236.673
 819  1204.645
 820  1139.286
 821  1037.3
 822  1089.525
 823  1114.047
 824  1205.514
 825  1234.839
 826  1175.988
 827  1056.829
 828  1024.801
 829  1148.483
 830  1170.22
 831  1083.275
 832  1016.758
 833  918.9843
 834  933.465
 835  905.5142
 836  1053.544
 837  1017.922
 838  955.9165
 839  900.6497
 840  986.1677
 841  981.1232
 842  929.9377
 843  873.278
 844  914.3052
 845  886.5165
 846  837.0436
 847  922.2668
 848  997.5518
 849  1102.954
 850  1066.695
 851  973.5964
 852  954.3132
 853  1024.105
 854  1039.292
 855  1025.586
 856  1009.184
 857  1091.106
 858  1071.512
 859  1037.428
 860  1027.678
 861  1036.641
 862  1024.147
 863  1105.561
 864  1049.644
 865  992.4121
 866  1014.97
 867  1066.588
 868  1138.642
 869  1033.74
 870  1002.785
 871  953.5248
 872  1012.417
 873  954.8597
 874  912.3679
 875  854.507
 876  874.0443
 877  922.2425
 878  911.3165
 879  1027.647
 880  979.9343
 881  953.2629
 882  851.689
 883  893.4981
 884  857.6157
 885  802.4977
 886  702.9449
 887  753.5513
 888  1030.78
 889  1181.473
 890  1158.257
 891  1017.256
 892  905.2536
 893  834.3974
 894  654.8939
 895  764.4901
 896  905.3632
 897  1003.361
 898  931.5031
 899  994.0921
 900  1044.362
 901  1082.155
 902  1036.516
 903  1024.114
 904  1012.025
 905  1007.536
 906  1094.678
 907  1097.836
 908  1033.994
 909  1070.332
 910  999.4492
 911  948.8036
 912  874.353
 913  937.6434
 914  995.3522
 915  1022.598
 916  910.8973
 917  921.7022
 918  957.1956
 919  1018.469
 920  967.5064
 921  910.6926
 922  872.4542
 923  909.2265
 924  939.3369
 925  911.7188
 926  845.4444
 927  724.3628
 928  831.9616
 929  921.1221
 930  944.241
 931  1003.174
 932  1034.532
 933  1107.676
 934  1195.421
 935  1201.607
 936  1250.869
 937  1198.12
 938  1201.38
 939  1148.294
 940  1048.544
 941  1047.161
 942  1040.15
 943  1006.999
 944  940.259
 945  988.0698
 946  1049.59
 947  1183.618
 948  1156.385
 949  1158.488
 950  1165.043
 951  1133.245
 952  996.3818
 953  920.0588
 954  875.606
 955  947.7735
 956  929.7781
 957  998.9878
 958  1067.496
 959  981.6302
 960  1070.509
 961  1067.192
 962  1132.132
 963  1117.218
 964  1163.047
 965  1271.346
 966  1210.57
 967  1157.84
 968  1093.482
 969  1170.578
 970  1153.739
 971  1095.108
 972  1001.306
 973  1049.86
 974  1133.219
 975  1129.587
 976  1060.875
 977  995.8178
 978  986.3002
 979  1099.866
 980  1167.784
 981  1265.969
 982  1253.323
 983  1279.556
 984  1229.445
 985  1142.127
 986  1110.104
 987  1070.073
 988  1106.609
 989  1113.657
 990  1171.839
 991  1095.183
 992  997.9173
 993  883.9056
 994  836.3553
 995  875.0974
 996  810.2806
 997  817.6528
 998  873.298
 999  1027.06
1000  1015.823
1001  979.5353
1002  1037.525
1003  1080.189
1004  1088.045
1005  981.6806
1006  976.8261
1007  900.5851
1008  901.9302
1009  834.8529
1010  909.3024
1011  888.9705
1012  945.3923
1013  999.7216
1014  1100.06
1015  1098.713
1016  1060.439
1017  1043.574
1018  1061.289
1019  1077.055
1020  1052.386
1021  1029.142
1022  965.1206
1023  867.7432
