# Input file       =  1200514251.114862_cleaned.dat
# Candidate        =  PSR_0332+5434
# Telescope        =  AR
# Epoch_topo       =  58138.841089292386
# Epoch_bary       =  N/A
# T_sample         =  0.002
# Data Folded      =  7340032
# Data Avg         =  0.0917385822037049
# Data StdDev      =  1.00035363085905 
# Profile Bins     =  512
# Profile Avg      =  1315.16225546072 
# Profile StdDev   =  119.775377673277 
# Reduced chi-sqr  =  0.769
# Prob(Noise)      <  1   (~0.0 sigma)
# P_topo (ms)      =  714.570646409027  +/- 0.00025
# P'_topo (s/s)    =  -0                +/- 1.32e-10
# P''_topo (s/s^2) =  0                 +/- 5.82e-14
# P_bary (ms)      =  N/A
# P'_bary (s/s)    =  N/A
# P''_bary (s/s^2) =  N/A
# P_orb (s)        =  N/A
# asin(i)/c (s)    =  N/A
# eccentricity     =  N/A
# w (rad)          =  N/A
# T_peri           =  N/A
######################################################
   0  1616.998
   1  1515.045
   2  1510.364
   3  1258.77
   4  1287.577
   5  1289.891
   6  1273.841
   7  1253.217
   8  1260.741
   9  1325.805
  10  1237.414
  11  1402.65
  12  1340.939
  13  1395.093
  14  1322.73
  15  1333.615
  16  1213.126
  17  1224.156
  18  1379.663
  19  1345.009
  20  1322.867
  21  1339.722
  22  1240.035
  23  1190.998
  24  1158.11
  25  1236.083
  26  1225.633
  27  1319.513
  28  1435.284
  29  1413.12
  30  1445.467
  31  1347.331
  32  1338.366
  33  1273.162
  34  1233.685
  35  1260.302
  36  1382.542
  37  1420.599
  38  1475.772
  39  1339.858
  40  1339.861
  41  1263.888
  42  1171.616
  43  1191.099
  44  1238.65
  45  1373.985
  46  1355.152
  47  1326.706
  48  1220.554
  49  1324.346
  50  1325.611
  51  1262.224
  52  1228.352
  53  1183.019
  54  1338.986
  55  1312.586
  56  1396.984
  57  1308.048
  58  1384.81
  59  1396.422
  60  1300.445
  61  1275.351
  62  1379.809
  63  1487.899
  64  1405.501
  65  1364.88
  66  1213.284
  67  1163.203
  68  1232.295
  69  1196.094
  70  1207.325
  71  1229.036
  72  1251.481
  73  1252.193
  74  1221.247
  75  1261.782
  76  1320.413
  77  1320.366
  78  1271.107
  79  1190.628
  80  1284.915
  81  1323.145
  82  1375.687
  83  1348.773
  84  1325.085
  85  1240.583
  86  1244.191
  87  1267.899
  88  1223.354
  89  1254.378
  90  1282.755
  91  1230.579
  92  1260.709
  93  1274.894
  94  1192.906
  95  1275.163
  96  1226.776
  97  1298.157
  98  1228.575
  99  1303.02
 100  1210.21
 101  1267.009
 102  1277.886
 103  1255.913
 104  1232.544
 105  1247.643
 106  1345.866
 107  1343.378
 108  1305.824
 109  1351.314
 110  1324.958
 111  1308.321
 112  1280.088
 113  1221.639
 114  1261.055
 115  1298.178
 116  1349.08
 117  1272.493
 118  1274.585
 119  1431.217
 120  1450.148
 121  1424.309
 122  1435.802
 123  1299.939
 124  1215.579
 125  1282.03
 126  1318.528
 127  1261.99
 128  1269.437
 129  1337.908
 130  1267.947
 131  1313.167
 132  1299.798
 133  1278.892
 134  1298.696
 135  1328.138
 136  1406.766
 137  1349.753
 138  1424.099
 139  1370.56
 140  1419.545
 141  1382.757
 142  1334.818
 143  1267.149
 144  1249.421
 145  1276.92
 146  1293.602
 147  1309.376
 148  1346.002
 149  1403.974
 150  1437.598
 151  1459.125
 152  1404.961
 153  1318.347
 154  1299.494
 155  1310.633
 156  1316.707
 157  1326.591
 158  1344.426
 159  1417.78
 160  1405.066
 161  1315.127
 162  1347.569
 163  1397.721
 164  1354.332
 165  1290.426
 166  1278.065
 167  1200.39
 168  1211.075
 169  1293.744
 170  1401.004
 171  1386.466
 172  1416.709
 173  1341.857
 174  1336.22
 175  1290.504
 176  1293.57
 177  1278.464
 178  1400.473
 179  1427.169
 180  1303.023
 181  1315.857
 182  1187.327
 183  1316.302
 184  1244.505
 185  1242.236
 186  1293.375
 187  1298.195
 188  1345.266
 189  1338.596
 190  1297.634
 191  1286.958
 192  1394.351
 193  1350.337
 194  1330.908
 195  1354.61
 196  1312.489
 197  1384.869
 198  1353.33
 199  1211.657
 200  1296.817
 201  1346.567
 202  1308.773
 203  1269.375
 204  1308.159
 205  1329.131
 206  1327.259
 207  1280.707
 208  1306.345
 209  1253.389
 210  1215.832
 211  1303.634
 212  1361.865
 213  1390.364
 214  1275.514
 215  1345.269
 216  1349.291
 217  1262.083
 218  1280.547
 219  1256.543
 220  1216.958
 221  1238.219
 222  1304.343
 223  1374.47
 224  1394.252
 225  1245.125
 226  1374.973
 227  1332.932
 228  1361.21
 229  1295.456
 230  1276.736
 231  1315.488
 232  1303.843
 233  1330.769
 234  1262.9
 235  1364.83
 236  1393.187
 237  1453.629
 238  1334.733
 239  1349.14
 240  1359.697
 241  1341.13
 242  1413.226
 243  1375.123
 244  1324.839
 245  1343.891
 246  1327.228
 247  1297.992
 248  1221.211
 249  1282.34
 250  1474.108
 251  1449.138
 252  1376.616
 253  1324.063
 254  1345.13
 255  1343.882
 256  1375.024
 257  1304.81
 258  1344.259
 259  1318.236
 260  1278.475
 261  1266.329
 262  1333.075
 263  1299.622
 264  1307.746
 265  1338.235
 266  1283.26
 267  1281.533
 268  1268.702
 269  1289.807
 270  1244.687
 271  1275.858
 272  1353.473
 273  1415.25
 274  1399.19
 275  1213.946
 276  1151.827
 277  1352.732
 278  1464.345
 279  1530.466
 280  1433.178
 281  1317.991
 282  1290.643
 283  1288.642
 284  1333.811
 285  1354.48
 286  1348.53
 287  1315.653
 288  1307.994
 289  1325.85
 290  1386.442
 291  1450.735
 292  1478.244
 293  1424.87
 294  1429.179
 295  1336.741
 296  1342.898
 297  1418.198
 298  1438.261
 299  1429.205
 300  1383.29
 301  1367.667
 302  1328.258
 303  1387.021
 304  1271.523
 305  1237.185
 306  1290.75
 307  1249.194
 308  1206.761
 309  1089.912
 310  1187.491
 311  1137.89
 312  1228.124
 313  1199.839
 314  1141.001
 315  1145.721
 316  1119.006
 317  1225.485
 318  1141.872
 319  1143.617
 320  1177.083
 321  1268.059
 322  1358.61
 323  1330.094
 324  1351.509
 325  1285.775
 326  1337.311
 327  1306.94
 328  1263.159
 329  1403.763
 330  1364.677
 331  1379.88
 332  1273.249
 333  1245.228
 334  1250.131
 335  1226.246
 336  1301.691
 337  1357.626
 338  1258.903
 339  1235.331
 340  1248.858
 341  1224.822
 342  1276.152
 343  1333.624
 344  1404.289
 345  1397.246
 346  1464.724
 347  1412.215
 348  1328.862
 349  1269.653
 350  1287.152
 351  1361.93
 352  1254.631
 353  1281.611
 354  1246.598
 355  1413.598
 356  1418.877
 357  1279.1
 358  1165.269
 359  1204.591
 360  1279.192
 361  1289.922
 362  1327.477
 363  1346.306
 364  1320.327
 365  1381.411
 366  1431.633
 367  1311.901
 368  1257.061
 369  1260.517
 370  1275.11
 371  1209.185
 372  1334.924
 373  1470.754
 374  1336.261
 375  1265.989
 376  1247.184
 377  1279.79
 378  1252.103
 379  1296.192
 380  1311.492
 381  1284.834
 382  1298.337
 383  1391.777
 384  1329.952
 385  1404.161
 386  1360.512
 387  1449.873
 388  1342.553
 389  1313.157
 390  1259.894
 391  1259.529
 392  1208.334
 393  1195.973
 394  1339.705
 395  1180.132
 396  1146.941
 397  1215.527
 398  1383.771
 399  1309.705
 400  1232.64
 401  1296.878
 402  1327.887
 403  1292.886
 404  1299.249
 405  1347.332
 406  1286.181
 407  1263.571
 408  1358.101
 409  1363.515
 410  1272.227
 411  1337.4
 412  1431.205
 413  1319.732
 414  1246.759
 415  1275.846
 416  1295.502
 417  1264.99
 418  1282.454
 419  1333.779
 420  1232.15
 421  1260.335
 422  1398.738
 423  1313.469
 424  1229.326
 425  1322.1
 426  1286.297
 427  1253.287
 428  1323.001
 429  1385.516
 430  1370.235
 431  1329.245
 432  1315.569
 433  1266.236
 434  1271.872
 435  1257.162
 436  1317.217
 437  1323.603
 438  1223.396
 439  1221.037
 440  1288.239
 441  1417.991
 442  1332.115
 443  1274.62
 444  1316.559
 445  1311.558
 446  1421.569
 447  1451.294
 448  1418.172
 449  1331.773
 450  1329.722
 451  1391.104
 452  1317.026
 453  1305.826
 454  1347.983
 455  1357.207
 456  1396.518
 457  1287.09
 458  1234.885
 459  1304.738
 460  1336.797
 461  1300.382
 462  1399.667
 463  1395.017
 464  1330.839
 465  1248.645
 466  1220.791
 467  1207.273
 468  1249.882
 469  1471.537
 470  1434.021
 471  1300.827
 472  1269.848
 473  1441.407
 474  1327.744
 475  1362.528
 476  1307.107
 477  1316.701
 478  1277.307
 479  1283.761
 480  1369.489
 481  1336.499
 482  1318.805
 483  1386.235
 484  1363.427
 485  1266.832
 486  1097.137
 487  1273.771
 488  1395.297
 489  1395.244
 490  1350.768
 491  1343.941
 492  1310.232
 493  1280.352
 494  1347.261
 495  1374.129
 496  1289.682
 497  1254.143
 498  1352.643
 499  1350.553
 500  1326.184
 501  1322.342
 502  1378.917
 503  1320.213
 504  1307.034
 505  1385.479
 506  1398.368
 507  1351.398
 508  1359.784
 509  1479.577
 510  1605.758
 511  1729.252
