# Input file       =  1200915502.113506_cleaned.dat
# Candidate        =  PSR_0332+5434
# Telescope        =  AR
# Epoch_topo       =  58143.485198072987
# Epoch_bary       =  N/A
# T_sample         =  0.002
# Data Folded      =  7274496
# Data Avg         =  0.106439369935165
# Data StdDev      =  3.8748624222157  
# Profile Bins     =  1024
# Profile Avg      =  756.12477000664  
# Profile StdDev   =  326.59367056324  
# Reduced chi-sqr  =  0.854
# Prob(Noise)      <  1   (~0.0 sigma)
# P_topo (ms)      =  714.572874656519  +/- 5.56e-05
# P'_topo (s/s)    =  -0                +/- 2.96e-11
# P''_topo (s/s^2) =  0                 +/- 1.32e-14
# P_bary (ms)      =  N/A
# P'_bary (s/s)    =  N/A
# P''_bary (s/s^2) =  N/A
# P_orb (s)        =  N/A
# asin(i)/c (s)    =  N/A
# eccentricity     =  N/A
# w (rad)          =  N/A
# T_peri           =  N/A
######################################################
   0  830.1276
   1  636.0169
   2  434.4087
   3  216.5622
   4  217.6112
   5  313.6885
   6  507.3088
   7  522.758
   8  491.1412
   9  650.0662
  10  657.1184
  11  667.8489
  12  717.3819
  13  798.9177
  14  871.9464
  15  699.6755
  16  791.3237
  17  749.5119
  18  794.8068
  19  724.2014
  20  718.1597
  21  749.4917
  22  815.5419
  23  897.0186
  24  931.0336
  25  799.7255
  26  759.5887
  27  778.601
  28  669.9509
  29  713.0545
  30  691.2777
  31  831.9595
  32  670.0252
  33  744.9282
  34  747.7938
  35  671.0272
  36  566.6708
  37  533.7852
  38  649.244
  39  847.8419
  40  841.8101
  41  833.4216
  42  707.7783
  43  772.6402
  44  835.7441
  45  766.8901
  46  821.5593
  47  857.3635
  48  918.9467
  49  757.6144
  50  734.3802
  51  760.9015
  52  868.8724
  53  837.8809
  54  831.998
  55  741.7316
  56  690.1078
  57  672.02
  58  777.2292
  59  1007.655
  60  1039.006
  61  944.3552
  62  940.1978
  63  889.8498
  64  689.46
  65  487.9406
  66  485.1749
  67  523.3765
  68  477.4141
  69  500.3653
  70  454.4897
  71  481.1036
  72  572.6237
  73  763.0392
  74  820.6472
  75  727.2399
  76  675.1096
  77  761.0534
  78  683.4703
  79  678.9362
  80  654.3987
  81  768.0691
  82  790.1951
  83  775.6199
  84  724.3
  85  621.7833
  86  713.793
  87  803.1278
  88  795.2844
  89  805.3685
  90  928.8896
  91  957.1981
  92  814.7844
  93  694.5502
  94  759.1537
  95  735.4213
  96  671.5811
  97  710.8177
  98  799.0706
  99  688.9979
 100  595.337
 101  457.8895
 102  437.1047
 103  508.1
 104  632.4346
 105  730.693
 106  700.8453
 107  668.3622
 108  729.8879
 109  707.8809
 110  653.9646
 111  712.8357
 112  918.2685
 113  912.2518
 114  775.6476
 115  704.9175
 116  717.1613
 117  645.8796
 118  674.7858
 119  746.3452
 120  708.0204
 121  669.9974
 122  830.3658
 123  896.7462
 124  1024.342
 125  956.8414
 126  931.2052
 127  863.117
 128  852.2728
 129  863.4648
 130  706.8862
 131  586.2123
 132  575.8337
 133  783.5192
 134  730.3035
 135  689.6424
 136  607.9664
 137  690.0533
 138  775.2855
 139  870.9573
 140  866.3131
 141  753.1157
 142  741.7589
 143  748.9535
 144  765.3296
 145  654.9008
 146  709.2283
 147  633.6566
 148  715.4656
 149  718.1931
 150  734.9604
 151  816.1544
 152  767.3607
 153  841.5787
 154  886.7542
 155  861.683
 156  867.0549
 157  804.8217
 158  694.5931
 159  791.6101
 160  754.5925
 161  826.4625
 162  574.5414
 163  534.4086
 164  649.2432
 165  659.3718
 166  652.272
 167  451.0373
 168  509.6212
 169  631.8182
 170  658.4031
 171  691.6124
 172  613.5024
 173  761.4617
 174  864.0299
 175  823.1332
 176  754.275
 177  766.6437
 178  863.9639
 179  862.0611
 180  702.582
 181  761.3444
 182  718.9583
 183  655.7528
 184  574.0474
 185  640.5265
 186  601.1136
 187  716.7175
 188  738.8215
 189  1037.512
 190  932.5082
 191  972.2473
 192  1021.328
 193  936.2562
 194  773.5762
 195  628.8253
 196  767.9451
 197  682.5031
 198  680.9288
 199  681.5406
 200  739.9921
 201  596.0794
 202  469.4121
 203  441.158
 204  606.2188
 205  747.0361
 206  980.2958
 207  1009.12
 208  811.202
 209  706.6368
 210  711.6183
 211  781.3769
 212  847.8151
 213  1022.189
 214  1197.985
 215  923.5535
 216  715.3265
 217  591.728
 218  625.1874
 219  713.437
 220  729.8534
 221  760.9095
 222  765.7736
 223  773.4169
 224  915.6679
 225  992.5541
 226  818.4413
 227  696.6085
 228  597.8821
 229  695.001
 230  698.6932
 231  724.037
 232  571.2604
 233  499.8726
 234  385.0779
 235  430.9753
 236  535.5439
 237  754.0482
 238  898.1222
 239  948.2075
 240  885.0306
 241  727.023
 242  669.4512
 243  586.4872
 244  653.9916
 245  679.8571
 246  868.6153
 247  742.1916
 248  610.3532
 249  508.4608
 250  534.5256
 251  693.5853
 252  706.5203
 253  752.4853
 254  857.5129
 255  956.1017
 256  1072.446
 257  1100.874
 258  1070.281
 259  878.6613
 260  756.9739
 261  724.1908
 262  704.8052
 263  699.3848
 264  664.1193
 265  643.2354
 266  683.02
 267  632.2225
 268  667.3705
 269  733.968
 270  780.9168
 271  862.3865
 272  847.9142
 273  765.5739
 274  711.4083
 275  603.3822
 276  762.7794
 277  830.3063
 278  929.9212
 279  976.0436
 280  833.439
 281  899.1127
 282  803.831
 283  802.8227
 284  759.8441
 285  746.8859
 286  789.4786
 287  802.0197
 288  878.0601
 289  1147.968
 290  1156.007
 291  1060.938
 292  854.4985
 293  813.2191
 294  832.655
 295  772.0205
 296  771.3185
 297  675.5746
 298  627.7741
 299  468.8628
 300  337.2918
 301  446.4389
 302  478.2521
 303  555.692
 304  768.6512
 305  903.2231
 306  930.0413
 307  875.7084
 308  887.5615
 309  934.6111
 310  809.9942
 311  850.3471
 312  781.3965
 313  710.6786
 314  699.392
 315  650.3978
 316  696.8391
 317  673.9094
 318  657.5846
 319  660.0683
 320  648.0036
 321  812.6205
 322  1066.131
 323  1099.953
 324  1153.658
 325  1047.807
 326  923.4214
 327  656.0635
 328  624.3854
 329  866.1876
 330  889.6971
 331  773.2697
 332  616.2233
 333  450.8959
 334  523.8831
 335  502.6062
 336  668.5433
 337  670.7783
 338  676.6227
 339  852.9051
 340  842.4192
 341  813.1346
 342  828.5643
 343  913.1741
 344  1072.909
 345  924.9841
 346  965.2334
 347  926.4393
 348  899.7056
 349  847.8013
 350  695.4929
 351  743.6783
 352  820.4097
 353  868.0646
 354  984.1912
 355  987.5004
 356  991.2803
 357  989.4277
 358  803.2746
 359  802.9258
 360  752.5375
 361  899.6789
 362  835.9813
 363  835.164
 364  690.1487
 365  517.205
 366  582.2224
 367  644.2532
 368  614.1651
 369  482.5225
 370  459.5844
 371  465.4132
 372  605.3546
 373  736.7222
 374  964.5134
 375  831.6868
 376  695.3708
 377  744.1838
 378  785.0031
 379  794.7537
 380  655.7838
 381  803.8155
 382  887.4364
 383  779.4528
 384  727.3317
 385  731.7664
 386  770.5193
 387  875.0596
 388  833.0153
 389  939.5756
 390  855.7001
 391  834.6183
 392  857.9606
 393  818.5201
 394  763.5156
 395  613.4133
 396  707.2153
 397  808.3875
 398  830.1782
 399  721.8032
 400  502.7968
 401  530.6184
 402  586.8476
 403  652.4421
 404  718.9253
 405  781.2065
 406  1015.998
 407  973.4543
 408  829.2523
 409  813.0245
 410  931.3985
 411  1014.95
 412  979.7196
 413  934.9473
 414  984.5106
 415  872.4525
 416  893.0775
 417  873.1427
 418  762.8244
 419  832.82
 420  896.6353
 421  948.9705
 422  1013.632
 423  1016.97
 424  1060.352
 425  852.2548
 426  819.3254
 427  886.2949
 428  846.5433
 429  851.1044
 430  691.3062
 431  847.7672
 432  840.3951
 433  845.8381
 434  811.7648
 435  785.5962
 436  738.5343
 437  860.1116
 438  817.0242
 439  863.4683
 440  671.1355
 441  630.4357
 442  560.7542
 443  581.1751
 444  727.4622
 445  753.8698
 446  822.7658
 447  872.1718
 448  845.6238
 449  837.6769
 450  691.2669
 451  703.9756
 452  905.0294
 453  826.9433
 454  890.9058
 455  735.6371
 456  776.2064
 457  739.7873
 458  566.2563
 459  629.0605
 460  666.8824
 461  760.2615
 462  777.2109
 463  605.9298
 464  571.5902
 465  468.5285
 466  543.8705
 467  594.4324
 468  652.5556
 469  824.589
 470  829.5275
 471  859.2745
 472  887.189
 473  935.8491
 474  1015.956
 475  914.8053
 476  775.775
 477  799.5986
 478  770.3812
 479  885.4576
 480  650.9554
 481  516.7854
 482  526.083
 483  575.5352
 484  679.0153
 485  757.7062
 486  675.8056
 487  852.7424
 488  789.4849
 489  994.5658
 490  1064.43
 491  984.5412
 492  888.1089
 493  716.1379
 494  886.2124
 495  735.1939
 496  706.1241
 497  494.1075
 498  379.6516
 499  370.0169
 500  417.7253
 501  467.787
 502  666.9404
 503  837.5834
 504  960.4932
 505  877.9368
 506  701.8116
 507  772.7272
 508  788.8791
 509  830.4702
 510  796.0754
 511  713.5881
 512  719.8024
 513  444.0429
 514  557.3762
 515  652.2736
 516  837.9415
 517  809.7083
 518  703.0002
 519  719.381
 520  871.2899
 521  951.5435
 522  983.5835
 523  689.2286
 524  569.2829
 525  640.281
 526  692.5715
 527  799.3572
 528  754.2921
 529  778.9909
 530  546.962
 531  489.9875
 532  535.9599
 533  692.1534
 534  708.4879
 535  718.2855
 536  590.8614
 537  740.7492
 538  796.5635
 539  1035.397
 540  829.5477
 541  689.2212
 542  745.3154
 543  914.8445
 544  959.7177
 545  847.4505
 546  849.9394
 547  986.2734
 548  746.6479
 549  644.7439
 550  783.6409
 551  792.4059
 552  767.2694
 553  646.6617
 554  858.5406
 555  941.2961
 556  987.9423
 557  1061.813
 558  1035.707
 559  984.8511
 560  870.4362
 561  830.5723
 562  836.5328
 563  750.0469
 564  735.6942
 565  488.8552
 566  501.8196
 567  597.0144
 568  752.0814
 569  762.2815
 570  791.1605
 571  766.5574
 572  942.4906
 573  903.6967
 574  986.3131
 575  940.217
 576  1056.702
 577  1139.845
 578  1107.868
 579  998.967
 580  813.3513
 581  662.3948
 582  746.7783
 583  666.8242
 584  782.7615
 585  988.4866
 586  1117.075
 587  1177.871
 588  898.5282
 589  858.982
 590  824.3062
 591  711.6336
 592  821.6292
 593  758.288
 594  908.4813
 595  860.5869
 596  856.6834
 597  824.8585
 598  760.8416
 599  870.8708
 600  930.6002
 601  807.9518
 602  853.3394
 603  874.1613
 604  933.3033
 605  875.2396
 606  927.2357
 607  1020.406
 608  951.6544
 609  932.9541
 610  1031.254
 611  1018.32
 612  1240.13
 613  1244.91
 614  1454.253
 615  1510.291
 616  1503.024
 617  1712.027
 618  1583.502
 619  1552.888
 620  1465.9
 621  1232.495
 622  1175.554
 623  833.9418
 624  716.5051
 625  617.7145
 626  581.4385
 627  694.3198
 628  554.1183
 629  564.6877
 630  419.5704
 631  444.9885
 632  525.5427
 633  577.7655
 634  677.5679
 635  788.1906
 636  873.2672
 637  994.1031
 638  856.2697
 639  819.2224
 640  853.6362
 641  814.934
 642  777.8853
 643  601.7488
 644  599.0239
 645  645.8301
 646  528.4225
 647  716.3224
 648  649.2123
 649  709.7968
 650  651.5153
 651  605.6187
 652  667.3035
 653  746.7877
 654  799.0062
 655  887.7001
 656  742.537
 657  769.5787
 658  743.5356
 659  761.3531
 660  703.4991
 661  535.7214
 662  603.5671
 663  591.3416
 664  581.3527
 665  503.0605
 666  487.5452
 667  602.5768
 668  717.6613
 669  740.0416
 670  842.2013
 671  740.9404
 672  777.285
 673  684.1593
 674  594.5482
 675  548.9832
 676  617.3823
 677  793.7974
 678  826.0999
 679  893.1108
 680  936.3438
 681  800.9762
 682  807.4497
 683  889.9706
 684  869.8176
 685  1005.635
 686  863.4002
 687  873.0148
 688  738.9684
 689  618.427
 690  556.9413
 691  451.5686
 692  640.833
 693  810.7715
 694  727.9698
 695  547.5567
 696  381.8126
 697  558.157
 698  619.283
 699  623.045
 700  616.6584
 701  522.1791
 702  714.2046
 703  733.7179
 704  738.8047
 705  727.9665
 706  690.7108
 707  830.6025
 708  857.5693
 709  792.8016
 710  808.8245
 711  828.14
 712  1001.596
 713  899.5793
 714  798.7191
 715  754.0071
 716  690.8328
 717  818.3445
 718  972.5661
 719  945.1688
 720  869.5085
 721  739.5778
 722  820.679
 723  761.8723
 724  668.5013
 725  634.8729
 726  605.6085
 727  597.9711
 728  583.5054
 729  529.2296
 730  561.5627
 731  487.2339
 732  642.6042
 733  739.9643
 734  738.85
 735  880.7072
 736  843.7693
 737  1121.824
 738  1066.468
 739  1023.989
 740  883.2768
 741  803.8911
 742  917.8997
 743  898.5358
 744  783.7134
 745  620.3635
 746  540.1584
 747  590.8765
 748  645.2452
 749  803.6496
 750  1040.409
 751  988.9048
 752  931.8132
 753  774.8925
 754  713.0647
 755  823.9636
 756  825.98
 757  921.6014
 758  752.9492
 759  637.3843
 760  594.0153
 761  430.4406
 762  469.1852
 763  431.4926
 764  513.5656
 765  603.1818
 766  747.6224
 767  873.0473
 768  859.3252
 769  582.7574
 770  822.4102
 771  809.3323
 772  902.886
 773  713.8422
 774  705.7131
 775  769.6995
 776  757.6845
 777  794.818
 778  719.8289
 779  489.1246
 780  539.2535
 781  676.8638
 782  840.2756
 783  911.2879
 784  863.3037
 785  984.1245
 786  845.325
 787  868.9396
 788  866.5654
 789  752.2987
 790  676.55
 791  667.3438
 792  732.6021
 793  570.106
 794  350.7207
 795  295.3333
 796  254.9909
 797  334.8506
 798  415.654
 799  501.8442
 800  695.3555
 801  795.1757
 802  893.6448
 803  916.5782
 804  860.5729
 805  861.3171
 806  724.3368
 807  742.2087
 808  825.749
 809  849.7131
 810  807.0693
 811  636.7529
 812  685.0562
 813  741.7697
 814  619.1382
 815  513.2606
 816  522.4523
 817  728.8012
 818  888.2249
 819  757.5613
 820  798.2477
 821  615.8626
 822  575.6746
 823  596.9455
 824  678.1027
 825  827.0724
 826  706.2753
 827  693.0818
 828  565.6031
 829  494.643
 830  518.0311
 831  526.0619
 832  617.7299
 833  580.4926
 834  570.3156
 835  674.9834
 836  690.3017
 837  640.7848
 838  604.4095
 839  651.2435
 840  740.0908
 841  762.9702
 842  813.8638
 843  796.4445
 844  661.1284
 845  678.8049
 846  527.9518
 847  643.9462
 848  646.8632
 849  738.7155
 850  916.4056
 851  987.3752
 852  886.4744
 853  898.3056
 854  802.7827
 855  863.1957
 856  651.9102
 857  661.3475
 858  588.3792
 859  597.6306
 860  624.1342
 861  641.8313
 862  622.4185
 863  555.4024
 864  488.88
 865  626.6795
 866  652.0148
 867  619.7166
 868  674.6394
 869  689.9031
 870  899.7931
 871  839.6248
 872  936.9293
 873  878.981
 874  859.9409
 875  801.6553
 876  846.9416
 877  757.5385
 878  734.9835
 879  643.4546
 880  875.2385
 881  850.0778
 882  921.7836
 883  943.0458
 884  875.4061
 885  992.8132
 886  870.579
 887  840.3889
 888  628.0479
 889  535.8705
 890  631.5903
 891  683.1516
 892  766.4524
 893  695.4459
 894  605.0499
 895  594.3779
 896  632.967
 897  805.2484
 898  671.0379
 899  602.3797
 900  684.6412
 901  814.1262
 902  695.8459
 903  679.8409
 904  633.9335
 905  737.8373
 906  633.0452
 907  709.4883
 908  811.8579
 909  756.9898
 910  797.7572
 911  731.62
 912  737.636
 913  728.6301
 914  729.8651
 915  998.9582
 916  1038.511
 917  964.8852
 918  1029.305
 919  807.2364
 920  703.4101
 921  605.9214
 922  690.1918
 923  686.0083
 924  584.0397
 925  645.9868
 926  665.5039
 927  583.5658
 928  521.648
 929  545.1909
 930  503.5585
 931  459.3467
 932  471.4365
 933  835.6037
 934  905.0981
 935  1078.814
 936  907.2459
 937  718.0788
 938  687.9537
 939  704.9565
 940  941.1241
 941  869.9715
 942  830.5362
 943  727.9339
 944  603.0307
 945  639.5331
 946  622.7874
 947  719.8779
 948  772.1001
 949  940.7779
 950  1097.145
 951  1032.615
 952  790.3439
 953  750.8922
 954  768.3165
 955  828.7892
 956  704.538
 957  621.7155
 958  550.0789
 959  473.8365
 960  447.5381
 961  451.4525
 962  502.3893
 963  607.7283
 964  650.9513
 965  764.0884
 966  740.0329
 967  763.5065
 968  819.5115
 969  739.0958
 970  758.5345
 971  684.0054
 972  723.1568
 973  530.9374
 974  445.7321
 975  520.7441
 976  716.8836
 977  800.5952
 978  844.9304
 979  836.1355
 980  923.2979
 981  959.8764
 982  924.757
 983  1026.871
 984  961.2712
 985  905.885
 986  747.8604
 987  753.8237
 988  755.6327
 989  660.4555
 990  547.8519
 991  575.6755
 992  622.4042
 993  565.9525
 994  561.178
 995  684.3718
 996  684.6538
 997  571.2098
 998  644.0044
 999  795.8176
1000  839.6647
1001  942.7534
1002  981.3434
1003  1046.985
1004  671.8137
1005  673.241
1006  707.665
1007  758.3008
1008  751.6588
1009  768.2935
1010  812.3568
1011  708.9095
1012  730.4999
1013  832.7408
1014  696.6667
1015  713.6942
1016  746.0337
1017  820
1018  823.3412
1019  726.8143
1020  841.5509
1021  806.1996
1022  909.6242
1023  844.1136
