# Input file       =  1200772773.113199_cleaned.dat
# Candidate        =  PSR_0332+5434
# Telescope        =  AR
# Epoch_topo       =  58141.833242050918
# Epoch_bary       =  N/A
# T_sample         =  0.002
# Data Folded      =  7340032
# Data Avg         =  0.531539587809156
# Data StdDev      =  6.9747992828413  
# Profile Bins     =  512
# Profile Avg      =  7620.13186496737 
# Profile StdDev   =  835.11389625308  
# Reduced chi-sqr  =  0.598
# Prob(Noise)      <  1   (~0.0 sigma)
# P_topo (ms)      =  714.572349267451  +/- 2.85e-05
# P'_topo (s/s)    =  -0                +/- 1.5e-11
# P''_topo (s/s^2) =  0                 +/- 6.64e-15
# P_bary (ms)      =  N/A
# P'_bary (s/s)    =  N/A
# P''_bary (s/s^2) =  N/A
# P_orb (s)        =  N/A
# asin(i)/c (s)    =  N/A
# eccentricity     =  N/A
# w (rad)          =  N/A
# T_peri           =  N/A
######################################################
   0  8001.741
   1  7790.091
   2  7515.791
   3  7714.444
   4  8187.087
   5  7854.945
   6  7628.429
   7  7607.431
   8  6840.024
   9  6910.982
  10  7179.443
  11  7587.915
  12  7205.218
  13  6771.554
  14  7147.323
  15  7160.658
  16  7202.062
  17  7456.554
  18  7270.497
  19  7411.254
  20  7090.282
  21  7294.12
  22  7738.851
  23  7023.144
  24  7320.496
  25  6949.544
  26  7275.985
  27  6964.135
  28  7709.61
  29  7704.371
  30  7710.284
  31  7565.43
  32  7584.748
  33  7658.97
  34  7248.037
  35  7836.235
  36  8155.674
  37  8153.215
  38  7276.9
  39  7505.867
  40  8403.319
  41  7609.5
  42  7427.677
  43  8026.558
  44  7880.448
  45  7183.662
  46  7389.87
  47  7589.317
  48  7423.194
  49  7210.233
  50  7731.788
  51  7170.58
  52  6476.498
  53  7179.072
  54  7909.209
  55  7720.819
  56  7275.033
  57  7767.878
  58  7904.041
  59  6905.716
  60  7252.126
  61  7128.547
  62  7062.357
  63  6385.688
  64  7306.235
  65  7592.793
  66  7434.376
  67  7589.527
  68  7788.473
  69  8049.839
  70  7478.912
  71  7675.146
  72  7666.435
  73  8002.387
  74  7927.104
  75  7762.688
  76  7784.243
  77  7779.514
  78  7472.986
  79  7252.303
  80  6950.933
  81  6767.255
  82  7928.663
  83  8168.947
  84  7023.334
  85  7660.981
  86  7668.166
  87  7291.7
  88  6809.662
  89  6694.756
  90  6754.883
  91  6611.445
  92  7369.683
  93  7523.261
  94  7009.831
  95  6981.305
  96  6916.061
  97  7518.775
  98  6833.277
  99  6809.246
 100  7353.95
 101  7795.354
 102  7192.928
 103  7382.046
 104  7937.917
 105  7993.261
 106  7485.022
 107  7806.371
 108  7381.913
 109  6608.75
 110  7019.581
 111  7575.579
 112  7749.456
 113  6663.1
 114  7181.509
 115  7821.717
 116  7343.105
 117  7674.026
 118  7995.365
 119  7927.011
 120  7609.815
 121  7953.823
 122  8008.521
 123  7279.272
 124  6722.971
 125  7079.633
 126  7805.165
 127  7200.945
 128  7316.344
 129  7546.814
 130  7427.586
 131  7759.444
 132  7982.951
 133  8074.845
 134  7891.567
 135  8003.543
 136  7693.133
 137  7487.4
 138  7151.128
 139  7368.633
 140  7385.203
 141  6814.308
 142  7179.956
 143  8171.791
 144  8388.348
 145  7739.431
 146  7765.15
 147  7947.364
 148  8588.245
 149  8826.277
 150  9630.745
 151  9533.004
 152  8850.948
 153  8657.79
 154  8070.925
 155  7756.807
 156  7782
 157  8040.914
 158  8489.025
 159  7594.341
 160  8001.321
 161  8022.986
 162  7843.483
 163  7466.058
 164  7826.817
 165  7663.511
 166  7133.478
 167  7641.602
 168  7787.383
 169  7995.463
 170  7670.334
 171  7735.322
 172  7764.628
 173  7549.774
 174  7424.751
 175  7698.202
 176  7438.76
 177  7375.751
 178  7346.105
 179  7566.777
 180  7928.062
 181  7194.042
 182  7717.896
 183  7931.409
 184  7403.818
 185  7966.65
 186  8361.037
 187  7894.803
 188  7857.579
 189  7850.611
 190  7058.124
 191  7403.224
 192  7545.371
 193  8292.465
 194  7561.08
 195  7298.474
 196  7551.506
 197  7940.522
 198  8368.356
 199  7638.103
 200  7536.229
 201  7844.539
 202  7114.009
 203  6852.389
 204  7852.507
 205  8155.534
 206  7556.398
 207  7729.832
 208  8208.314
 209  7833.882
 210  7359.146
 211  7655.948
 212  8210.025
 213  8198.108
 214  8032.496
 215  8436.224
 216  8414.36
 217  7861.893
 218  7966.301
 219  7786.347
 220  7169.363
 221  7359.634
 222  7723.892
 223  7635.236
 224  6985.062
 225  7083.826
 226  7915.082
 227  7688.271
 228  7668.335
 229  7757.985
 230  8217.95
 231  7627.106
 232  6897.854
 233  7460.362
 234  7507.556
 235  7400.646
 236  8758.387
 237  8367.142
 238  6992.062
 239  7015.842
 240  7498.747
 241  7090.668
 242  7330.823
 243  7837.896
 244  8895.158
 245  7993.474
 246  7848.259
 247  8257.896
 248  8285.415
 249  8102.276
 250  8035.768
 251  8606.069
 252  8433.921
 253  7988.848
 254  8257.785
 255  7617.875
 256  6640.836
 257  7329.065
 258  7747.557
 259  7696.333
 260  7596.532
 261  8601.679
 262  8773.773
 263  8245.953
 264  7912.915
 265  7932.112
 266  7973.694
 267  7422.935
 268  7607.896
 269  8212.664
 270  7658.952
 271  7989.773
 272  8555.994
 273  7873.949
 274  7181.643
 275  7626.803
 276  7542.323
 277  7530.182
 278  7066.23
 279  7465.004
 280  7436.665
 281  7027.023
 282  7248.361
 283  7365.281
 284  7810.707
 285  7236.396
 286  7393.969
 287  7466.248
 288  7455.476
 289  7478.687
 290  7538.178
 291  7844.947
 292  7358.151
 293  8041.866
 294  8023.543
 295  6847.283
 296  7168.7
 297  7349.329
 298  7229.195
 299  6986.409
 300  7525.165
 301  7615.411
 302  7527.297
 303  7454.807
 304  7938.705
 305  7883.04
 306  7329.924
 307  7419.508
 308  7424.894
 309  7329.673
 310  7048.775
 311  7375.712
 312  7844.63
 313  7212.41
 314  6894.007
 315  7374.257
 316  7655.617
 317  7048.875
 318  7892.428
 319  7807.723
 320  7134.932
 321  7291.488
 322  7194.954
 323  7755.53
 324  6880.702
 325  6813.48
 326  7179.51
 327  7774.088
 328  7543.725
 329  7427.19
 330  7568.548
 331  7162.02
 332  7764.034
 333  8358.059
 334  8262.649
 335  7507.666
 336  7494.301
 337  7367.506
 338  6849.137
 339  6945.707
 340  7720.441
 341  7776.805
 342  7236.876
 343  7136.776
 344  7215.863
 345  7663.707
 346  7522.783
 347  8429.147
 348  8213.636
 349  7369.875
 350  7802.166
 351  7568.013
 352  6961.265
 353  6629.875
 354  7665.894
 355  8414.203
 356  7582.933
 357  7826.966
 358  7558.972
 359  7677.903
 360  7357.389
 361  7443.446
 362  7832.204
 363  7514.295
 364  7304.723
 365  7311.505
 366  7621.772
 367  7202.229
 368  7364.884
 369  7403.319
 370  7475.472
 371  8037.49
 372  7816.159
 373  8317.58
 374  7844.585
 375  7181.402
 376  7421.413
 377  7202.592
 378  6837.827
 379  7198.297
 380  6987.994
 381  6440.247
 382  6220.811
 383  6992.455
 384  7175.239
 385  7482.624
 386  7818.407
 387  7788.761
 388  7867.274
 389  8005.209
 390  7985.766
 391  7330.151
 392  7313.633
 393  7604.75
 394  7956.224
 395  8087.332
 396  7780.201
 397  8265.187
 398  8856.803
 399  8326.576
 400  7985.144
 401  7884.928
 402  8257.909
 403  8044.124
 404  8445.78
 405  8388.803
 406  7821.893
 407  7619.257
 408  7940.948
 409  7872.674
 410  6856.689
 411  7333.397
 412  7629.922
 413  7556.599
 414  7552.977
 415  7923.289
 416  8460.624
 417  7772.37
 418  8128.911
 419  8729.441
 420  8617.226
 421  7502.532
 422  7460.156
 423  7590.505
 424  6958.194
 425  7073.424
 426  7685.897
 427  7189.53
 428  6958.978
 429  7632.953
 430  8236.885
 431  7199.464
 432  7698.276
 433  8206.521
 434  8407.913
 435  7581.111
 436  8159.63
 437  8076.866
 438  7758.968
 439  7510.987
 440  8144.057
 441  8640.774
 442  7442.025
 443  7449.751
 444  7990.217
 445  8499.77
 446  7866.086
 447  7926.068
 448  7977.542
 449  7447.626
 450  7350.693
 451  7936.208
 452  7531.516
 453  7705.351
 454  8248.259
 455  8611.295
 456  7595.945
 457  7515.363
 458  7774.316
 459  7963.685
 460  7515.965
 461  8158.025
 462  8669.021
 463  7736.571
 464  6667.641
 465  6984.167
 466  6817.702
 467  6513.325
 468  7222.877
 469  7909.496
 470  8021.18
 471  7798.172
 472  7399.987
 473  7808.742
 474  7814.964
 475  7592.605
 476  7598.24
 477  7583.271
 478  7179.11
 479  7556.089
 480  7881.218
 481  7667.714
 482  7477.126
 483  8061.237
 484  7924.497
 485  7486.648
 486  7713.548
 487  7488.141
 488  8138.93
 489  7901.038
 490  7960.792
 491  7908.687
 492  7099.083
 493  7389.036
 494  7912.833
 495  7968.896
 496  7561.412
 497  7661.31
 498  8228.79
 499  7638.321
 500  7116.024
 501  7729.666
 502  7911.655
 503  7118.505
 504  7359.752
 505  7661.073
 506  7413.583
 507  7678.612
 508  7439.158
 509  7747.229
 510  7364.138
 511  7531.598
