# Input file       =  1200169617.116321_cleaned.dat
# Candidate        =  PSR_0332+5434
# Telescope        =  AR
# Epoch_topo       =  58134.852269864830
# Epoch_bary       =  N/A
# T_sample         =  0.002
# Data Folded      =  7340032
# Data Avg         =  0.10184630640423 
# Data StdDev      =  1.00032025536832 
# Profile Bins     =  512
# Profile Avg      =  1459.9056185938  
# Profile StdDev   =  119.771381524432 
# Reduced chi-sqr  =  0.950
# Prob(Noise)      <  0.786   (~0.0 sigma)
# P_topo (ms)      =  714.568152778538  +/- 0.000115
# P'_topo (s/s)    =  -0                +/- 6.04e-11
# P''_topo (s/s^2) =  0                 +/- 2.67e-14
# P_bary (ms)      =  N/A
# P'_bary (s/s)    =  N/A
# P''_bary (s/s^2) =  N/A
# P_orb (s)        =  N/A
# asin(i)/c (s)    =  N/A
# eccentricity     =  N/A
# w (rad)          =  N/A
# T_peri           =  N/A
######################################################
   0  1995.447
   1  1882.065
   2  1750.808
   3  1598.271
   4  1450.52
   5  1341.168
   6  1422.07
   7  1519.012
   8  1511.72
   9  1412.17
  10  1396.679
  11  1403.289
  12  1426.835
  13  1533.437
  14  1477.036
  15  1446.377
  16  1619.008
  17  1474.969
  18  1395.195
  19  1422.204
  20  1498.941
  21  1454.014
  22  1505.489
  23  1524.246
  24  1532.394
  25  1512.051
  26  1440.997
  27  1563.922
  28  1567.103
  29  1637.251
  30  1633.811
  31  1572.056
  32  1452.3
  33  1509.575
  34  1567.713
  35  1493.417
  36  1513.525
  37  1585.279
  38  1468.749
  39  1436.675
  40  1436.878
  41  1401.995
  42  1405.873
  43  1480.186
  44  1512.316
  45  1482.422
  46  1414.433
  47  1356.247
  48  1472.179
  49  1561.259
  50  1471.62
  51  1474.917
  52  1455.883
  53  1420.953
  54  1498.495
  55  1578.139
  56  1581.642
  57  1604.076
  58  1489.01
  59  1366.7
  60  1370.385
  61  1385.423
  62  1314.527
  63  1333.818
  64  1412.595
  65  1446.648
  66  1503.601
  67  1484.594
  68  1330.438
  69  1331.921
  70  1315.219
  71  1358.132
  72  1432.371
  73  1485.422
  74  1405.351
  75  1352.737
  76  1346.385
  77  1401.091
  78  1408.431
  79  1374.182
  80  1401.746
  81  1401.114
  82  1437.081
  83  1361.552
  84  1388.627
  85  1466.669
  86  1442.08
  87  1374.844
  88  1439.052
  89  1485.372
  90  1426.8
  91  1303.659
  92  1297.261
  93  1387.419
  94  1362.379
  95  1451.468
  96  1533.376
  97  1497.275
  98  1507.064
  99  1405.726
 100  1324.202
 101  1436.993
 102  1491.181
 103  1588.782
 104  1535.807
 105  1408.841
 106  1328.958
 107  1361.863
 108  1318.867
 109  1402.34
 110  1511.122
 111  1505.892
 112  1476.465
 113  1398.956
 114  1424.038
 115  1497.677
 116  1536.414
 117  1545.677
 118  1461.358
 119  1415.736
 120  1516.161
 121  1465.95
 122  1330.576
 123  1337.519
 124  1381.99
 125  1443.723
 126  1555.907
 127  1478.804
 128  1462.589
 129  1443.891
 130  1380.438
 131  1466.764
 132  1403.444
 133  1464.057
 134  1523.089
 135  1485.488
 136  1369.105
 137  1383.613
 138  1514.584
 139  1404.694
 140  1399.857
 141  1422.677
 142  1429.916
 143  1455.93
 144  1535.893
 145  1461.836
 146  1307.784
 147  1373.577
 148  1433.036
 149  1402.877
 150  1463.39
 151  1389.224
 152  1500.944
 153  1495.913
 154  1432.754
 155  1373.985
 156  1302.625
 157  1359.669
 158  1460.331
 159  1567.229
 160  1519.923
 161  1460.637
 162  1480.683
 163  1436.58
 164  1420.977
 165  1536.665
 166  1428.579
 167  1328.326
 168  1377.319
 169  1493.85
 170  1460.759
 171  1376.509
 172  1353.016
 173  1378.302
 174  1453.105
 175  1445.408
 176  1308.745
 177  1258.582
 178  1487.985
 179  1524.194
 180  1437.023
 181  1432.946
 182  1510.636
 183  1420.868
 184  1532.078
 185  1574.09
 186  1524.297
 187  1514.812
 188  1537.427
 189  1477.836
 190  1327.976
 191  1403.588
 192  1455.297
 193  1423.959
 194  1425.59
 195  1408.66
 196  1342.986
 197  1442.879
 198  1401.153
 199  1293.177
 200  1307.355
 201  1383.515
 202  1444.907
 203  1465.682
 204  1305.94
 205  1280.417
 206  1333.688
 207  1521.681
 208  1473.696
 209  1299.649
 210  1386.64
 211  1456.348
 212  1413.128
 213  1287.941
 214  1358.669
 215  1418.361
 216  1447.292
 217  1446.02
 218  1335.405
 219  1326.062
 220  1375.753
 221  1484.852
 222  1440.646
 223  1304.162
 224  1381.408
 225  1457.73
 226  1453.548
 227  1501.646
 228  1528.498
 229  1444.293
 230  1407.777
 231  1463.465
 232  1512.141
 233  1446.578
 234  1493.474
 235  1514.946
 236  1469.211
 237  1386.32
 238  1395.007
 239  1489.563
 240  1532.241
 241  1545.793
 242  1512.004
 243  1510.825
 244  1561.842
 245  1516.462
 246  1522.731
 247  1335.756
 248  1310.771
 249  1430.929
 250  1541.91
 251  1504.59
 252  1394.24
 253  1396.528
 254  1395.844
 255  1463.994
 256  1389.677
 257  1374.789
 258  1421.538
 259  1317.133
 260  1280.188
 261  1444.157
 262  1466.55
 263  1393.693
 264  1416.033
 265  1452.428
 266  1424.861
 267  1304.773
 268  1415.859
 269  1476.524
 270  1437.528
 271  1417.07
 272  1418.092
 273  1476.656
 274  1434.893
 275  1397.92
 276  1435.404
 277  1447.099
 278  1424.016
 279  1473.828
 280  1364.358
 281  1396.843
 282  1447.932
 283  1412.406
 284  1470.8
 285  1429.005
 286  1394.924
 287  1415.466
 288  1409.503
 289  1423.142
 290  1450.799
 291  1391.014
 292  1453.576
 293  1534.041
 294  1462.601
 295  1538.572
 296  1656.734
 297  1616.582
 298  1418.75
 299  1363.331
 300  1332.111
 301  1306.884
 302  1501.12
 303  1433.201
 304  1451.201
 305  1509.818
 306  1528.514
 307  1376.107
 308  1283.303
 309  1409.901
 310  1439.332
 311  1445.346
 312  1502.41
 313  1456.502
 314  1371.804
 315  1421.025
 316  1520.456
 317  1485.125
 318  1483.358
 319  1529.544
 320  1550.001
 321  1482.748
 322  1518.132
 323  1525.232
 324  1462.097
 325  1455.312
 326  1390.714
 327  1483.743
 328  1430.156
 329  1419.507
 330  1361.356
 331  1473.14
 332  1555.578
 333  1429.261
 334  1428.459
 335  1363.915
 336  1408.954
 337  1428.742
 338  1539.914
 339  1521.276
 340  1462.265
 341  1421.408
 342  1519.767
 343  1527.323
 344  1410.867
 345  1502.771
 346  1628.27
 347  1526.941
 348  1361.587
 349  1367.576
 350  1471.052
 351  1432.472
 352  1302.805
 353  1433.96
 354  1499.434
 355  1417.506
 356  1531.573
 357  1543.526
 358  1411.831
 359  1455.166
 360  1626.885
 361  1501.608
 362  1500.488
 363  1452.221
 364  1490.676
 365  1478.079
 366  1434.115
 367  1528.905
 368  1548.514
 369  1460.073
 370  1472.345
 371  1422.52
 372  1387.676
 373  1280.494
 374  1356.033
 375  1417.904
 376  1448.557
 377  1392.485
 378  1469.535
 379  1468.175
 380  1414.878
 381  1461.133
 382  1430.163
 383  1493.383
 384  1497.106
 385  1563.923
 386  1571.271
 387  1503.466
 388  1396.019
 389  1442.438
 390  1445.685
 391  1372.431
 392  1418.99
 393  1552.291
 394  1533.479
 395  1612.463
 396  1548.53
 397  1486.74
 398  1522.938
 399  1509.917
 400  1555.888
 401  1462.125
 402  1558.728
 403  1521.479
 404  1416.089
 405  1383.963
 406  1468.121
 407  1549.856
 408  1549.126
 409  1511.044
 410  1433.113
 411  1389.862
 412  1406.302
 413  1493.916
 414  1477.09
 415  1479.749
 416  1477.568
 417  1550.247
 418  1603.717
 419  1500.495
 420  1517.506
 421  1677.771
 422  1606.215
 423  1520.276
 424  1415.447
 425  1422.831
 426  1528.15
 427  1618.223
 428  1618.497
 429  1541.887
 430  1474.591
 431  1541.587
 432  1640.843
 433  1591.027
 434  1512.201
 435  1396.667
 436  1441.429
 437  1529.314
 438  1437.865
 439  1505.038
 440  1479.257
 441  1486.519
 442  1536.45
 443  1565.524
 444  1404.576
 445  1415.226
 446  1459.706
 447  1468.255
 448  1336.099
 449  1320.529
 450  1475.666
 451  1503.874
 452  1513.408
 453  1491.428
 454  1478.622
 455  1435.886
 456  1455.898
 457  1405.956
 458  1419.464
 459  1469.857
 460  1442.427
 461  1361.576
 462  1310.785
 463  1480.217
 464  1484.383
 465  1538.277
 466  1530.945
 467  1404.136
 468  1423.427
 469  1504.293
 470  1485.165
 471  1555.365
 472  1525.619
 473  1531.775
 474  1554.281
 475  1510.259
 476  1547.27
 477  1453.258
 478  1504.302
 479  1548.77
 480  1564.883
 481  1549.381
 482  1586.777
 483  1522.464
 484  1378.14
 485  1415.454
 486  1430.856
 487  1506.616
 488  1519.517
 489  1428.09
 490  1388.697
 491  1389.198
 492  1461.348
 493  1492.035
 494  1493.965
 495  1520.827
 496  1593.212
 497  1454.968
 498  1390.806
 499  1414.716
 500  1478.432
 501  1565.609
 502  1648.775
 503  1573.045
 504  1520.673
 505  1534.484
 506  1543.783
 507  1614.647
 508  1590.533
 509  1618.329
 510  1700.501
 511  1820.176
