# Input file       =  1200413215.099894_cleaned.dat
# Candidate        =  PSR_0332+5434
# Telescope        =  AR
# Epoch_topo       =  58137.671690970994
# Epoch_bary       =  N/A
# T_sample         =  0.002
# Data Folded      =  7340032
# Data Avg         =  0.0851443845354617
# Data StdDev      =  3.11565562894382 
# Profile Bins     =  512
# Profile Avg      =  1220.86212971719 
# Profile StdDev   =  373.046908757806 
# Reduced chi-sqr  =  0.794
# Prob(Noise)      <  1   (~0.0 sigma)
# P_topo (ms)      =  714.569608218144  +/- 0.000621
# P'_topo (s/s)    =  -0                +/- 3.28e-10
# P''_topo (s/s^2) =  0                 +/- 1.45e-13
# P_bary (ms)      =  N/A
# P'_bary (s/s)    =  N/A
# P''_bary (s/s^2) =  N/A
# P_orb (s)        =  N/A
# asin(i)/c (s)    =  N/A
# eccentricity     =  N/A
# w (rad)          =  N/A
# T_peri           =  N/A
######################################################
   0  1122.354
   1  1116.948
   2  974.2689
   3  1023.993
   4  1159.698
   5  1214.651
   6  1013.886
   7  1271.24
   8  1200.748
   9  902.9453
  10  881.5974
  11  1080.85
  12  1121.967
  13  1025.848
  14  987.6639
  15  948.4565
  16  1076.586
  17  1124.29
  18  970.3754
  19  1233.556
  20  1290.61
  21  1246.638
  22  1161.786
  23  914.1765
  24  869.4462
  25  855.1628
  26  1007.981
  27  992.6075
  28  1034.746
  29  923.5182
  30  916.0581
  31  1108.942
  32  803.1147
  33  870.3906
  34  1398.257
  35  1495.625
  36  1234.496
  37  1177.443
  38  1332.297
  39  1420.202
  40  1429.081
  41  1369.331
  42  1298.531
  43  1371.389
  44  1614.889
  45  1356.661
  46  1254.067
  47  1475.826
  48  1545.949
  49  1323.775
  50  1133.917
  51  1174.365
  52  1258.293
  53  1318.061
  54  1419.376
  55  1421.069
  56  1549.938
  57  1552.381
  58  1524.273
  59  1526.252
  60  1609.359
  61  1412.878
  62  1256.761
  63  1458.148
  64  1498.248
  65  1456.858
  66  1531.298
  67  1383.717
  68  1322.33
  69  1481.281
  70  1279.849
  71  1125.988
  72  956.4149
  73  1045.462
  74  1162.595
  75  1516.813
  76  1438.35
  77  1334.597
  78  1230.546
  79  1252.359
  80  1471.513
  81  1279.806
  82  1244.444
  83  1243.525
  84  1438.828
  85  1208.915
  86  1157.038
  87  995.3119
  88  1275.084
  89  1410.359
  90  1155.573
  91  1161.406
  92  1195.557
  93  1268.617
  94  1519.957
  95  1357.529
  96  1224.412
  97  1189.985
  98  1369.12
  99  1439.521
 100  1554.781
 101  1464.717
 102  1381
 103  1145.623
 104  1168.117
 105  1250.423
 106  1351.858
 107  1673.383
 108  1713.94
 109  1441.529
 110  1513.719
 111  1677.825
 112  1344.914
 113  1096.039
 114  1225.669
 115  1329.435
 116  1428.692
 117  1389.349
 118  903.4568
 119  1085.46
 120  1400.275
 121  1361.003
 122  1436.137
 123  1603.469
 124  1416.313
 125  1229.693
 126  1317.245
 127  1068.864
 128  931.5691
 129  1112.964
 130  1101.401
 131  1018.635
 132  1115.092
 133  1072.822
 134  1118.755
 135  1218.564
 136  1288.527
 137  1423.893
 138  1304.929
 139  1435.158
 140  1499.578
 141  1324.892
 142  1363.821
 143  1368.063
 144  1156.091
 145  1148.342
 146  1176.41
 147  1389.452
 148  1559.745
 149  1385.24
 150  1160.688
 151  1133.252
 152  1028.455
 153  1308.849
 154  1258.893
 155  1424.769
 156  1436.407
 157  1339.934
 158  1111.958
 159  1375.826
 160  1299.25
 161  861.6284
 162  1138.038
 163  1509.961
 164  1477.776
 165  1326.262
 166  1286.122
 167  1226.19
 168  868.1396
 169  881.0476
 170  934.084
 171  1109.059
 172  1310.812
 173  1074.062
 174  1340.021
 175  1350.311
 176  1235.092
 177  1269.031
 178  1123.655
 179  1067.949
 180  1143.365
 181  1506.715
 182  1303.486
 183  885.5476
 184  1155.958
 185  1160.801
 186  1156.538
 187  992.3029
 188  930.6488
 189  1174.62
 190  1330.336
 191  1193.75
 192  998.7755
 193  1005.526
 194  1047.866
 195  1210.849
 196  1175.413
 197  1187.69
 198  1274.282
 199  1252.04
 200  1280.449
 201  1217.023
 202  1020.257
 203  889.0162
 204  1168.676
 205  1358.774
 206  1140.012
 207  1221.498
 208  1286.623
 209  990.63
 210  1110.192
 211  1094.671
 212  1339.308
 213  1598.232
 214  1345.916
 215  1291.513
 216  1046.339
 217  1011.534
 218  1174.791
 219  1153.382
 220  1159.17
 221  1061.638
 222  1313.082
 223  1141.573
 224  1080.349
 225  1356.506
 226  1346.6
 227  1143.155
 228  1161.947
 229  1365.422
 230  1095.87
 231  1075.188
 232  1317.235
 233  1471.009
 234  1223.723
 235  1339.099
 236  1242.753
 237  1201.203
 238  1404.596
 239  1490.679
 240  1584.631
 241  1130.077
 242  1194.222
 243  998.171
 244  1103.931
 245  994.3494
 246  1266.036
 247  1456.137
 248  1164.464
 249  1110.293
 250  1215.45
 251  969.2446
 252  857.3307
 253  1020.242
 254  1086.583
 255  1109.683
 256  1167.193
 257  1250.003
 258  1371.487
 259  1332.38
 260  1480.434
 261  1352.605
 262  1194.925
 263  1315.232
 264  1518.423
 265  1779.787
 266  1161.383
 267  1012.334
 268  923.7995
 269  1116.818
 270  1114.313
 271  1306.375
 272  1325.463
 273  1317.622
 274  1279.295
 275  1281.731
 276  1125.253
 277  1204.967
 278  1296.244
 279  1269.508
 280  1302.771
 281  1152.464
 282  1252.504
 283  1221.854
 284  1258.051
 285  1254.136
 286  1328.504
 287  1298.207
 288  1152.801
 289  1294.5
 290  1304.133
 291  1275.954
 292  1294.403
 293  1314.608
 294  1413.511
 295  1095.524
 296  1124.478
 297  1760.734
 298  1399.376
 299  1227.645
 300  1289.268
 301  1310.503
 302  1548.032
 303  1453.4
 304  1448.652
 305  1722.504
 306  2396.323
 307  2654.308
 308  2651.531
 309  2515.871
 310  2246.236
 311  1705.166
 312  1578.848
 313  1383.842
 314  1361.306
 315  1303.397
 316  1317.085
 317  1147.541
 318  1309.225
 319  1117.418
 320  1151.855
 321  1417.911
 322  1641.118
 323  1574.912
 324  1521.193
 325  1642.143
 326  1312.88
 327  1080.191
 328  1422.625
 329  1842.536
 330  1651.119
 331  1174.419
 332  1185.989
 333  1247.572
 334  1034.228
 335  857.7766
 336  1100.4
 337  1256.34
 338  1350.986
 339  1529.468
 340  1243.458
 341  1330.753
 342  1233.295
 343  1376.69
 344  1404.479
 345  1434.903
 346  1513.808
 347  1372.753
 348  1344.146
 349  1389.432
 350  1501.469
 351  1421.704
 352  1540.694
 353  1339.306
 354  1447.256
 355  1365.818
 356  1078.267
 357  1186.267
 358  1375.202
 359  1442.189
 360  1275.669
 361  1424.407
 362  1666.915
 363  1379.623
 364  1299.44
 365  1304.614
 366  1190.649
 367  1518.15
 368  1148.643
 369  1300.373
 370  1332.487
 371  1617.95
 372  1450.759
 373  1347.152
 374  1316.965
 375  1267.032
 376  1374.265
 377  1385.04
 378  1157.863
 379  999.7111
 380  1111.037
 381  1075.595
 382  1189.414
 383  1058.413
 384  904.5871
 385  902.7608
 386  818.956
 387  972.8829
 388  1050.568
 389  1197.127
 390  1309.598
 391  1220.038
 392  1028.409
 393  1108.497
 394  1447.584
 395  1382.811
 396  1172.56
 397  1111.309
 398  1137.925
 399  1055.704
 400  1099.233
 401  1107.796
 402  1209.735
 403  1117.172
 404  1251.793
 405  1170.956
 406  1000.309
 407  951.6266
 408  1171.732
 409  1370.806
 410  1426.668
 411  1203.114
 412  973.585
 413  831.7931
 414  1039.702
 415  1048.516
 416  1235.86
 417  1300.335
 418  835.843
 419  844.9952
 420  1124.631
 421  1222.951
 422  1167.674
 423  1116.365
 424  1027.051
 425  1188.924
 426  1330.354
 427  921.7667
 428  1036.957
 429  1050.332
 430  1153.84
 431  861.8604
 432  919.0263
 433  1308.652
 434  849.3664
 435  907.8703
 436  1115.423
 437  1105.59
 438  1146.849
 439  1234.989
 440  1273.021
 441  789.0477
 442  887.6614
 443  1223.179
 444  985.4122
 445  941.3664
 446  1052.066
 447  1304.547
 448  1170.997
 449  898.7747
 450  933.7033
 451  1044.64
 452  1194.786
 453  1203.139
 454  1283.467
 455  942.5138
 456  746.7874
 457  914.1135
 458  1110.061
 459  1019.265
 460  875.1954
 461  909.6901
 462  1002.322
 463  1011.751
 464  1173.468
 465  1368.052
 466  1432.484
 467  1395.028
 468  1370.661
 469  1081.859
 470  1028.782
 471  974.3835
 472  1150.573
 473  1047.264
 474  972.4594
 475  999.4272
 476  934.6494
 477  844.808
 478  859.3598
 479  1020.697
 480  997.2655
 481  953.622
 482  826.8809
 483  665.3898
 484  880.7491
 485  962.2681
 486  628.8516
 487  888.5125
 488  929.8598
 489  866.3113
 490  934.5564
 491  885.5028
 492  990.4944
 493  759.0977
 494  906.8237
 495  854.2152
 496  1082.75
 497  1053.419
 498  1101.592
 499  1120.119
 500  1137.555
 501  863.5781
 502  854.3323
 503  1033.848
 504  1003.862
 505  904.158
 506  792.9922
 507  862.3172
 508  871.2542
 509  1029.203
 510  1230.893
 511  1205.834
