# Input file       =  1200600452.101729_cleaned.dat
# Candidate        =  PSR_0332+5434
# Telescope        =  AR
# Epoch_topo       =  58139.838785899643
# Epoch_bary       =  N/A
# T_sample         =  0.002
# Data Folded      =  7340032
# Data Avg         =  1.00356009849202 
# Data StdDev      =  9.14243285381729 
# Profile Bins     =  1024
# Profile Avg      =  7193.44321986881 
# Profile StdDev   =  774.035318697827 
# Reduced chi-sqr  =  0.510
# Prob(Noise)      <  1   (~0.0 sigma)
# P_topo (ms)      =  714.571232182148  +/- 0.000123
# P'_topo (s/s)    =  -0                +/- 6.48e-11
# P''_topo (s/s^2) =  0                 +/- 2.86e-14
# P_bary (ms)      =  N/A
# P'_bary (s/s)    =  N/A
# P''_bary (s/s^2) =  N/A
# P_orb (s)        =  N/A
# asin(i)/c (s)    =  N/A
# eccentricity     =  N/A
# w (rad)          =  N/A
# T_peri           =  N/A
######################################################
   0  6892.25
   1  6808.322
   2  6823.191
   3  7004.606
   4  7339.703
   5  7329.584
   6  7345.636
   7  7114.566
   8  6829.221
   9  6926.138
  10  7142.897
  11  7216.921
  12  6865.375
  13  6669.942
  14  6706.176
  15  6553.603
  16  6741.554
  17  6876.98
  18  6895.461
  19  6913.784
  20  6699.697
  21  6548.903
  22  6645.172
  23  6792.153
  24  7221.56
  25  7397.029
  26  7237.81
  27  7246.621
  28  6902.5
  29  6945.387
  30  6855.664
  31  6471.206
  32  6588.202
  33  6485.358
  34  7072.905
  35  7281.457
  36  7060.348
  37  6901.741
  38  6946.662
  39  6849.729
  40  6894.456
  41  6792.974
  42  7233.569
  43  7431.476
  44  7159.915
  45  7057.738
  46  6833.642
  47  7013.402
  48  7264.708
  49  7333.127
  50  7251.036
  51  6836.842
  52  6715.468
  53  7125.031
  54  7271.25
  55  7590.711
  56  7580.932
  57  7369.312
  58  7121.603
  59  7109.798
  60  7293.886
  61  7413.771
  62  7422.557
  63  7369.849
  64  7048.654
  65  6919.247
  66  6852.912
  67  7042.044
  68  7185.558
  69  7303.988
  70  7083.825
  71  7109.463
  72  6852.339
  73  7071.424
  74  7329.53
  75  7246.171
  76  7307.209
  77  7289.571
  78  7316.58
  79  7104.333
  80  6773.777
  81  6602.589
  82  6696.428
  83  7022.019
  84  7041.471
  85  6919.308
  86  6669.588
  87  6757.963
  88  6712.323
  89  6915.002
  90  7175.941
  91  7210.571
  92  7216.297
  93  6798.845
  94  6959.938
  95  7086.529
  96  7168.114
  97  7485.326
  98  7543.923
  99  7641.247
 100  7378.164
 101  7085.94
 102  7092.618
 103  7172.112
 104  7273.218
 105  7337.323
 106  6989.666
 107  7097.183
 108  7374.79
 109  7356.734
 110  7430.623
 111  6967.104
 112  7174.571
 113  7394.985
 114  7577.251
 115  7766.127
 116  7423.14
 117  7459.602
 118  7568.497
 119  7482.228
 120  7309.124
 121  7055.327
 122  7062.425
 123  7023.813
 124  7167.111
 125  7106.793
 126  7468.674
 127  7516.219
 128  7602.982
 129  7538.46
 130  7245.61
 131  7192.42
 132  7214.463
 133  7304.385
 134  7503.136
 135  7279.914
 136  7396.278
 137  7053.92
 138  6998.62
 139  7083.017
 140  7103.597
 141  7229.145
 142  7261.651
 143  7139.473
 144  7113.601
 145  7069.841
 146  7210.645
 147  7447.795
 148  7559.338
 149  7447.848
 150  7321.077
 151  7148.55
 152  7228.277
 153  7211.326
 154  7133.293
 155  7140.051
 156  7050.24
 157  7236.458
 158  6862.768
 159  6850.477
 160  7068.086
 161  7241.699
 162  7002.79
 163  6756.341
 164  6537.713
 165  6788.67
 166  6553.582
 167  6894.633
 168  6849.153
 169  7171.812
 170  7426.987
 171  7385.916
 172  7172.948
 173  7186.831
 174  7164.902
 175  7084.683
 176  6711.062
 177  6782.082
 178  6874.405
 179  6714.543
 180  6580.876
 181  6752.188
 182  6675.344
 183  6948.203
 184  6949.51
 185  7185.395
 186  7315.606
 187  7354.544
 188  7643.121
 189  7569.476
 190  7651.752
 191  7785.548
 192  7697.953
 193  7499.583
 194  7226.054
 195  7125.832
 196  7481.203
 197  7406.81
 198  7456.387
 199  7355.819
 200  7395.936
 201  7379.192
 202  7138.524
 203  7054.818
 204  7330.207
 205  7122.135
 206  6990.992
 207  6972.994
 208  7063.414
 209  7243.213
 210  7229.854
 211  7423.713
 212  7651.043
 213  7526.584
 214  7428.389
 215  7325.238
 216  7194.272
 217  7431.918
 218  7138.758
 219  7110.017
 220  7082.099
 221  6920.919
 222  7054.435
 223  7010.375
 224  6899.627
 225  6827.766
 226  6956.632
 227  7296.52
 228  7361.259
 229  7260.102
 230  7437.505
 231  7491.505
 232  7437.647
 233  7553.859
 234  7458.487
 235  7382.251
 236  7417.085
 237  7461.227
 238  7287.719
 239  7152.971
 240  7335.056
 241  7378.874
 242  7103.551
 243  7049.492
 244  7295.628
 245  7572.451
 246  7416.529
 247  7082.798
 248  7136.367
 249  7210.834
 250  7218.183
 251  7175.662
 252  6887.953
 253  7000.742
 254  7031.255
 255  7311.57
 256  7240.458
 257  7105.553
 258  7218.012
 259  7313.298
 260  7256.103
 261  7359.751
 262  7325.677
 263  7208.731
 264  7157.676
 265  7012.488
 266  7175.362
 267  7451.528
 268  7517.439
 269  7743.536
 270  7358.679
 271  7344.676
 272  7372.87
 273  7522.805
 274  7585.762
 275  7315.863
 276  7350.05
 277  7479.068
 278  7296.549
 279  7469.086
 280  7695.722
 281  7891.954
 282  8018.641
 283  7941.183
 284  7787.436
 285  7359.511
 286  7106.287
 287  7204.306
 288  7283.645
 289  7460.5
 290  7811.888
 291  7877.327
 292  7714.895
 293  7939.69
 294  7791.924
 295  7748.48
 296  7365.424
 297  7573.164
 298  7756.664
 299  7590.223
 300  7623.041
 301  7318.561
 302  7211.009
 303  7166.152
 304  7433.122
 305  7641.62
 306  7884.697
 307  7741.75
 308  7845.684
 309  7563.93
 310  7464.732
 311  7587.515
 312  7605.916
 313  7612.647
 314  7125.269
 315  6719.764
 316  6828.17
 317  7099.764
 318  7419.271
 319  7597.674
 320  7471.698
 321  7308.794
 322  7286.427
 323  7445.216
 324  7557.753
 325  7547.583
 326  7549.947
 327  7574.067
 328  7329.021
 329  7115.603
 330  7048.446
 331  7069.325
 332  7274.249
 333  6971.813
 334  7001.14
 335  6843.667
 336  6839.239
 337  6969.774
 338  6794.967
 339  6960.532
 340  7154.133
 341  7495.793
 342  7342.586
 343  7176.488
 344  7107.04
 345  7385.87
 346  7427.797
 347  7734.728
 348  7681.725
 349  7449.02
 350  7057.248
 351  6713.392
 352  6732.816
 353  6872.369
 354  7060.888
 355  7385.933
 356  7292.474
 357  7119.155
 358  7243.345
 359  7210.072
 360  7401.065
 361  7432.311
 362  7539.743
 363  7677.118
 364  7147.311
 365  6948.75
 366  6943.17
 367  7002.097
 368  7259.849
 369  7162.79
 370  7313.439
 371  7342.47
 372  7362.029
 373  7443.821
 374  7462.936
 375  7090.956
 376  7072.652
 377  6827.044
 378  6672.631
 379  6726.623
 380  6771.887
 381  6889.095
 382  6966.563
 383  7150.001
 384  7485.191
 385  7299.964
 386  7235.859
 387  7336.927
 388  7294.832
 389  7695.278
 390  7599.69
 391  7479.479
 392  7037.745
 393  6872.265
 394  7152.08
 395  7227.876
 396  7427.576
 397  7590.22
 398  7794.753
 399  7769.604
 400  7536.725
 401  7203.691
 402  7307.015
 403  7413.937
 404  7419.892
 405  7608.366
 406  7695.305
 407  7557.733
 408  7179.08
 409  7158.334
 410  7034.576
 411  6869.976
 412  6909.147
 413  7402.641
 414  7389.414
 415  7368.099
 416  7440.266
 417  7601.566
 418  7568.052
 419  7163.13
 420  7076.109
 421  6697.751
 422  6914.914
 423  7176.034
 424  7050.723
 425  7188.631
 426  7316.479
 427  7678.236
 428  7736.649
 429  7494.635
 430  7578.048
 431  7355.659
 432  7241.565
 433  7261.083
 434  7204.4
 435  7060.23
 436  7104.828
 437  7004.6
 438  6915.429
 439  6790.691
 440  6809.5
 441  7298.649
 442  7540.889
 443  7893.722
 444  8018.785
 445  7545.678
 446  7574.434
 447  7274.468
 448  7066.812
 449  6913.156
 450  6822.481
 451  6986.904
 452  7109.838
 453  6997.193
 454  7488.987
 455  7569.471
 456  7800.293
 457  7652.978
 458  7278.044
 459  7277.223
 460  6852.935
 461  6915.383
 462  7038.415
 463  6989.701
 464  6513.521
 465  6648.108
 466  6780.287
 467  6954.157
 468  6939.449
 469  7124.031
 470  7292.88
 471  7137.26
 472  7181.113
 473  7326.614
 474  7257.878
 475  7246.434
 476  7185.559
 477  7156.704
 478  7173.215
 479  6947.503
 480  6960.623
 481  6901.663
 482  7064.136
 483  7569.689
 484  7871.596
 485  7976.185
 486  7668.527
 487  7501.801
 488  7310.854
 489  6743.987
 490  6604.738
 491  6672.346
 492  7113.654
 493  7166.037
 494  7248.304
 495  7484.598
 496  7446.708
 497  7443.617
 498  7486.591
 499  7365.385
 500  7280.337
 501  7309.977
 502  7297.854
 503  7057.293
 504  6877.823
 505  7042.386
 506  7279.683
 507  7088.99
 508  6880.12
 509  6778.447
 510  6624.442
 511  7033.023
 512  7336.46
 513  7532.582
 514  7449.655
 515  7308.493
 516  7413.503
 517  7393.81
 518  7122.429
 519  7078.079
 520  6978.456
 521  7392.27
 522  7767.987
 523  7701.798
 524  7642.558
 525  7511.105
 526  7614.786
 527  7553.216
 528  7029.271
 529  6831.855
 530  7124.198
 531  7043.083
 532  7084.069
 533  6763.24
 534  6795.614
 535  6988.571
 536  7104.339
 537  7367.115
 538  7605.281
 539  7417.186
 540  7701.594
 541  7550.679
 542  7574.77
 543  7391.489
 544  7231.436
 545  7146.137
 546  6704.521
 547  6611.75
 548  7075.204
 549  7016.618
 550  6734.292
 551  6688.078
 552  6851.419
 553  7004.156
 554  6847.339
 555  6636.387
 556  7002.172
 557  7021.52
 558  6963.641
 559  6931.121
 560  6882.595
 561  6849.648
 562  6848.354
 563  7045.983
 564  7375.591
 565  7243.94
 566  7442.585
 567  7278.875
 568  7198.556
 569  7325.136
 570  7277.791
 571  7174.422
 572  7116.945
 573  6950.126
 574  6874.88
 575  6686.267
 576  6780.862
 577  7062.901
 578  6964.857
 579  7058.341
 580  6839.359
 581  6955.706
 582  6623.702
 583  6548.951
 584  6885.298
 585  7142.489
 586  7065.99
 587  6755.672
 588  6465.163
 589  6541.554
 590  6882.001
 591  7372.927
 592  7644.454
 593  7819.345
 594  7823.281
 595  7769.061
 596  7412.697
 597  7259.256
 598  7291.961
 599  7273.055
 600  7047.527
 601  6946.495
 602  7220.138
 603  7353.702
 604  7089.296
 605  7149.453
 606  7364.79
 607  7503.65
 608  7271.744
 609  7043.605
 610  7402.94
 611  7623.402
 612  7704.487
 613  7684.691
 614  7572.787
 615  7581.946
 616  7857.536
 617  7732.797
 618  8069.244
 619  7837.003
 620  8100.931
 621  8056.319
 622  7704.377
 623  7387.919
 624  7026.3
 625  6854.365
 626  6792.552
 627  6884.768
 628  6792.017
 629  6686.396
 630  6433.185
 631  6654.982
 632  6776.25
 633  6844.371
 634  6937.193
 635  6883.82
 636  7079.234
 637  7365.74
 638  7554.78
 639  7487.284
 640  7233.984
 641  6964.153
 642  7002.221
 643  6728.832
 644  6897.892
 645  6960.929
 646  6983.104
 647  6992.04
 648  6909.128
 649  7128.305
 650  7084.055
 651  6824.661
 652  6871.697
 653  6744.199
 654  6718.301
 655  6909.177
 656  6979.45
 657  6702.008
 658  6528.037
 659  6743.847
 660  7060.211
 661  7254.455
 662  7426.218
 663  7534.036
 664  7304.755
 665  7586.524
 666  7689.644
 667  7728.801
 668  7503.429
 669  7315.465
 670  7449.216
 671  7433.374
 672  7445.831
 673  7490.876
 674  7229.191
 675  7110.854
 676  6862.566
 677  7353.776
 678  7570.532
 679  7436.899
 680  7296.279
 681  7324.798
 682  7371.75
 683  7515.389
 684  7745.518
 685  7985.608
 686  7889.167
 687  7504.725
 688  7471.65
 689  7809.07
 690  7446.586
 691  7506.499
 692  7575.621
 693  7715.653
 694  7527.417
 695  7234.41
 696  7485.827
 697  7215.395
 698  7044.983
 699  7032.602
 700  7040.247
 701  6796.93
 702  6857.563
 703  6723.694
 704  7137.637
 705  7149.97
 706  7116.031
 707  7090.091
 708  6905.596
 709  6912.166
 710  7031
 711  6691.189
 712  6755.154
 713  6785.112
 714  6791.44
 715  6828.019
 716  6661.367
 717  7129.531
 718  7116.907
 719  7191.52
 720  7246.758
 721  6940.157
 722  7036.979
 723  7094.764
 724  7049.851
 725  7089.491
 726  7148.951
 727  7359.984
 728  7502.287
 729  7290.673
 730  7269.957
 731  7401.863
 732  7453.364
 733  7239.251
 734  6893.635
 735  6904.797
 736  6795.664
 737  6760.688
 738  6906.516
 739  7002.846
 740  7083.509
 741  7217.806
 742  7219.864
 743  7209.666
 744  7176.921
 745  7186.037
 746  7346.337
 747  7416.251
 748  7367.071
 749  7361.141
 750  7201.358
 751  7306.917
 752  7202.959
 753  7305.791
 754  7366.545
 755  7419.785
 756  7209.087
 757  6867.576
 758  6600.255
 759  6689.163
 760  6560.491
 761  6972.398
 762  7168.16
 763  7429.576
 764  7251.352
 765  7176.981
 766  7307.494
 767  7570.577
 768  7648.304
 769  7358.31
 770  7154.358
 771  7057.082
 772  7124.653
 773  7145.814
 774  7155.511
 775  7118.648
 776  6944.232
 777  6895.462
 778  6746.934
 779  6694.176
 780  6779.718
 781  6960.833
 782  7203.744
 783  7361.742
 784  7426.082
 785  7538.676
 786  7178.802
 787  7001.907
 788  7000.778
 789  6843.561
 790  7051.125
 791  6878.51
 792  6971.129
 793  6887.695
 794  6757.24
 795  6971.54
 796  7193.899
 797  7401.329
 798  7446.208
 799  7253.703
 800  7120.908
 801  6963.114
 802  6796.312
 803  7218.225
 804  7625.541
 805  7674.327
 806  7639.537
 807  7356.12
 808  7356.397
 809  7242.421
 810  7146.336
 811  7116.56
 812  7279.689
 813  7342.442
 814  7570.479
 815  7370.238
 816  7477.592
 817  7458.873
 818  7449.456
 819  7608.08
 820  7572.503
 821  7500.621
 822  7397.104
 823  7124.304
 824  7296.927
 825  7553.663
 826  7721.987
 827  7627.138
 828  7232.908
 829  7198.668
 830  7119.999
 831  7185.667
 832  7170.787
 833  7017.483
 834  7009.937
 835  7063.418
 836  7183.042
 837  7022.11
 838  7149.716
 839  7174.966
 840  7570.788
 841  7459.852
 842  7560.544
 843  7415.034
 844  7099.193
 845  6935.911
 846  6682.836
 847  6710.656
 848  6580.154
 849  6439.152
 850  6528.949
 851  6789.678
 852  6961.38
 853  6907.872
 854  6845.035
 855  7316.14
 856  7699.429
 857  7879.608
 858  7745.301
 859  7316.744
 860  7185.878
 861  7090.289
 862  7030.742
 863  7088.7
 864  7057.057
 865  6869.789
 866  6783.581
 867  6680.83
 868  6843.623
 869  6819.732
 870  6907.753
 871  7323.067
 872  7023.454
 873  6616.521
 874  6405.417
 875  6643.536
 876  7073.248
 877  7007.77
 878  6971.856
 879  6945.485
 880  6835.58
 881  7051.45
 882  7493.807
 883  7462.377
 884  7602.33
 885  7427.369
 886  7469.745
 887  7709.2
 888  7340.57
 889  7218.183
 890  6853.207
 891  6769.745
 892  7071.766
 893  6936.675
 894  7056.023
 895  6876.152
 896  6915.895
 897  7213.695
 898  7428.56
 899  7501.34
 900  7601.253
 901  7397.495
 902  7244.811
 903  7241.958
 904  7075.966
 905  7218.748
 906  7201.965
 907  7376.211
 908  7493.105
 909  7096.641
 910  7017.384
 911  6749.498
 912  6820.19
 913  7361.968
 914  7928.743
 915  8069.982
 916  7795.496
 917  7452.468
 918  7263.237
 919  7277.514
 920  7407.792
 921  7599.248
 922  7339.926
 923  7310.385
 924  7268.12
 925  7580.297
 926  7719.807
 927  7530.612
 928  7356.493
 929  7359.855
 930  7434.899
 931  7484.9
 932  7149.418
 933  7139.772
 934  7081.772
 935  7118.724
 936  7082.904
 937  7079.091
 938  7047.287
 939  6992.205
 940  6929.076
 941  7092.617
 942  7285.794
 943  7504.364
 944  7645.171
 945  7286.879
 946  7142.487
 947  7260.6
 948  7416.468
 949  7165.323
 950  7125.7
 951  7329.241
 952  7497.674
 953  7282.623
 954  7249.355
 955  7165.158
 956  7306.993
 957  7266.507
 958  7187.171
 959  7091.104
 960  7195.187
 961  7162.63
 962  7352.268
 963  7319.704
 964  7263.357
 965  7176.692
 966  6995.497
 967  7047.491
 968  6675.798
 969  6816.378
 970  7132.89
 971  7273.565
 972  7396.823
 973  7537.053
 974  7633.738
 975  7594.601
 976  7550.838
 977  7606.461
 978  7678.092
 979  7272.411
 980  7110.762
 981  7169.698
 982  6938.885
 983  7157.039
 984  7085.102
 985  7292.376
 986  7102.673
 987  6964.224
 988  7184.124
 989  7222.148
 990  7172.597
 991  7085.645
 992  6856.096
 993  6976.923
 994  6978.381
 995  7004.826
 996  6835.392
 997  6769.583
 998  6715.792
 999  6922.922
1000  6901.668
1001  7055.799
1002  7132.581
1003  7260.319
1004  7488.109
1005  7329.767
1006  7117.026
1007  6956.076
1008  6858.216
1009  6816.705
1010  6649.49
1011  6597.646
1012  6847.283
1013  7008.602
1014  7065.858
1015  7072.81
1016  7079.965
1017  6870.619
1018  6733.514
1019  6709.093
1020  6588.122
1021  6545.501
1022  6546.298
1023  6782.85
