# Input file       =  1200053887.114777_cleaned.dat
# Candidate        =  PSR_0332+5434
# Telescope        =  AR
# Epoch_topo       =  58133.512802254365
# Epoch_bary       =  N/A
# T_sample         =  0.002
# Data Folded      =  7208960
# Data Avg         =  0.138840571014125
# Data StdDev      =  4.58197934955011 
# Profile Bins     =  512
# Profile Avg      =  1954.97573073617 
# Profile StdDev   =  543.693893120594 
# Reduced chi-sqr  =  1.163
# Prob(Noise)      <  0.00634   (~2.5 sigma)
# P_topo (ms)      =  714.566911524014  +/- 5.04e-05
# P'_topo (s/s)    =  -0                +/- 2.71e-11
# P''_topo (s/s^2) =  0                 +/- 1.22e-14
# P_bary (ms)      =  N/A
# P'_bary (s/s)    =  N/A
# P''_bary (s/s^2) =  N/A
# P_orb (s)        =  N/A
# asin(i)/c (s)    =  N/A
# eccentricity     =  N/A
# w (rad)          =  N/A
# T_peri           =  N/A
######################################################
   0  1422.025
   1  1618.815
   2  2039.8
   3  1950.15
   4  1580.839
   5  1495.513
   6  1744.927
   7  1533.406
   8  1861.456
   9  1651.173
  10  2026.905
  11  2180.091
  12  2342.759
  13  2327.211
  14  2318.385
  15  2657.947
  16  2234.791
  17  2008.802
  18  2127.149
  19  2268.639
  20  2040.885
  21  1646.951
  22  1598.688
  23  1199.042
  24  1442.378
  25  1178.283
  26  1591.557
  27  2184.065
  28  2214.84
  29  2616.837
  30  2667.012
  31  2691.768
  32  2623.008
  33  1944.743
  34  1553.266
  35  1441.343
  36  1577.5
  37  1700.151
  38  1719.884
  39  1636.143
  40  1900.196
  41  1609.089
  42  1058.623
  43  1301.028
  44  1564.956
  45  2128.032
  46  2619.753
  47  2341.417
  48  2182.978
  49  1985.278
  50  1788.907
  51  1185.591
  52  1592.666
  53  1711.652
  54  1758.46
  55  1855.441
  56  1905.639
  57  1398.159
  58  1056.422
  59  1351.047
  60  1629.888
  61  2064.329
  62  2603.725
  63  2672.316
  64  2424.018
  65  1905.202
  66  1788.115
  67  1529.301
  68  1670.44
  69  1663.419
  70  1950.586
  71  2399.246
  72  2231.194
  73  1890.955
  74  1578.992
  75  1649.483
  76  1798.137
  77  1771.538
  78  1989.92
  79  2328.597
  80  2286.014
  81  2255.83
  82  2741.354
  83  2392.457
  84  2209.622
  85  2262.331
  86  1946.642
  87  1786.028
  88  1699.759
  89  1733.067
  90  1553.052
  91  1479.314
  92  1943.211
  93  2489.738
  94  2385.691
  95  2378.549
  96  2545.018
  97  2656.615
  98  2660.839
  99  2493.043
 100  2011.049
 101  2275.248
 102  2271.437
 103  1745.331
 104  1769.827
 105  1955.136
 106  1686.208
 107  1383.447
 108  1404.196
 109  1586.818
 110  1412.972
 111  2037.251
 112  2400.956
 113  2269.817
 114  2404.154
 115  2158.453
 116  1861.25
 117  1690.444
 118  1758.731
 119  1740.477
 120  1651.248
 121  1425.05
 122  1587.991
 123  1464.892
 124  1149.475
 125  939.1167
 126  1605.385
 127  2110.64
 128  2621.713
 129  2478.968
 130  2296.347
 131  2010.797
 132  2034.705
 133  1429.984
 134  1541.34
 135  2011.618
 136  2258.471
 137  2130.8
 138  2270.77
 139  1976.824
 140  1563.928
 141  1428.018
 142  1402.924
 143  1588.084
 144  2351.539
 145  2765.807
 146  2966.227
 147  2683.835
 148  2372.309
 149  2107.094
 150  1825.655
 151  1627.366
 152  1481.972
 153  1748.904
 154  1819.814
 155  2259.415
 156  2294.715
 157  2079.784
 158  1945.317
 159  1815.879
 160  2146.102
 161  2388.298
 162  2395.663
 163  2229.573
 164  1999.839
 165  1913.797
 166  2089.13
 167  2089.095
 168  1891.186
 169  1726.64
 170  1493.148
 171  1813.456
 172  1621.375
 173  1313.96
 174  1280.349
 175  1567.143
 176  2081.129
 177  2330.161
 178  2800.224
 179  2487.615
 180  2058.693
 181  2252.766
 182  2125.514
 183  1823.636
 184  1996.635
 185  2154.735
 186  1768.556
 187  1429.666
 188  1631.571
 189  1754.871
 190  1620.259
 191  1601.963
 192  1993.256
 193  2061.465
 194  2473.762
 195  2494.341
 196  2065.573
 197  2375.845
 198  1827.535
 199  1192.269
 200  1457.535
 201  1835.044
 202  1670.472
 203  1693.874
 204  1906.382
 205  1531.364
 206  1315.648
 207  1426.61
 208  1476.985
 209  1956.275
 210  2595.235
 211  2754.924
 212  2598.522
 213  2481.966
 214  2058.756
 215  2085.906
 216  1753.863
 217  2008.647
 218  2241.04
 219  2079.213
 220  2096.652
 221  1898.388
 222  1831.11
 223  1437.023
 224  1731.223
 225  2018.295
 226  1937.576
 227  2439.811
 228  2609.273
 229  2582.676
 230  2742.969
 231  2463.611
 232  1931.691
 233  1700.648
 234  1791.611
 235  1812.525
 236  2123.925
 237  1947.099
 238  1814.352
 239  1646.324
 240  1568.84
 241  1668.83
 242  1825.025
 243  2469.924
 244  2712.146
 245  2769.95
 246  2861.06
 247  2600.627
 248  2559.296
 249  2234.835
 250  2391.523
 251  2747.725
 252  2918.975
 253  3096.889
 254  3087.525
 255  2654.304
 256  2174.869
 257  2112.943
 258  1796.154
 259  1954.625
 260  2074.651
 261  2104.521
 262  2406.282
 263  2505.025
 264  2197.695
 265  1859.989
 266  1895.962
 267  1965.164
 268  1647.36
 269  1511.47
 270  1458.541
 271  1337.674
 272  1442.387
 273  1574.481
 274  1553.331
 275  2100.583
 276  2265.169
 277  2058.781
 278  2325.455
 279  2083.509
 280  1931.471
 281  1739.374
 282  1545.06
 283  1615.2
 284  1664.89
 285  1932.55
 286  1868.62
 287  1684.483
 288  1284.312
 289  1453.567
 290  1566.866
 291  1558.619
 292  2062.914
 293  2533.759
 294  2745.8
 295  2582.938
 296  2122.846
 297  1726.428
 298  1510.548
 299  1486.141
 300  1714.198
 301  1807.008
 302  1753.598
 303  1640.489
 304  1413.434
 305  1033.166
 306  1335.936
 307  1278.694
 308  1877.053
 309  2292.445
 310  2412.885
 311  2431.9
 312  2431.255
 313  2147.25
 314  1791.24
 315  1796.59
 316  1774.998
 317  1876.643
 318  1748.513
 319  2216.686
 320  2191.303
 321  2001.86
 322  1851.716
 323  1461.91
 324  1473.091
 325  1698.996
 326  1972.434
 327  2568.743
 328  2823.985
 329  2494.692
 330  2276.959
 331  2071.283
 332  1892.969
 333  1700.695
 334  1462.569
 335  1379.769
 336  1476.52
 337  1551.028
 338  1878.754
 339  1417.628
 340  1675.176
 341  1985.061
 342  2121.74
 343  2348.193
 344  2268.695
 345  2311.088
 346  2259.1
 347  1993.624
 348  1730.473
 349  2102.924
 350  1849.671
 351  1606.3
 352  1830.531
 353  1669.712
 354  1646.674
 355  1012.965
 356  1047.211
 357  1852.867
 358  2218.518
 359  2416.544
 360  2717.532
 361  2935.048
 362  2488.485
 363  2134.715
 364  1904.761
 365  1268.293
 366  1627
 367  2186.017
 368  2021.133
 369  1788.138
 370  1419.734
 371  1269.017
 372  1509.439
 373  1599.317
 374  2206.557
 375  2254.548
 376  2422.684
 377  2344.66
 378  2189.158
 379  2196.345
 380  2208.56
 381  2011.007
 382  2082.76
 383  2139.886
 384  2094.534
 385  2132.98
 386  1872.58
 387  1401.703
 388  1174.259
 389  973.5735
 390  1518.39
 391  2365.914
 392  2495.223
 393  3024.751
 394  2921.859
 395  2736.37
 396  2517.604
 397  1901.397
 398  1971.311
 399  1764.267
 400  1724.187
 401  2061.274
 402  2333.974
 403  2250.685
 404  1674.959
 405  1380.857
 406  1297.455
 407  1380.602
 408  1527.974
 409  1992.605
 410  2517.461
 411  2423.362
 412  2538.866
 413  2414.439
 414  2048.567
 415  1993.899
 416  1621.974
 417  1799.88
 418  1785.363
 419  1339.347
 420  1339.116
 421  1540.353
 422  1605.097
 423  1915.74
 424  2190.402
 425  2246.796
 426  2845.784
 427  2614.599
 428  2370.414
 429  2608.261
 430  2290.668
 431  1924.385
 432  1773.782
 433  1735.298
 434  1696.579
 435  1772.789
 436  1434.576
 437  1536.818
 438  1832.137
 439  1920.697
 440  1911.833
 441  2195.297
 442  2385.002
 443  2463.69
 444  2377.287
 445  2301.833
 446  2054.371
 447  1822.567
 448  1937.275
 449  1827.216
 450  1759.067
 451  1934.869
 452  1455.402
 453  1673.765
 454  1300.813
 455  1336.888
 456  1589.343
 457  1969.81
 458  2271.86
 459  2442.923
 460  2870.847
 461  2560.726
 462  2158.204
 463  1983.825
 464  1914.757
 465  2079.158
 466  1653.259
 467  1534.713
 468  1730.578
 469  1790.426
 470  1619.307
 471  1461.124
 472  1351.359
 473  1412.814
 474  1759.017
 475  2423.314
 476  2894.489
 477  2826.476
 478  2269.234
 479  1853.598
 480  1885.493
 481  1457.564
 482  1444.214
 483  1436.792
 484  1640.381
 485  1989.173
 486  1987.863
 487  1835.753
 488  1266.786
 489  1164.43
 490  1900.045
 491  2491.33
 492  2574.706
 493  2156.417
 494  2160.057
 495  2043.919
 496  1401.795
 497  1628.948
 498  2063.229
 499  1899.311
 500  1733.88
 501  1832.453
 502  1716.828
 503  1412.569
 504  1431.12
 505  1428.277
 506  1603.492
 507  1904.656
 508  2483.564
 509  2971.545
 510  2647.668
 511  2357.22
