# Input file       =  1200068525.116485_cleaned.dat
# Candidate        =  PSR_0332+5434
# Telescope        =  AR
# Epoch_topo       =  58133.682223570431
# Epoch_bary       =  N/A
# T_sample         =  0.002
# Data Folded      =  7340032
# Data Avg         =  1.03751963769277 
# Data StdDev      =  8.28054734662343 
# Profile Bins     =  1024
# Profile Avg      =  7436.58315754333 
# Profile StdDev   =  701.064607957163 
# Reduced chi-sqr  =  0.779
# Prob(Noise)      <  1   (~0.0 sigma)
# P_topo (ms)      =  714.56704016545   +/- 1.79e-05
# P'_topo (s/s)    =  -0                +/- 9.46e-12
# P''_topo (s/s^2) =  0                 +/- 4.18e-15
# P_bary (ms)      =  N/A
# P'_bary (s/s)    =  N/A
# P''_bary (s/s^2) =  N/A
# P_orb (s)        =  N/A
# asin(i)/c (s)    =  N/A
# eccentricity     =  N/A
# w (rad)          =  N/A
# T_peri           =  N/A
######################################################
   0  6838.155
   1  6823.846
   2  6992.755
   3  7202.265
   4  7204.928
   5  7031.864
   6  7129.144
   7  7070.109
   8  7174.942
   9  7452.152
  10  7820.993
  11  7661.927
  12  7835.411
  13  8023.894
  14  7829.742
  15  7218.052
  16  7004.052
  17  7097.927
  18  7022.544
  19  7147.951
  20  7690.238
  21  8048.649
  22  7588.748
  23  7446.236
  24  7521.124
  25  7543.532
  26  7370.814
  27  7341.738
  28  7337.021
  29  6915.6
  30  6791.707
  31  7437.11
  32  7535.782
  33  7474.146
  34  7372.441
  35  7647.677
  36  7486.672
  37  7120.52
  38  7394.804
  39  7461.712
  40  7379.325
  41  7408.607
  42  7448.151
  43  7305.397
  44  6989.109
  45  7240.412
  46  7304.742
  47  7027.471
  48  7217.502
  49  7886.08
  50  7963.163
  51  7771.028
  52  7866.872
  53  7665.316
  54  7157.216
  55  7021.003
  56  7245.667
  57  7463.821
  58  7383.351
  59  7686.688
  60  7709.985
  61  7347.923
  62  7402.31
  63  7690.318
  64  7676.106
  65  7374.159
  66  7053.352
  67  7404.971
  68  7343.757
  69  7350.445
  70  7609.148
  71  7646.832
  72  7351.27
  73  7243.154
  74  7477.312
  75  7510.12
  76  7246.899
  77  7294.295
  78  7674.119
  79  7338.815
  80  7519.452
  81  7736.97
  82  7863.576
  83  7365.042
  84  7220.048
  85  7361.294
  86  7463.006
  87  7437.698
  88  7804.509
  89  8166.172
  90  7793.322
  91  7507.238
  92  7163.384
  93  7083.859
  94  7129.285
  95  7457.986
  96  7878.008
  97  7736.288
  98  7909.618
  99  7841.704
 100  7621.959
 101  7209.319
 102  7028.368
 103  6996.584
 104  6595.295
 105  6751.278
 106  7373.657
 107  7774.03
 108  7647.82
 109  7386.531
 110  7392.692
 111  7175.14
 112  7034.351
 113  7209.778
 114  7497.88
 115  7465.706
 116  7710.323
 117  7763.663
 118  7420.88
 119  7212.101
 120  7306.905
 121  7592.031
 122  7342.992
 123  7290.162
 124  7358.7
 125  7622.001
 126  7689.962
 127  7998.808
 128  7886.951
 129  7317.71
 130  7118.704
 131  6974.635
 132  6990.458
 133  6759.708
 134  6992.696
 135  7530.569
 136  7607.775
 137  7683.086
 138  7752.599
 139  7538.826
 140  7075.003
 141  7019.907
 142  7462.167
 143  7622.78
 144  7496.65
 145  7813.645
 146  8068.912
 147  7790.254
 148  7295.647
 149  7292.578
 150  7346.567
 151  7518.349
 152  7739.892
 153  7903.451
 154  7859.536
 155  7779.96
 156  8136.457
 157  8158.226
 158  7851.597
 159  7385.017
 160  7184.973
 161  6933.803
 162  6911.917
 163  7203.593
 164  7792.001
 165  7850.094
 166  7977.332
 167  7869.229
 168  7726.054
 169  7463.503
 170  7475.331
 171  7419.09
 172  7473.636
 173  7467.106
 174  7867.881
 175  7800.004
 176  7744.326
 177  7699.167
 178  7872.949
 179  7762.418
 180  7773.282
 181  7798.582
 182  7753.195
 183  7546.745
 184  7794.498
 185  8262.156
 186  7992.789
 187  7243.899
 188  6891.41
 189  6998.833
 190  6966.537
 191  6824.792
 192  7194.842
 193  7622.309
 194  7816.859
 195  7918.852
 196  7814.648
 197  7581.489
 198  7186.258
 199  7385.086
 200  7417.91
 201  7523.782
 202  7470.9
 203  7738.261
 204  7384.747
 205  7218.443
 206  7018.841
 207  7340.733
 208  7362.943
 209  7337.853
 210  7543.715
 211  7352.291
 212  7207.477
 213  7370.682
 214  7675.543
 215  7468.795
 216  7197.091
 217  7335.169
 218  7427.735
 219  7289.941
 220  7301.994
 221  7764.103
 222  7923.381
 223  7698.897
 224  7664.438
 225  7206.467
 226  6724.241
 227  6500.803
 228  6902.397
 229  7142.9
 230  7070.941
 231  7519.254
 232  7982.515
 233  7815.493
 234  7714.958
 235  7819.858
 236  7826.521
 237  7477.418
 238  7264.016
 239  7446.279
 240  7611.666
 241  7783.679
 242  8240.949
 243  8076.269
 244  7724.053
 245  7424.675
 246  7329.723
 247  7127.374
 248  7026.995
 249  7386.588
 250  7858.817
 251  7805.442
 252  7943.772
 253  7725.675
 254  7341.674
 255  7013.518
 256  7164.871
 257  7207.38
 258  7297.547
 259  7428.381
 260  7932.425
 261  7977.371
 262  7672.874
 263  7564.183
 264  7326.64
 265  7084.311
 266  6961.084
 267  6836.035
 268  7078.006
 269  7182.85
 270  7740.767
 271  8199.942
 272  8041.821
 273  7491.794
 274  7162.938
 275  7422.188
 276  7481.327
 277  7460.768
 278  7699.874
 279  7728.689
 280  7762.393
 281  7784.087
 282  7664.267
 283  7296.597
 284  7014.463
 285  6961.268
 286  7070.263
 287  6845.952
 288  7083.056
 289  7390.074
 290  7685.298
 291  7705.345
 292  7653.416
 293  7467.36
 294  7251.917
 295  7063.318
 296  7256.443
 297  7310.477
 298  7525.42
 299  8075.199
 300  8247.049
 301  7908.365
 302  7567.708
 303  7320.304
 304  7150.567
 305  6931.542
 306  7067.153
 307  7500.399
 308  7522.196
 309  7653.481
 310  7780.223
 311  7509.814
 312  7191.741
 313  7253.007
 314  7507.072
 315  7349.702
 316  7089.783
 317  7492.134
 318  7876.862
 319  7585.828
 320  7449.384
 321  7400.057
 322  7285.561
 323  7005.726
 324  6825.544
 325  6977.251
 326  7018.356
 327  7415.467
 328  7929.761
 329  8006.076
 330  7579.065
 331  7173.325
 332  6791.527
 333  6578.432
 334  6744.871
 335  7316.688
 336  7676.214
 337  7267.198
 338  7427.993
 339  7900.669
 340  7905.635
 341  7351.533
 342  7200.75
 343  7103.558
 344  6959.663
 345  6847.052
 346  7050.325
 347  7084.586
 348  7159.54
 349  7530.662
 350  7584.823
 351  7468.121
 352  7256.438
 353  7546.912
 354  7518.625
 355  7530.946
 356  7716.459
 357  8030.679
 358  7705.319
 359  7486.758
 360  7102.811
 361  6763.61
 362  6313.921
 363  6597.006
 364  7247.185
 365  7498.76
 366  7560.47
 367  7681.003
 368  7421.662
 369  7184.805
 370  6865.611
 371  6753.752
 372  7028.477
 373  7192.606
 374  7629.373
 375  7934.931
 376  7739.742
 377  7648.133
 378  7439.813
 379  7450.327
 380  7108.263
 381  7006.038
 382  7044.674
 383  7143.646
 384  7290.945
 385  7696.94
 386  7817.21
 387  7319.945
 388  7035.691
 389  7154.3
 390  7119.988
 391  6983.5
 392  6947.87
 393  7465.056
 394  7474.437
 395  7474.847
 396  7703.984
 397  7706.374
 398  7420.827
 399  7148.046
 400  7078.438
 401  6826.949
 402  6624.818
 403  7149.916
 404  7628.163
 405  7545.723
 406  7374.901
 407  7290.844
 408  7126.361
 409  7118.229
 410  7504.403
 411  7756.559
 412  7543.27
 413  7607.675
 414  8116.184
 415  7802.391
 416  7219.649
 417  6804.146
 418  6890.549
 419  6619.127
 420  6722.155
 421  7184.708
 422  7588.769
 423  7472.217
 424  7591.34
 425  7967.729
 426  8007.396
 427  7634.578
 428  7278.942
 429  7245.257
 430  7047.304
 431  7107.975
 432  7369.827
 433  7295.625
 434  7246.351
 435  7406.13
 436  7721.147
 437  7468.147
 438  7088.317
 439  7058.243
 440  7147.5
 441  7081.831
 442  7396.512
 443  7761.004
 444  7507.187
 445  7339.915
 446  7259.779
 447  7249.339
 448  6824.532
 449  6971.823
 450  7338.382
 451  7554.082
 452  7657.774
 453  8092.486
 454  7874.771
 455  7502.218
 456  7294.907
 457  7309.764
 458  7090.218
 459  6750.092
 460  7020.079
 461  7492.341
 462  7321.413
 463  7436.195
 464  7467.689
 465  7448.823
 466  7185.855
 467  7116.669
 468  7331.905
 469  7346.222
 470  7510.82
 471  8056.327
 472  8061.198
 473  7718.697
 474  7487.076
 475  7503.049
 476  7292.611
 477  7293.143
 478  7289.481
 479  7611.17
 480  7331.976
 481  7556.458
 482  7776.788
 483  7789.968
 484  7452.607
 485  7444.915
 486  7576.05
 487  7441.412
 488  7172.391
 489  7444.843
 490  7454.016
 491  7252.324
 492  7256.235
 493  7382.578
 494  7356.674
 495  7169.083
 496  7338.862
 497  7370.35
 498  7235.815
 499  7521.352
 500  8029.864
 501  7941.792
 502  7523.91
 503  7362.458
 504  7264.346
 505  7021.129
 506  6918.855
 507  7310.969
 508  7678.057
 509  7561.815
 510  7617.296
 511  7825.382
 512  7756.133
 513  7370.333
 514  7113.615
 515  7248.261
 516  7425.845
 517  7391.355
 518  7400.23
 519  7418.628
 520  7447.533
 521  7850.665
 522  7865.702
 523  7504.413
 524  7285.232
 525  7657.79
 526  7972.559
 527  7599.42
 528  7825.955
 529  8319.039
 530  8095.18
 531  7377.708
 532  6930.752
 533  7039.088
 534  7019.658
 535  7369.455
 536  7696.72
 537  7909.735
 538  7869.165
 539  8139.926
 540  7964.938
 541  7599.614
 542  7214.362
 543  7228.104
 544  7341.904
 545  7429.047
 546  7773.495
 547  7872.019
 548  7738.131
 549  7721.962
 550  7733.682
 551  7350.792
 552  6974.431
 553  6872.845
 554  7289.733
 555  7098.705
 556  7210.513
 557  7557.843
 558  7597.875
 559  7280.461
 560  7062.564
 561  7111.499
 562  6929.059
 563  6751.291
 564  6989.342
 565  7450.424
 566  7517.655
 567  7673.872
 568  7797.015
 569  7543.228
 570  7162.453
 571  7153
 572  7184.241
 573  7151.633
 574  7035.492
 575  7480.568
 576  7516.591
 577  7226.346
 578  7610.54
 579  7613.567
 580  7480.569
 581  6970.333
 582  7093.094
 583  7322.829
 584  7134.561
 585  7374.851
 586  7705.063
 587  7605.461
 588  7266.11
 589  7442.771
 590  7465.222
 591  7116.871
 592  6816.889
 593  7063.527
 594  7439.036
 595  7582.23
 596  7858.355
 597  7936.657
 598  7415.448
 599  7001.121
 600  6923.049
 601  6982.091
 602  6992.762
 603  7125.968
 604  7582.79
 605  7770.621
 606  7755.515
 607  7845.767
 608  7657.778
 609  7262.456
 610  6850.202
 611  6836.712
 612  7073.923
 613  7452.697
 614  8119.506
 615  8815.732
 616  8530.466
 617  8286.699
 618  8169.479
 619  8287.508
 620  7970.206
 621  7729.229
 622  7820.85
 623  7727.765
 624  7763.094
 625  7975.113
 626  7694.739
 627  7218.071
 628  6999.506
 629  7268.944
 630  7264.217
 631  7011.418
 632  7227.452
 633  7420.093
 634  7387.497
 635  7413.927
 636  7744.17
 637  7708.225
 638  7416.115
 639  7364.243
 640  7457.866
 641  7286.788
 642  7186.116
 643  7770.747
 644  7728.372
 645  7320.889
 646  7126.326
 647  7242.848
 648  6946.212
 649  6770.266
 650  6843.4
 651  7307.133
 652  7303.206
 653  7520.138
 654  7868.141
 655  7843.41
 656  7585.558
 657  7321.103
 658  7304.759
 659  7109.982
 660  6929.612
 661  7207.82
 662  7366.248
 663  7613.818
 664  7750.52
 665  7736.596
 666  7226.359
 667  6898.146
 668  6883.553
 669  7389.553
 670  7426.371
 671  7816.996
 672  8194.479
 673  8055.372
 674  7589.848
 675  7458.543
 676  7518.696
 677  7167.176
 678  6884.543
 679  7159.866
 680  7523.178
 681  7616.596
 682  7826.117
 683  7784.563
 684  7426.158
 685  7096.032
 686  7213.839
 687  7231.458
 688  6951.594
 689  7024.843
 690  7520.386
 691  7820.099
 692  7595.261
 693  7751.471
 694  7720.494
 695  7521.224
 696  7248.502
 697  7510.855
 698  7589.06
 699  7488.151
 700  7692.453
 701  7974.591
 702  7941.893
 703  7787.822
 704  7923.052
 705  7865.042
 706  7596.837
 707  7542.162
 708  7856.829
 709  7563.475
 710  7195.816
 711  7412.363
 712  7641.277
 713  7514.481
 714  7171.744
 715  7181.582
 716  7065.676
 717  6982.221
 718  7194.949
 719  7525.195
 720  7460.563
 721  7729.577
 722  7929.402
 723  7846.202
 724  7484.234
 725  7300.314
 726  7415.823
 727  7303.917
 728  7323.029
 729  7600.412
 730  7770.59
 731  7688.696
 732  7549.264
 733  7328.817
 734  6829.478
 735  6764.078
 736  6990.002
 737  7147.593
 738  6985.352
 739  7376.232
 740  7870.318
 741  7661.176
 742  7278.891
 743  7121.337
 744  7189.161
 745  7089.096
 746  7202.835
 747  7749.93
 748  7861.915
 749  7629.957
 750  7708.918
 751  7418.316
 752  6928.294
 753  6661.522
 754  6959.069
 755  7176.745
 756  7132.329
 757  7324.874
 758  7847.008
 759  7606.952
 760  7468.482
 761  7430.727
 762  7470.658
 763  6907.071
 764  6703.157
 765  7038.163
 766  7325.048
 767  7414.685
 768  7580.962
 769  7956.862
 770  7626.46
 771  7291.704
 772  7155.604
 773  7115.515
 774  6985.269
 775  7345.95
 776  7683.887
 777  7549.705
 778  7246.517
 779  7364.401
 780  7254.893
 781  6944.587
 782  6914.986
 783  7159.765
 784  7113.091
 785  6956.837
 786  7342.466
 787  7663.839
 788  7372.811
 789  7247.641
 790  7336.47
 791  7656.152
 792  7458.403
 793  7432.355
 794  7499.273
 795  7450.848
 796  7479.733
 797  7883.929
 798  7901.479
 799  7636.724
 800  7373.241
 801  7198.844
 802  7150.533
 803  7055.253
 804  7763.551
 805  8359.654
 806  8390.058
 807  8391.932
 808  8382.062
 809  8247.167
 810  7674.725
 811  7344
 812  7380.022
 813  7313.138
 814  7126.346
 815  7638.776
 816  7950.502
 817  7847.79
 818  7881.553
 819  7804.386
 820  7588.343
 821  7263.846
 822  7658.977
 823  7953.439
 824  7462.312
 825  7413.471
 826  7529.734
 827  7379.753
 828  6845.722
 829  6921.143
 830  7089.712
 831  7173.95
 832  7135.904
 833  7609.707
 834  7861.861
 835  7746.938
 836  8002.744
 837  8053.507
 838  7747.197
 839  7511.406
 840  7447.659
 841  7423.814
 842  7141.924
 843  7355.453
 844  7801.527
 845  7741.138
 846  7616.137
 847  7769.333
 848  7687.977
 849  7340.188
 850  7163.288
 851  7381.439
 852  7558.417
 853  7410.698
 854  7598.431
 855  7538.976
 856  7127.012
 857  6684.606
 858  6433.163
 859  6426.675
 860  6410.135
 861  6947.331
 862  7313.501
 863  7598.951
 864  7822.228
 865  8155.906
 866  7966.769
 867  7610.026
 868  7326.955
 869  7331.773
 870  7301.482
 871  7415.573
 872  7836.408
 873  7950.851
 874  7903.713
 875  7822.82
 876  7688.218
 877  7459.731
 878  7141.092
 879  7294.414
 880  7523.125
 881  7534.839
 882  7455.049
 883  7789.943
 884  7910.316
 885  7825.925
 886  7512.981
 887  7456.901
 888  7280.196
 889  7211.005
 890  7606.856
 891  7950.302
 892  7893.628
 893  7800.299
 894  7842.883
 895  7696.825
 896  7410.158
 897  7255.127
 898  7018.97
 899  6683.058
 900  6698.375
 901  7268.733
 902  7553.166
 903  7415.524
 904  7480.72
 905  7180.43
 906  7004.436
 907  6986.841
 908  7540.482
 909  7723.371
 910  7429.628
 911  7569.55
 912  7764.923
 913  7690.926
 914  7392.317
 915  7479.508
 916  7656.554
 917  7763.457
 918  7537.098
 919  7498.897
 920  7682.189
 921  7799.579
 922  8103.75
 923  8058.417
 924  7562.495
 925  7346.814
 926  7265.066
 927  7487.575
 928  7124.148
 929  7303.576
 930  7588.533
 931  7675.772
 932  7699.252
 933  7694.663
 934  7701.642
 935  7415.354
 936  7111.489
 937  7198.82
 938  7219.428
 939  7204.724
 940  7237.376
 941  7516.174
 942  7418.5
 943  7213.857
 944  7278.556
 945  7506.668
 946  7287.043
 947  7215.448
 948  7560.218
 949  7688.307
 950  7715.772
 951  7845.695
 952  7714.541
 953  7188.904
 954  6711.857
 955  6895.308
 956  7117.772
 957  7185.493
 958  7704.871
 959  7925.891
 960  7600.319
 961  7378.808
 962  7414.887
 963  7401.857
 964  7183.098
 965  7331.389
 966  7639.37
 967  7622.022
 968  7669.074
 969  7984.309
 970  7669.928
 971  7381.728
 972  7217.228
 973  7463.062
 974  7294.163
 975  7078.502
 976  7521.135
 977  7824.73
 978  7829.24
 979  7592.509
 980  7796.077
 981  7825.454
 982  7562.446
 983  7436.133
 984  7573.968
 985  7505.91
 986  7500.297
 987  7786.846
 988  7769.603
 989  7570.097
 990  7879.843
 991  7873.576
 992  7521.193
 993  6879.935
 994  7190.4
 995  7342.9
 996  7287.82
 997  7518.261
 998  7728.064
 999  7835.771
1000  7753.244
1001  7687.101
1002  7459.746
1003  7023.222
1004  6988.64
1005  7481.295
1006  7653.869
1007  7585.226
1008  7833.661
1009  7776.553
1010  7353.164
1011  7140.162
1012  7400.478
1013  7333.055
1014  7183.959
1015  7352.169
1016  7476.841
1017  7159.812
1018  7079.61
1019  7590.387
1020  7364.139
1021  6700.829
1022  6234.422
1023  6628.743
