# Input file       =  1200930286.110481_cleaned.dat
# Candidate        =  PSR_0332+5434
# Telescope        =  AR
# Epoch_topo       =  58143.656309149083
# Epoch_bary       =  N/A
# T_sample         =  0.002
# Data Folded      =  7340032
# Data Avg         =  0.0634893130991259
# Data StdDev      =  4.32887170741592 
# Profile Bins     =  512
# Profile Avg      =  910.541301296227 
# Profile StdDev   =  518.308953614384 
# Reduced chi-sqr  =  0.731
# Prob(Noise)      <  1   (~0.0 sigma)
# P_topo (ms)      =  714.57297818937   +/- 0.000555
# P'_topo (s/s)    =  -0                +/- 2.93e-10
# P''_topo (s/s^2) =  0                 +/- 1.29e-13
# P_bary (ms)      =  N/A
# P'_bary (s/s)    =  N/A
# P''_bary (s/s^2) =  N/A
# P_orb (s)        =  N/A
# asin(i)/c (s)    =  N/A
# eccentricity     =  N/A
# w (rad)          =  N/A
# T_peri           =  N/A
######################################################
   0  1307.997
   1  940.4413
   2  914.1077
   3  1048.019
   4  1103.302
   5  1284.436
   6  1348.374
   7  1355.137
   8  714.6545
   9  514.5068
  10  596.7127
  11  812.115
  12  1415.584
  13  1600.641
  14  1503.941
  15  770.1251
  16  569.0824
  17  676.5522
  18  799.4155
  19  1024.396
  20  1123.275
  21  1108.883
  22  974.7667
  23  811.6746
  24  871.8515
  25  1150.602
  26  1112.768
  27  876.5495
  28  1359.27
  29  941.467
  30  473.589
  31  765.6932
  32  1129.093
  33  975.1147
  34  1430.472
  35  1279.057
  36  962.9507
  37  877.2129
  38  570.2009
  39  259.1904
  40  474.2161
  41  987.5131
  42  964.5209
  43  779.9818
  44  807.0998
  45  889.3779
  46  967.4561
  47  1037.865
  48  869.0601
  49  787.2869
  50  748.2022
  51  643.3722
  52  904.4441
  53  729.0944
  54  659.3123
  55  534.3688
  56  776.9127
  57  1235.789
  58  948.2952
  59  886.3566
  60  950.4962
  61  857.964
  62  888.0987
  63  755.2509
  64  1012.089
  65  896.3494
  66  1047.134
  67  1220.278
  68  1184.815
  69  1324.058
  70  776.2296
  71  791.3694
  72  1060.509
  73  1209.536
  74  553.9005
  75  576.1954
  76  860.3265
  77  1099.58
  78  812.2224
  79  823.1375
  80  678.9081
  81  367.6375
  82  183.1224
  83  376.1719
  84  238.7381
  85  403.7644
  86  646.5737
  87  423.845
  88  655.9429
  89  575.9006
  90  442.9891
  91  359.9729
  92  353.4474
  93  424.3193
  94  818.5867
  95  1002.946
  96  656.3065
  97  332.9743
  98  237.5232
  99  571.9644
 100  795.6534
 101  1216.623
 102  1035.759
 103  876.2455
 104  620.1312
 105  357.7672
 106  805.0972
 107  534.1524
 108  620.1707
 109  552.9243
 110  857.4557
 111  696.1868
 112  613.2523
 113  600.2827
 114  474.7615
 115  637.9104
 116  703.9086
 117  630.1512
 118  871.0546
 119  721.9893
 120  629.3997
 121  550.8806
 122  825.9384
 123  946.4434
 124  978.1216
 125  846.0457
 126  1164.023
 127  955.1086
 128  848.856
 129  1171.505
 130  1096.521
 131  1238.434
 132  1185.81
 133  412.0064
 134  650.5535
 135  514.3445
 136  1095.274
 137  1136.044
 138  712.0125
 139  488.1214
 140  395.4648
 141  631.7815
 142  848.542
 143  875.8329
 144  1096.704
 145  1098.012
 146  632.3712
 147  567.8101
 148  1167.097
 149  776.0063
 150  905.5516
 151  753.6141
 152  778.7465
 153  903.1461
 154  839.4058
 155  494.3087
 156  608.6098
 157  1020.775
 158  1256.561
 159  1369.314
 160  1064.781
 161  1198.331
 162  1241.328
 163  990.0879
 164  1094.814
 165  1238.378
 166  1119.667
 167  1062.747
 168  1116.12
 169  1290.123
 170  1416.07
 171  1269.866
 172  1029.39
 173  1336.752
 174  1255.657
 175  1491.431
 176  1476.262
 177  1154.854
 178  916.0795
 179  716.9409
 180  945.6241
 181  1155.006
 182  1218.531
 183  1367.637
 184  1243.493
 185  950.0883
 186  1115.658
 187  902.8638
 188  821.7485
 189  498.1331
 190  568.658
 191  1123.694
 192  1237.825
 193  1067.444
 194  903.6828
 195  924.0628
 196  911.2189
 197  832.2545
 198  1194.508
 199  888.8036
 200  932.6153
 201  893.0755
 202  752.9993
 203  538.3405
 204  891.6428
 205  1330.011
 206  939.1871
 207  807.7391
 208  1276.612
 209  878.3167
 210  1028.49
 211  1121.83
 212  1191.951
 213  1436.698
 214  1266.845
 215  1324.865
 216  1186.537
 217  1233.697
 218  1304.897
 219  1552.625
 220  1281.976
 221  772.8459
 222  1047.773
 223  1531.972
 224  1581.034
 225  1261.19
 226  1129.561
 227  849.2633
 228  866.0114
 229  1515.76
 230  1413.219
 231  1464.834
 232  1338.793
 233  972.4323
 234  756.5787
 235  886.6605
 236  1161.391
 237  1010.986
 238  595.1453
 239  730.8982
 240  828.2018
 241  583.1856
 242  740.34
 243  804.6963
 244  1156.488
 245  1195.807
 246  881.7501
 247  795.7728
 248  840.9286
 249  1026.017
 250  772.2483
 251  754.8896
 252  810.8433
 253  770.2523
 254  549.5948
 255  379.865
 256  574.3866
 257  673.8961
 258  440.0518
 259  403.4217
 260  237.6149
 261  506.3231
 262  532.0141
 263  460.0718
 264  658.6347
 265  1041.517
 266  727.852
 267  462.3166
 268  618.2222
 269  538.3765
 270  466.4703
 271  657.9581
 272  568.1945
 273  606.132
 274  848.1763
 275  857.4249
 276  895.3434
 277  743.361
 278  988.2644
 279  1544.066
 280  1374.221
 281  1111.184
 282  613.1401
 283  998.2296
 284  825.946
 285  912.6113
 286  831.4959
 287  932.3749
 288  910.7126
 289  750.967
 290  1043.12
 291  1303.575
 292  1082.774
 293  798.1456
 294  949.0306
 295  1075.989
 296  1107.374
 297  831.2572
 298  781.4099
 299  635.8682
 300  566.0545
 301  1086.372
 302  791.0822
 303  1006.763
 304  1366.75
 305  1630.272
 306  2357.577
 307  2488.386
 308  2482.375
 309  2150.811
 310  1685.05
 311  931.0104
 312  895.5236
 313  882.9359
 314  528.9376
 315  813.7861
 316  1173.122
 317  1014.597
 318  842.1206
 319  825.9799
 320  708.6754
 321  660.194
 322  1029.335
 323  1175.633
 324  1068.136
 325  833.7672
 326  952.8909
 327  768.2491
 328  783.8472
 329  1202.573
 330  1024.256
 331  1095.723
 332  968.0947
 333  787.816
 334  924.3293
 335  902.7589
 336  441.7032
 337  622.2226
 338  1327.257
 339  1536.859
 340  979.0963
 341  588.1098
 342  763.4347
 343  969.3185
 344  1477.539
 345  1557.993
 346  1368.869
 347  1016.832
 348  906.894
 349  1167.701
 350  1155.888
 351  1289.917
 352  1033.847
 353  937.8806
 354  1271.198
 355  1272.762
 356  1176.785
 357  823.0329
 358  995.2532
 359  1089.013
 360  873.9072
 361  637.6508
 362  567.5862
 363  1001.616
 364  1077.323
 365  979.5375
 366  745.7972
 367  1056.295
 368  879.1137
 369  889.6479
 370  949.7379
 371  898.0256
 372  1063.513
 373  1004.403
 374  802.4351
 375  844.0561
 376  889.9532
 377  714.0028
 378  519.1904
 379  447.8445
 380  824.3166
 381  416.1722
 382  742.9356
 383  461.8623
 384  551.1361
 385  392.3289
 386  503.5133
 387  249.7516
 388  97.74055
 389  589.1235
 390  747.7401
 391  505.3966
 392  205.862
 393  162.7247
 394  568.2033
 395  989.1424
 396  654.8275
 397  767.7726
 398  981.6711
 399  710.1349
 400  935.3293
 401  864.1923
 402  863.9509
 403  763.3011
 404  585.5406
 405  932.8354
 406  618.9059
 407  698.1374
 408  1152.555
 409  1026.149
 410  1038.157
 411  1086
 412  1165.904
 413  1323.913
 414  1180.253
 415  1101.42
 416  1105.207
 417  1218.198
 418  698.1773
 419  465.8185
 420  585.447
 421  591.4063
 422  632.9633
 423  705.5535
 424  923.9774
 425  950.0999
 426  676.3271
 427  405.7661
 428  562.9105
 429  839.2473
 430  838.3109
 431  956.2017
 432  1079.481
 433  729.1191
 434  500.0466
 435  491.5627
 436  379.84
 437  570.8801
 438  773.8185
 439  1110.659
 440  1163.782
 441  678.1506
 442  901.9731
 443  930.6873
 444  995.5822
 445  1079.504
 446  964.3529
 447  1201.626
 448  932.1316
 449  697.5972
 450  677.3201
 451  1037.241
 452  911.1567
 453  683.699
 454  1031.081
 455  776.6561
 456  835.9571
 457  1077.025
 458  1001.884
 459  1007.505
 460  824.3085
 461  776.5338
 462  819.0435
 463  763.1569
 464  944.3893
 465  900.3469
 466  947.2892
 467  1131.846
 468  1571.269
 469  1358.862
 470  1311.275
 471  1316.304
 472  1382.829
 473  1224.828
 474  1538.701
 475  1756.929
 476  1546.667
 477  1558.128
 478  1117.295
 479  1220.498
 480  1388.875
 481  1264.457
 482  902.9639
 483  724.9715
 484  735.956
 485  982.3328
 486  1054.535
 487  1247.419
 488  1001.11
 489  535.0353
 490  474.551
 491  844.0623
 492  776.3867
 493  432.6091
 494  710.8234
 495  702.9528
 496  575.537
 497  576.9075
 498  682.3842
 499  493.2569
 500  508.769
 501  939.4828
 502  1191.165
 503  1016.221
 504  808.3081
 505  813.343
 506  997.3106
 507  1109.373
 508  950.8695
 509  1151.573
 510  1215.752
 511  1185.899
