# Input file       =  1200600452.101729_cleaned.dat
# Candidate        =  PSR_0332+5434
# Telescope        =  AR
# Epoch_topo       =  58139.838785899643
# Epoch_bary       =  N/A
# T_sample         =  0.002
# Data Folded      =  7340032
# Data Avg         =  0.0955435072501995
# Data StdDev      =  1.00030698990112 
# Profile Bins     =  512
# Profile Avg      =  1369.650154972   
# Profile StdDev   =  119.769793209764 
# Reduced chi-sqr  =  0.853
# Prob(Noise)      <  0.993   (~0.0 sigma)
# P_topo (ms)      =  714.571231178357  +/- 6.12e-05
# P'_topo (s/s)    =  -0                +/- 3.23e-11
# P''_topo (s/s^2) =  0                 +/- 1.43e-14
# P_bary (ms)      =  N/A
# P'_bary (s/s)    =  N/A
# P''_bary (s/s^2) =  N/A
# P_orb (s)        =  N/A
# asin(i)/c (s)    =  N/A
# eccentricity     =  N/A
# w (rad)          =  N/A
# T_peri           =  N/A
######################################################
   0  1702.988
   1  1641.193
   2  1585.926
   3  1432.66
   4  1398.301
   5  1372.728
   6  1288.154
   7  1362.882
   8  1382.62
   9  1346.593
  10  1423.854
  11  1384.381
  12  1311.297
  13  1256.816
  14  1348.801
  15  1353.629
  16  1371.469
  17  1342.135
  18  1306.107
  19  1329.787
  20  1277.483
  21  1309.641
  22  1388.494
  23  1500.634
  24  1532.345
  25  1440.447
  26  1408.678
  27  1460.567
  28  1456.48
  29  1414.947
  30  1517.291
  31  1454.133
  32  1389.255
  33  1531.363
  34  1586.419
  35  1529.369
  36  1544.259
  37  1458.892
  38  1412.801
  39  1420.373
  40  1364.461
  41  1326.268
  42  1308.962
  43  1274.808
  44  1328.63
  45  1316.41
  46  1311.757
  47  1315.093
  48  1319.495
  49  1315.457
  50  1432.852
  51  1405.74
  52  1418.503
  53  1405.904
  54  1385.62
  55  1533.003
  56  1409.117
  57  1409.513
  58  1302.887
  59  1269.584
  60  1300.533
  61  1351.182
  62  1356.78
  63  1316.003
  64  1392.198
  65  1365.444
  66  1347.444
  67  1354.191
  68  1356.112
  69  1382.414
  70  1349.716
  71  1296.827
  72  1358.3
  73  1442.763
  74  1408.769
  75  1391.001
  76  1251.79
  77  1229.785
  78  1252.855
  79  1309.296
  80  1347.699
  81  1298.621
  82  1281.412
  83  1370.52
  84  1373.518
  85  1319.379
  86  1337.857
  87  1273.745
  88  1236.943
  89  1353.227
  90  1462.242
  91  1394.684
  92  1297.901
  93  1425.424
  94  1511.849
  95  1513.779
  96  1450.21
  97  1370.174
  98  1416.199
  99  1403.692
 100  1430.109
 101  1532.603
 102  1534.959
 103  1453.064
 104  1435.679
 105  1456.692
 106  1427.77
 107  1417.101
 108  1396.257
 109  1373.985
 110  1322.578
 111  1344.868
 112  1413.769
 113  1445.412
 114  1374.02
 115  1318.027
 116  1307.955
 117  1382.467
 118  1319.637
 119  1498.6
 120  1513.5
 121  1358.396
 122  1291.196
 123  1458.734
 124  1316.282
 125  1221.487
 126  1305.325
 127  1390.511
 128  1188.078
 129  1258.223
 130  1301.741
 131  1307.426
 132  1427.657
 133  1419.69
 134  1400.465
 135  1431.088
 136  1355.863
 137  1307.958
 138  1373.59
 139  1335.606
 140  1419.587
 141  1415.589
 142  1358.036
 143  1407.474
 144  1386.445
 145  1427.335
 146  1303.32
 147  1210.815
 148  1469.104
 149  1559.326
 150  1415.089
 151  1363.668
 152  1356.329
 153  1316.827
 154  1449.539
 155  1369.756
 156  1447.282
 157  1403.288
 158  1362.742
 159  1358.339
 160  1309.522
 161  1295.558
 162  1345.033
 163  1466.726
 164  1358.724
 165  1358.645
 166  1310.274
 167  1423.615
 168  1302.915
 169  1334.53
 170  1364.497
 171  1312.185
 172  1325.976
 173  1412.181
 174  1367.164
 175  1270.765
 176  1300.499
 177  1424.011
 178  1402.343
 179  1402.809
 180  1412.491
 181  1351.562
 182  1416.476
 183  1363.503
 184  1259.433
 185  1261.689
 186  1351.488
 187  1238.222
 188  1287.071
 189  1316.826
 190  1330.217
 191  1357.157
 192  1375.155
 193  1379.349
 194  1324.612
 195  1256.095
 196  1215.585
 197  1281.611
 198  1377.933
 199  1391.646
 200  1314.727
 201  1261.607
 202  1206.065
 203  1267.402
 204  1233.735
 205  1362.756
 206  1422.291
 207  1256.627
 208  1285.22
 209  1329.171
 210  1264.156
 211  1262.298
 212  1372.234
 213  1398.711
 214  1287.526
 215  1288.568
 216  1331.278
 217  1302.123
 218  1340.384
 219  1232.854
 220  1273.487
 221  1347.693
 222  1249.837
 223  1243.046
 224  1341.614
 225  1376.603
 226  1232.119
 227  1350.038
 228  1417.553
 229  1238.241
 230  1337.541
 231  1418.122
 232  1284.61
 233  1311.356
 234  1439.688
 235  1365.87
 236  1264.667
 237  1334.133
 238  1420.337
 239  1345.137
 240  1362.77
 241  1410.919
 242  1417.032
 243  1312.258
 244  1300.796
 245  1378.44
 246  1304.095
 247  1254.429
 248  1440.601
 249  1552.364
 250  1331.443
 251  1370.351
 252  1510.173
 253  1404.265
 254  1300.1
 255  1377.057
 256  1344.354
 257  1361.421
 258  1419.836
 259  1342.268
 260  1427.051
 261  1454.99
 262  1483.009
 263  1468.227
 264  1382.147
 265  1337.948
 266  1384.756
 267  1446.875
 268  1409.754
 269  1356.53
 270  1459.5
 271  1422.236
 272  1310.962
 273  1361.589
 274  1442.056
 275  1379.891
 276  1365.818
 277  1489.908
 278  1459.009
 279  1427.666
 280  1470.471
 281  1414.084
 282  1370.174
 283  1333.798
 284  1399.814
 285  1362.844
 286  1311.481
 287  1390.894
 288  1420.15
 289  1429.699
 290  1395.998
 291  1330.048
 292  1328.46
 293  1260.119
 294  1266.086
 295  1304.078
 296  1409.135
 297  1426.559
 298  1466.064
 299  1460.3
 300  1356.771
 301  1448.83
 302  1503.115
 303  1526.115
 304  1464.649
 305  1396.551
 306  1388.339
 307  1332.939
 308  1401.014
 309  1465.843
 310  1468.659
 311  1362.854
 312  1375.099
 313  1343.567
 314  1291.888
 315  1301.474
 316  1299.495
 317  1400.432
 318  1433.763
 319  1449.108
 320  1492.316
 321  1498.264
 322  1474.948
 323  1465.952
 324  1472.591
 325  1464.06
 326  1434.711
 327  1366.066
 328  1416.614
 329  1278.722
 330  1281.088
 331  1331.504
 332  1350.183
 333  1389.682
 334  1401.286
 335  1378.214
 336  1388.821
 337  1476.979
 338  1473.711
 339  1432.952
 340  1373.755
 341  1335.672
 342  1487.293
 343  1498.641
 344  1528.921
 345  1522.143
 346  1387.83
 347  1406.082
 348  1437.805
 349  1473.708
 350  1499.914
 351  1455.83
 352  1456.022
 353  1467.129
 354  1330.615
 355  1342.471
 356  1399.961
 357  1421.369
 358  1377.324
 359  1416.812
 360  1353.226
 361  1303.818
 362  1390.428
 363  1490.782
 364  1384.503
 365  1402.504
 366  1372.684
 367  1362.544
 368  1310.642
 369  1338.669
 370  1252.363
 371  1124.743
 372  1224.584
 373  1354.096
 374  1390.088
 375  1299.862
 376  1383.612
 377  1525.574
 378  1413.321
 379  1283.826
 380  1303.205
 381  1384.378
 382  1339.957
 383  1316.345
 384  1422.068
 385  1411.272
 386  1336.338
 387  1361.941
 388  1402.535
 389  1434.494
 390  1391.175
 391  1335.504
 392  1339.12
 393  1325.489
 394  1258.101
 395  1364.494
 396  1388.429
 397  1402.066
 398  1493.502
 399  1365.164
 400  1264.645
 401  1330.184
 402  1404.461
 403  1441.777
 404  1377.495
 405  1430.816
 406  1460.877
 407  1389.032
 408  1291.94
 409  1269.654
 410  1448.297
 411  1375.547
 412  1365.6
 413  1310.014
 414  1270.885
 415  1325.838
 416  1371.277
 417  1434.364
 418  1309.441
 419  1321.034
 420  1346.043
 421  1320.148
 422  1307.124
 423  1239.506
 424  1346.161
 425  1525.883
 426  1418.31
 427  1285.188
 428  1188.242
 429  1292.179
 430  1333.934
 431  1429.087
 432  1365.031
 433  1285.203
 434  1334.384
 435  1345.031
 436  1284.358
 437  1277.313
 438  1347.087
 439  1325.826
 440  1268.969
 441  1312.978
 442  1228.473
 443  1234.719
 444  1246.615
 445  1420.071
 446  1492.835
 447  1427.313
 448  1237.88
 449  1350.729
 450  1428.75
 451  1409.652
 452  1420.179
 453  1429.228
 454  1414.984
 455  1256.796
 456  1373.028
 457  1357.381
 458  1263.468
 459  1381.442
 460  1331.01
 461  1261.435
 462  1344.374
 463  1417.646
 464  1470.009
 465  1394.357
 466  1360.296
 467  1309.408
 468  1290.582
 469  1325.625
 470  1280.545
 471  1269.638
 472  1377.158
 473  1394.283
 474  1446.873
 475  1363.172
 476  1294.693
 477  1324.768
 478  1283.139
 479  1234.598
 480  1263.455
 481  1273.442
 482  1373.312
 483  1294.052
 484  1236.388
 485  1366.391
 486  1444.239
 487  1365.535
 488  1361.843
 489  1310.593
 490  1257.051
 491  1224.765
 492  1277.257
 493  1299.755
 494  1279.697
 495  1255.428
 496  1297.038
 497  1208.513
 498  1290.428
 499  1403.563
 500  1476.367
 501  1468.296
 502  1342.719
 503  1329.673
 504  1309.712
 505  1307.203
 506  1375.744
 507  1524.893
 508  1581.769
 509  1551.929
 510  1592.413
 511  1669.524
