# Input file       =  1201878730.107112_cleaned.dat
# Candidate        =  PSR_0332+5434
# Telescope        =  AR
# Epoch_topo       =  58154.633670221199
# Epoch_bary       =  N/A
# T_sample         =  0.002
# Data Folded      =  7340032
# Data Avg         =  0.121998362719231
# Data StdDev      =  4.45613222664484 
# Profile Bins     =  1024
# Profile Avg      =  874.505514656162 
# Profile StdDev   =  377.274165789528 
# Reduced chi-sqr  =  0.801
# Prob(Noise)      <  1   (~0.0 sigma)
# P_topo (ms)      =  714.577645263037  +/- 0.000631
# P'_topo (s/s)    =  -0                +/- 3.33e-10
# P''_topo (s/s^2) =  0                 +/- 1.47e-13
# P_bary (ms)      =  N/A
# P'_bary (s/s)    =  N/A
# P''_bary (s/s^2) =  N/A
# P_orb (s)        =  N/A
# asin(i)/c (s)    =  N/A
# eccentricity     =  N/A
# w (rad)          =  N/A
# T_peri           =  N/A
######################################################
   0  871.5811
   1  769.0955
   2  758.6307
   3  832.4401
   4  854.7986
   5  827.7951
   6  931.2651
   7  939.0328
   8  899.7515
   9  924.3992
  10  955.7629
  11  874.9615
  12  857.5039
  13  792.3951
  14  725.6836
  15  722.9541
  16  821.6243
  17  936.1501
  18  886.3844
  19  891.892
  20  891.7704
  21  912.468
  22  988.0878
  23  970.1477
  24  960.3431
  25  855.8224
  26  675.6802
  27  676.7858
  28  718.2892
  29  688.0773
  30  677.0841
  31  683.3823
  32  827.2917
  33  910.2863
  34  890.11
  35  979.5546
  36  1017.904
  37  1162.795
  38  1023.856
  39  997.33
  40  1003.275
  41  1132.503
  42  1077.054
  43  1004.701
  44  1005.396
  45  1027.611
  46  885.7775
  47  687.3405
  48  654.8703
  49  724.7578
  50  749.1255
  51  702.7509
  52  733.8062
  53  777.2511
  54  770.3939
  55  825.4106
  56  899.9459
  57  949.3681
  58  838.8937
  59  827.3537
  60  810.2502
  61  905.567
  62  830.828
  63  893.0145
  64  879.8838
  65  803.3793
  66  843.9176
  67  773.3702
  68  702.7297
  69  557.5176
  70  568.9536
  71  790.9771
  72  857.8765
  73  778.6424
  74  731.3586
  75  689.2092
  76  812.1425
  77  952.599
  78  821.2313
  79  698.3585
  80  666.1776
  81  749.1891
  82  682.0098
  83  538.4496
  84  589.1539
  85  501.9584
  86  631.725
  87  745.4485
  88  929.8969
  89  733.562
  90  710.5781
  91  514.0397
  92  619.3079
  93  545.5571
  94  632.2723
  95  653.9337
  96  668.6613
  97  626.945
  98  620.383
  99  553.1959
 100  585.4419
 101  588.3318
 102  747.2761
 103  798.2247
 104  793.264
 105  701.5861
 106  667.247
 107  635.0213
 108  619.9492
 109  642.668
 110  558.8363
 111  425.6034
 112  368.0843
 113  579.9303
 114  722.6497
 115  714.1379
 116  616.7334
 117  590.8779
 118  589.2064
 119  513.6566
 120  432.8264
 121  560.842
 122  530.0275
 123  631.9866
 124  598.4265
 125  696.9131
 126  631.9291
 127  755.0873
 128  757.0101
 129  883.2667
 130  617.856
 131  415.8627
 132  199.9961
 133  302.9669
 134  446.0084
 135  623.4595
 136  667.137
 137  653.3931
 138  650.2352
 139  648.1329
 140  623.7058
 141  564.9191
 142  585.4443
 143  567.6634
 144  554.9642
 145  589.166
 146  588.2349
 147  591.0945
 148  504.527
 149  600.1559
 150  668.8759
 151  672.6738
 152  820.0907
 153  801.6149
 154  837.8727
 155  803.6451
 156  1041.732
 157  1044.165
 158  885.9866
 159  816.1484
 160  913.125
 161  843.4217
 162  811.2074
 163  866.8478
 164  885.4944
 165  930.7455
 166  1019.05
 167  1083.306
 168  1007.19
 169  826.117
 170  846.5637
 171  835.9502
 172  914.8511
 173  974.5928
 174  976.5886
 175  841.8599
 176  870.4772
 177  974.4418
 178  1015.16
 179  947.3237
 180  863.5762
 181  869.9681
 182  858.1113
 183  773.0378
 184  769.5528
 185  770.3404
 186  868.6881
 187  957.1676
 188  1065.357
 189  1030.537
 190  904.8142
 191  854.0644
 192  848.4367
 193  777.0795
 194  931.604
 195  968.02
 196  958.2767
 197  828.3094
 198  886.8415
 199  994.9655
 200  1053.778
 201  981.9913
 202  1000.588
 203  931.5464
 204  829.2878
 205  728.5253
 206  563.1463
 207  622.0733
 208  720.3011
 209  920.6616
 210  798.268
 211  655.3045
 212  595.7925
 213  773.9225
 214  864.1589
 215  914.9752
 216  931.4535
 217  966.5129
 218  861.926
 219  875.576
 220  878.7475
 221  879.1874
 222  852.9545
 223  812.4435
 224  972.3989
 225  978.4907
 226  853.1304
 227  786.0206
 228  905.3126
 229  929.8272
 230  1044.694
 231  1134.743
 232  1221.048
 233  1154.157
 234  1031.094
 235  991.2275
 236  913.4223
 237  902.5297
 238  915.6104
 239  779.2339
 240  746.7582
 241  729.2156
 242  640.2252
 243  592.9585
 244  723.6451
 245  1088.478
 246  1380.312
 247  1198.213
 248  1121.995
 249  931.5661
 250  905.7891
 251  930.9634
 252  978.488
 253  983.6774
 254  910.2484
 255  889.193
 256  908.0764
 257  884.197
 258  941.0645
 259  1074.392
 260  1208.477
 261  1181.376
 262  1177.99
 263  1158.23
 264  1077.766
 265  1011.678
 266  1002.095
 267  1102.667
 268  1043.282
 269  954.2654
 270  1041.748
 271  1054.354
 272  1014.685
 273  1092.249
 274  1086.513
 275  1150.479
 276  1005.54
 277  953.2331
 278  954.5059
 279  814.4627
 280  978.7028
 281  833.1502
 282  864.1214
 283  763.4757
 284  734.766
 285  811.8786
 286  905.3325
 287  1047.607
 288  1080.613
 289  860.3978
 290  667.761
 291  574.8306
 292  593.6345
 293  682.7633
 294  840.326
 295  1082.036
 296  1075.576
 297  786.1307
 298  676.5352
 299  782.9907
 300  792.7974
 301  596.2676
 302  595.6943
 303  603.9269
 304  575.4689
 305  538.2962
 306  630.1902
 307  852.5356
 308  922.9354
 309  1028.911
 310  994.1856
 311  907.8418
 312  700.417
 313  636.671
 314  604.7384
 315  684.0646
 316  813.6692
 317  963.8524
 318  962.4204
 319  919.7098
 320  838.4687
 321  836.0494
 322  847.4738
 323  933.84
 324  982.4174
 325  895.6414
 326  895.1173
 327  849.5972
 328  780.6871
 329  809.3344
 330  769.1437
 331  811.5082
 332  870.2461
 333  940.3203
 334  810.8984
 335  708.9489
 336  670.958
 337  667.4479
 338  673.1484
 339  681.6785
 340  737.1239
 341  721.4942
 342  875.6937
 343  885.5624
 344  879.3123
 345  777.2132
 346  740.6968
 347  556.0594
 348  607.956
 349  545.5167
 350  697.4211
 351  602.4578
 352  596.0575
 353  640.6107
 354  512.42
 355  403.5697
 356  415.6252
 357  544.8372
 358  724.8699
 359  757.8119
 360  771.0432
 361  719.0071
 362  748.9105
 363  622.2381
 364  667.3007
 365  523.35
 366  751.4387
 367  916.5605
 368  996.6605
 369  823.7971
 370  587.8829
 371  549.187
 372  603.0316
 373  763.4352
 374  847.7171
 375  912.411
 376  891.4803
 377  928.2884
 378  829.4468
 379  897.4302
 380  853.402
 381  917.1033
 382  947.3865
 383  919.825
 384  855.3326
 385  807.9854
 386  891.1407
 387  1052.194
 388  1085.513
 389  1164.105
 390  958.561
 391  869.0192
 392  818.5849
 393  768.3785
 394  823.5873
 395  1006.586
 396  1253.123
 397  1174.414
 398  1192.369
 399  1048.282
 400  1169.088
 401  1089.364
 402  1210.935
 403  1221.239
 404  1040.632
 405  1007.624
 406  1004.626
 407  1052.712
 408  941.8574
 409  891.4308
 410  996.6358
 411  900.5035
 412  882.9054
 413  816.4612
 414  880.3864
 415  832.3998
 416  865.1892
 417  840.4393
 418  783.4872
 419  709.0289
 420  789.3101
 421  885.2059
 422  829.4738
 423  767.0723
 424  973.943
 425  979.7684
 426  916.2737
 427  669.5275
 428  664.4891
 429  643.7272
 430  692.6213
 431  782.9997
 432  769.3389
 433  751.8542
 434  798.3511
 435  882.0721
 436  883.4831
 437  888.3872
 438  939.3386
 439  863.8275
 440  832.394
 441  901.893
 442  1106.517
 443  938.98
 444  897.6993
 445  848.03
 446  1001.765
 447  1004.245
 448  1071.023
 449  1109.937
 450  1008.751
 451  803.0234
 452  754.2967
 453  676.0822
 454  627.7573
 455  668.6708
 456  660.796
 457  797.4686
 458  700.1697
 459  870.2001
 460  1016.82
 461  1110.625
 462  985.8586
 463  953.2921
 464  797.3541
 465  919.667
 466  872.7847
 467  1036.707
 468  879.0377
 469  837.1758
 470  756.1099
 471  765.1122
 472  694.4842
 473  722.5477
 474  776.0935
 475  769.8741
 476  634.4765
 477  631.6402
 478  697.2706
 479  922.0687
 480  1165.193
 481  1256.31
 482  1042.811
 483  813.851
 484  836.0343
 485  1033.115
 486  1036.429
 487  928.3713
 488  916.8274
 489  977.2748
 490  1032.068
 491  837.1918
 492  848.5203
 493  835.2942
 494  960.1648
 495  940.1682
 496  885.8317
 497  635.391
 498  658.3235
 499  785.5223
 500  1021.066
 501  973.9184
 502  924.0499
 503  766.4664
 504  658.4366
 505  536.425
 506  530.7427
 507  704.082
 508  814.2454
 509  820.6696
 510  876.0481
 511  806.7215
 512  678.211
 513  561.1735
 514  575.2133
 515  712.7366
 516  875.9472
 517  1043.509
 518  1064.442
 519  1043.258
 520  1028
 521  966.8884
 522  867.2428
 523  849.2885
 524  847.1342
 525  860.5248
 526  765.7995
 527  769.2336
 528  964.0369
 529  1004.379
 530  916.9483
 531  760.2915
 532  723.9094
 533  759.7124
 534  683.8156
 535  722.9412
 536  663.7405
 537  766.7403
 538  871.8098
 539  956.6155
 540  924.1483
 541  795.9265
 542  628.7829
 543  817.0723
 544  886.3256
 545  904.0911
 546  973.4282
 547  945.1924
 548  839.1408
 549  674.7032
 550  624.9387
 551  825.534
 552  940.494
 553  1015.215
 554  882.7798
 555  730.6052
 556  710.8239
 557  715.0002
 558  779.3154
 559  752.159
 560  745.695
 561  716.3146
 562  683.4122
 563  636.8251
 564  490.6052
 565  414.2635
 566  466.2556
 567  581.1816
 568  634.6317
 569  624.8672
 570  675.6354
 571  732.581
 572  690.7413
 573  713.7658
 574  856.6213
 575  831.635
 576  634.8279
 577  535.298
 578  551.7106
 579  575.1863
 580  581.3063
 581  670.73
 582  747.9142
 583  746.3021
 584  710.149
 585  595.55
 586  426.4072
 587  364.0615
 588  458.7096
 589  608.4911
 590  814.487
 591  807.4167
 592  799.8999
 593  778.0574
 594  712.391
 595  676.7665
 596  712.9503
 597  843.7088
 598  837.5238
 599  738.6096
 600  756.5681
 601  788.1623
 602  787.22
 603  807.27
 604  824.3854
 605  886.3086
 606  974.3569
 607  1105.181
 608  1299.104
 609  1378.599
 610  1335.58
 611  1464.551
 612  1380.261
 613  1421.067
 614  1319.71
 615  1354.18
 616  1500.324
 617  1565.325
 618  1753.195
 619  1693.052
 620  1343.401
 621  1025.631
 622  871.3925
 623  859.2278
 624  779.592
 625  794.4948
 626  839.8997
 627  918.2335
 628  956.782
 629  948.9473
 630  933.4147
 631  946.471
 632  1004.119
 633  889.2007
 634  829.6716
 635  673.9877
 636  723.7747
 637  774.9171
 638  719.4871
 639  683.2946
 640  734.9922
 641  831.931
 642  880.8951
 643  961.7418
 644  962.4373
 645  930.787
 646  909.8422
 647  900.0912
 648  771.4174
 649  654.231
 650  629.3409
 651  720.2302
 652  740.8409
 653  780.8098
 654  834.1736
 655  979.3295
 656  983.8893
 657  1076.337
 658  1109.447
 659  1134.995
 660  1111.7
 661  1059.382
 662  1059.098
 663  1063.859
 664  1050.303
 665  1009.578
 666  1001.798
 667  901.3914
 668  918.3846
 669  852.4952
 670  1025.959
 671  1080.058
 672  1064.194
 673  822.7756
 674  727.9329
 675  670.3965
 676  698.956
 677  722.462
 678  716.5066
 679  777.2113
 680  686.6827
 681  777.5388
 682  836.7897
 683  847.5251
 684  847.8869
 685  821.4905
 686  992.683
 687  1011.258
 688  915.8887
 689  764.2054
 690  823.4749
 691  832.2932
 692  777.0971
 693  589.3784
 694  731.9099
 695  827.7081
 696  997.4143
 697  1021.073
 698  1039.136
 699  1026.283
 700  1078.826
 701  1071.704
 702  1059.702
 703  863.733
 704  778.9196
 705  876.7737
 706  970.8895
 707  1018.606
 708  955.2296
 709  961.4297
 710  1169.758
 711  1169.862
 712  1170.86
 713  1125.279
 714  999.6489
 715  1077.847
 716  1027.387
 717  1077.862
 718  996.4808
 719  964.3619
 720  1033.496
 721  1082.739
 722  994.5495
 723  1071.797
 724  1072.808
 725  1080.441
 726  942.3711
 727  915.4539
 728  1017.404
 729  1003.121
 730  963.2543
 731  988.4066
 732  1002.034
 733  978.459
 734  924.1975
 735  942.7057
 736  865.7787
 737  850.8193
 738  964.9305
 739  1121.818
 740  1119.665
 741  1127.376
 742  1154.316
 743  1143.698
 744  978.6099
 745  736.6813
 746  728.4887
 747  910.5604
 748  933.6613
 749  865.1739
 750  796.557
 751  911.1522
 752  981.0161
 753  1008.047
 754  972.4962
 755  928.6749
 756  986.45
 757  1079.057
 758  1046.762
 759  984.7729
 760  1021.581
 761  1068.819
 762  941.9156
 763  846.7401
 764  881.2218
 765  951.658
 766  935.8276
 767  975.7349
 768  1188.913
 769  1289.877
 770  1348.128
 771  1215.479
 772  1240.385
 773  993.4503
 774  878.0624
 775  762.8732
 776  911.5039
 777  886.8966
 778  914.3665
 779  892.8293
 780  905.0527
 781  903.0435
 782  1027.942
 783  983.4114
 784  1047.194
 785  983.4057
 786  1050.391
 787  861.544
 788  876.9182
 789  943.534
 790  1020.415
 791  1026.304
 792  990.9315
 793  1163.043
 794  1238.897
 795  1114.21
 796  1146.17
 797  1041.866
 798  937.7159
 799  860.382
 800  890.8914
 801  978.2393
 802  887.2635
 803  993.7066
 804  1155.954
 805  1133.624
 806  1080.23
 807  1031.367
 808  1094.579
 809  1155.269
 810  1229.08
 811  1264.666
 812  1059.977
 813  941.3635
 814  818.9877
 815  880.7839
 816  942.1257
 817  1091.622
 818  1026.927
 819  1042.062
 820  957.2525
 821  941.1675
 822  881.9349
 823  848.1012
 824  915.8745
 825  1088.874
 826  1118.454
 827  1074.244
 828  1005.58
 829  1003.603
 830  852.7291
 831  798.1698
 832  823.4924
 833  882.974
 834  842.6796
 835  831.8948
 836  1002.155
 837  1030.891
 838  993.722
 839  979.4865
 840  1011.883
 841  946.4424
 842  816.6671
 843  821.0054
 844  837.5967
 845  905.4617
 846  883.5615
 847  917.8612
 848  925.34
 849  777.7403
 850  662.5702
 851  712.5078
 852  754.8104
 853  896.9223
 854  926.8181
 855  973.944
 856  934.9742
 857  988.2576
 858  1064.922
 859  1132.615
 860  1030.445
 861  1044.129
 862  965.8969
 863  1054.019
 864  961.4
 865  836.143
 866  879.068
 867  976.0464
 868  1215.073
 869  1207.201
 870  1074.174
 871  1038.301
 872  1075.16
 873  1049.854
 874  1002.234
 875  906.7122
 876  953.0508
 877  919.1078
 878  877.1633
 879  1084.316
 880  1075.99
 881  1065.142
 882  950.1352
 883  1024.512
 884  1015.106
 885  939.7471
 886  849.4883
 887  1050.861
 888  1075.225
 889  1172.488
 890  1195.909
 891  1235.721
 892  1172.378
 893  1162.434
 894  1154.419
 895  1099.262
 896  953.6901
 897  975.2442
 898  1092.604
 899  1116.146
 900  1086.807
 901  1218.18
 902  1215.752
 903  1279.969
 904  1102.22
 905  1189.019
 906  1176.174
 907  1180.033
 908  1130.042
 909  1086.589
 910  1035.571
 911  1003.609
 912  977.4115
 913  1092.169
 914  1034.909
 915  1083.695
 916  1063.671
 917  1058.102
 918  932.2885
 919  898.0452
 920  984.7798
 921  1007.354
 922  1106.896
 923  994.9648
 924  1044.68
 925  833.4996
 926  819.0685
 927  861.4195
 928  1111.637
 929  1242.867
 930  1111.741
 931  1084.368
 932  1123.969
 933  1216.921
 934  1050.915
 935  928.5029
 936  936.3505
 937  1025.694
 938  1132.512
 939  1142.224
 940  1078.241
 941  1108.217
 942  1223.771
 943  1172.776
 944  1130.266
 945  954.4626
 946  967.7391
 947  936.7634
 948  959.2062
 949  884.8242
 950  738.6978
 951  631.0164
 952  688.3964
 953  806.4026
 954  864.7219
 955  774.9706
 956  651.9368
 957  540.8055
 958  565.3414
 959  513.6208
 960  627.7026
 961  709.764
 962  778.551
 963  753.9911
 964  738.5311
 965  833.5932
 966  850.9028
 967  933.0693
 968  1029.285
 969  1059.588
 970  972.2648
 971  923.3823
 972  802.3734
 973  669.4744
 974  701.9033
 975  776.9168
 976  842.9672
 977  711.3505
 978  709.9644
 979  893.4091
 980  979.4309
 981  987.767
 982  821.2806
 983  890.0754
 984  821.7687
 985  799.2856
 986  771.1404
 987  719.2297
 988  488.5434
 989  469.5798
 990  565.7234
 991  607.6797
 992  501.9551
 993  506.7854
 994  598.9449
 995  640.6287
 996  594.8221
 997  750.2411
 998  810.124
 999  730.3615
1000  564.9639
1001  673.2769
1002  714.7759
1003  691.8459
1004  788.6378
1005  884.4738
1006  994.8984
1007  950.8621
1008  907.965
1009  923.336
1010  774.8891
1011  759.2686
1012  898.6533
1013  991.4732
1014  1068.281
1015  973.7437
1016  960.1127
1017  938.5284
1018  1070.914
1019  1042.375
1020  1087.502
1021  1004.354
1022  1023.265
1023  941.4623
