# Input file       =  1201619709.104547_cleaned.dat
# Candidate        =  PSR_0332+5434
# Telescope        =  AR
# Epoch_topo       =  58151.635741950777
# Epoch_bary       =  N/A
# T_sample         =  0.002
# Data Folded      =  7340032
# Data Avg         =  0.112395450183872
# Data StdDev      =  4.1663733703196  
# Profile Bins     =  512
# Profile Avg      =  1611.3485279383  
# Profile StdDev   =  498.852534307666 
# Reduced chi-sqr  =  0.737
# Prob(Noise)      <  1   (~0.0 sigma)
# P_topo (ms)      =  714.576554795681  +/- 0.000221
# P'_topo (s/s)    =  -0                +/- 1.17e-10
# P''_topo (s/s^2) =  0                 +/- 5.14e-14
# P_bary (ms)      =  N/A
# P'_bary (s/s)    =  N/A
# P''_bary (s/s^2) =  N/A
# P_orb (s)        =  N/A
# asin(i)/c (s)    =  N/A
# eccentricity     =  N/A
# w (rad)          =  N/A
# T_peri           =  N/A
######################################################
   0  1058.317
   1  1528.828
   2  1459.362
   3  1430.532
   4  1690.429
   5  1817.304
   6  1840.283
   7  1784.347
   8  2001.906
   9  1560.252
  10  1214.493
  11  1673.321
  12  1672.356
  13  1397.066
  14  1235.394
  15  1463.513
  16  1712.393
  17  1706.749
  18  1660.187
  19  2026.146
  20  1708.909
  21  1753.126
  22  1678.429
  23  2011.589
  24  2171.051
  25  2103.97
  26  2074.003
  27  1854.106
  28  1353.673
  29  1414.065
  30  1760.402
  31  1717.879
  32  1518.009
  33  1697.052
  34  1403.061
  35  1473.81
  36  1361.674
  37  1423.019
  38  1661.269
  39  1590.044
  40  1347.285
  41  865.1887
  42  1070.001
  43  1046.741
  44  1346.088
  45  1393.234
  46  1491.388
  47  1772.684
  48  1696.909
  49  1184.985
  50  1254.146
  51  1633.583
  52  1840.695
  53  1186.355
  54  1362.583
  55  1356.926
  56  1316.245
  57  1381.296
  58  1518.465
  59  1362.739
  60  1188.257
  61  1269.247
  62  1361.922
  63  1252.357
  64  1226.643
  65  1146.167
  66  1228.382
  67  1410.668
  68  1076.039
  69  1495.863
  70  1748.334
  71  1382.797
  72  1299.367
  73  1084.983
  74  1083.477
  75  1208.409
  76  1757.838
  77  1673.765
  78  1561.61
  79  1298.107
  80  1431.612
  81  1342.786
  82  1884.461
  83  1681.093
  84  1903.773
  85  1528.139
  86  1572.162
  87  1617.692
  88  1399.576
  89  1683.371
  90  2089.444
  91  1983.963
  92  1835.86
  93  1211.46
  94  1427.191
  95  1582.807
  96  1351.906
  97  1047.602
  98  1476.31
  99  1651.28
 100  1556.365
 101  1469.192
 102  1349.851
 103  1570.842
 104  1521.618
 105  2004.052
 106  2025.587
 107  1388.653
 108  1598.529
 109  1757.398
 110  1407.67
 111  1512.876
 112  1795.362
 113  1511.223
 114  1315.99
 115  1485.709
 116  1805.073
 117  1593.365
 118  1458.041
 119  1597.08
 120  1431.166
 121  1495.025
 122  1574.666
 123  1659.262
 124  1575.17
 125  1454.414
 126  1660.331
 127  1818.924
 128  1780.802
 129  1311.463
 130  1176.204
 131  1517.992
 132  1711.222
 133  1604.659
 134  1538.088
 135  1634.88
 136  1333.937
 137  1279.971
 138  1163.207
 139  998.731
 140  1418.771
 141  1601.478
 142  1736.148
 143  1650.748
 144  1242.05
 145  1317.083
 146  1486.901
 147  1370.29
 148  1415.909
 149  1459.531
 150  1590.861
 151  1788.153
 152  1604.884
 153  1360.035
 154  1633.366
 155  1767.456
 156  1453.031
 157  1275.156
 158  1752.468
 159  1486.711
 160  1186.752
 161  1502.504
 162  1606.475
 163  1579.862
 164  1882.516
 165  2054.663
 166  2018.964
 167  1594.498
 168  1604.357
 169  1637.655
 170  1847.964
 171  2179.863
 172  2119.618
 173  1972.055
 174  1954.173
 175  1651.538
 176  1768.201
 177  2156.58
 178  2053.818
 179  2258.533
 180  1791.786
 181  1763.689
 182  1654.479
 183  1686.692
 184  1906.913
 185  1922.42
 186  1988.436
 187  1679.353
 188  1453.683
 189  1967.33
 190  2085.81
 191  2194.742
 192  1763.583
 193  1647.004
 194  1640.474
 195  1376.516
 196  1036.094
 197  1266.756
 198  1417.157
 199  1608.686
 200  1402.888
 201  1510.88
 202  1482.142
 203  1495.527
 204  1166.875
 205  1432.63
 206  1752.515
 207  1807.827
 208  1890.606
 209  1303.674
 210  1439.986
 211  1003.037
 212  1388.193
 213  1653.442
 214  1689.561
 215  1818.865
 216  1645.535
 217  1537.462
 218  1448.17
 219  2000.822
 220  2005.028
 221  2062.848
 222  2171.44
 223  1986.153
 224  1670.051
 225  1503.221
 226  1865.463
 227  2187.494
 228  2237.145
 229  2303.285
 230  2363.225
 231  2661.178
 232  2794.772
 233  2783.289
 234  2990.017
 235  2592.627
 236  1910.18
 237  1659.979
 238  1567.045
 239  1734.433
 240  1742.505
 241  1731.114
 242  1968.653
 243  1453.853
 244  1370.617
 245  1459.827
 246  1701.243
 247  1525.246
 248  1819.169
 249  1778.323
 250  1230.34
 251  1246.083
 252  1668.452
 253  1623.237
 254  1589.467
 255  1369.633
 256  1513.225
 257  1097.166
 258  996.0887
 259  865.5142
 260  850.2891
 261  1520.021
 262  1751.505
 263  1585.95
 264  1368.761
 265  1187.043
 266  1262.056
 267  1507.811
 268  1554.444
 269  1050.893
 270  839.6249
 271  1283.775
 272  1353.558
 273  1607
 274  1456.756
 275  1511.588
 276  1545.261
 277  1303.26
 278  1392.906
 279  1624.141
 280  1675.68
 281  1858.037
 282  1685.998
 283  1807.831
 284  1652.854
 285  1421.884
 286  1931.983
 287  2077.08
 288  2247.559
 289  2020.214
 290  1844.691
 291  1946.398
 292  2023.033
 293  1917.046
 294  1724.295
 295  1634.538
 296  1749.73
 297  1564.201
 298  1719.478
 299  1587.925
 300  1788.865
 301  2033.103
 302  1604.009
 303  1761.001
 304  1421.881
 305  1408.283
 306  1490.504
 307  1911.055
 308  1840.003
 309  1487.382
 310  1345.486
 311  1465.719
 312  1658.769
 313  1705.159
 314  1558.953
 315  1265.584
 316  1034.685
 317  1402.133
 318  1512.168
 319  1566.203
 320  1643.335
 321  2024.333
 322  1764.73
 323  1907.5
 324  1874.988
 325  1828.997
 326  1912.684
 327  1736.333
 328  1382.512
 329  2015.877
 330  2458.875
 331  2123.374
 332  2088.613
 333  1741.742
 334  1776.683
 335  2041.521
 336  1735.485
 337  1809.996
 338  1935.653
 339  1904.398
 340  1658.744
 341  1429.252
 342  1205.305
 343  1145.609
 344  1284.955
 345  1846.194
 346  1806.641
 347  1615.364
 348  1567.571
 349  1192.162
 350  1169.366
 351  1455.868
 352  1498.914
 353  1387.973
 354  1145.432
 355  1452.177
 356  1720.473
 357  1934.158
 358  1651.775
 359  1579.504
 360  1447.585
 361  1181.839
 362  1004.599
 363  1487.807
 364  1615.823
 365  1554.335
 366  1467.229
 367  1094.312
 368  1031.841
 369  1181.921
 370  1398.945
 371  1257.166
 372  1529.046
 373  1877.031
 374  1869.528
 375  1757.436
 376  1601.433
 377  1699.281
 378  2209.466
 379  1861.188
 380  1705.624
 381  1575.652
 382  1226.747
 383  1441.712
 384  1489.475
 385  1704.257
 386  1474.589
 387  1404.994
 388  1977.259
 389  1748.226
 390  1795.223
 391  1356.383
 392  1651.258
 393  1775.823
 394  1379.331
 395  1457.246
 396  1646.606
 397  1336.958
 398  1589.124
 399  1815.662
 400  1467.255
 401  1143.968
 402  1648.946
 403  1678.524
 404  1482.154
 405  1618.27
 406  1441.527
 407  1531.829
 408  1328.929
 409  1349.193
 410  1469.185
 411  1500.306
 412  1193.51
 413  1124.77
 414  1790.386
 415  1340.856
 416  1700.721
 417  1778.722
 418  1421.273
 419  1474.238
 420  1213.086
 421  1328.396
 422  1654.865
 423  1812.564
 424  1481.804
 425  1342.664
 426  1386.871
 427  1731.734
 428  1617.322
 429  2032.871
 430  1478.357
 431  1406.353
 432  1144.872
 433  1363.734
 434  1590.684
 435  1759.648
 436  1555.763
 437  1324.597
 438  1698.773
 439  1377.988
 440  1143.517
 441  1403.77
 442  1715.543
 443  1753.028
 444  1657.524
 445  1666.88
 446  1535.401
 447  1438.136
 448  1595.323
 449  1560.553
 450  1697.395
 451  1877.413
 452  2142.253
 453  2129.23
 454  1667.735
 455  1695.868
 456  1439.002
 457  1596.655
 458  1844.25
 459  1810.366
 460  1501.288
 461  1788.654
 462  1482.56
 463  1212.298
 464  1508.545
 465  1888.648
 466  2063.81
 467  2476.216
 468  2291.4
 469  2050.714
 470  1964.233
 471  2316.515
 472  2309.358
 473  2291.084
 474  2145.725
 475  1996.875
 476  1909.129
 477  2303.836
 478  2243.458
 479  2069.78
 480  1831.669
 481  1587.799
 482  1590.215
 483  1780.228
 484  1696.006
 485  1617.774
 486  1944.748
 487  1707.69
 488  1849.399
 489  1482.4
 490  1202.656
 491  1309.346
 492  1606.289
 493  2035.643
 494  1669.166
 495  1791.673
 496  1811.011
 497  1573.607
 498  1589.024
 499  1471.515
 500  1574.728
 501  1499.19
 502  1281.903
 503  1287.872
 504  1028.944
 505  1077.815
 506  1595.055
 507  1537.2
 508  1477.656
 509  1732.943
 510  1753.229
 511  1447.851
