# Input file       =  1201777429.120752_cleaned.dat
# Candidate        =  PSR_0332+5434
# Telescope        =  AR
# Epoch_topo       =  58153.461205101295
# Epoch_bary       =  N/A
# T_sample         =  0.002
# Data Folded      =  7143424
# Data Avg         =  0.125032296338024
# Data StdDev      =  4.84448483173342 
# Profile Bins     =  1024
# Profile Avg      =  872.262821508898 
# Profile StdDev   =  404.623252168519 
# Reduced chi-sqr  =  2.065
# Prob(Noise)      <  4.91e-78   (~18.7 sigma)
# P_topo (ms)      =  714.577210878284  +/- 1.66e-05
# P'_topo (s/s)    =  -0                +/- 8.98e-12
# P''_topo (s/s^2) =  0                 +/- 4.07e-15
# P_bary (ms)      =  N/A
# P'_bary (s/s)    =  N/A
# P''_bary (s/s^2) =  N/A
# P_orb (s)        =  N/A
# asin(i)/c (s)    =  N/A
# eccentricity     =  N/A
# w (rad)          =  N/A
# T_peri           =  N/A
######################################################
   0  940.368
   1  1008.645
   2  1167.393
   3  1047.637
   4  948.2958
   5  912.7311
   6  663.3563
   7  491.1651
   8  315.9332
   9  525.185
  10  534.9344
  11  543.8601
  12  603.1786
  13  612.8887
  14  845.65
  15  1060.966
  16  1232.164
  17  1188.294
  18  1091.544
  19  1260.996
  20  1413.397
  21  1159.416
  22  1094.654
  23  774.3367
  24  658.4601
  25  473.239
  26  344.6531
  27  454.0442
  28  497.4478
  29  522.048
  30  474.1653
  31  522.2015
  32  733.1853
  33  808.2811
  34  994.7371
  35  1092.256
  36  1065.227
  37  1110.485
  38  984.5976
  39  933.8635
  40  759.037
  41  564.1752
  42  493.8785
  43  452.409
  44  536.1351
  45  695.133
  46  1006.04
  47  1150.394
  48  1060.631
  49  1085.519
  50  1200.108
  51  1309.031
  52  1414.738
  53  1253.912
  54  1114.113
  55  934.89
  56  776.175
  57  816.179
  58  526.5455
  59  418.9724
  60  308.8599
  61  416.6733
  62  527.1956
  63  515.3719
  64  610.6017
  65  704.5594
  66  833.6283
  67  878.4146
  68  710.7142
  69  711.1041
  70  755.4993
  71  824.4338
  72  825.8505
  73  717.2277
  74  744.4824
  75  747.4073
  76  659.2745
  77  583.0984
  78  538.7922
  79  696.6352
  80  853.6252
  81  963.0208
  82  1015.861
  83  1002.623
  84  1209.272
  85  1289.841
  86  1246.566
  87  1266.872
  88  1123.519
  89  953.986
  90  601.3082
  91  393.2764
  92  312.9834
  93  339.5892
  94  572.8977
  95  612.1802
  96  666.4539
  97  588.5729
  98  702.9102
  99  886.9784
 100  1013.219
 101  957.8714
 102  1080.914
 103  1064.993
 104  981.5636
 105  728.2842
 106  456.1688
 107  487.735
 108  486.7992
 109  582.6105
 110  643.1291
 111  860.1611
 112  1044.88
 113  1099.136
 114  1205.623
 115  1264.205
 116  1290.715
 117  1391.774
 118  1377.068
 119  1270.365
 120  1111.117
 121  883.9409
 122  764.0615
 123  504.1765
 124  436.9921
 125  586.4055
 126  610.8434
 127  702.9984
 128  527.551
 129  524.1132
 130  598.8616
 131  735.7583
 132  1024.285
 133  973.1937
 134  1003.807
 135  1025.457
 136  997.9205
 137  797.5628
 138  598.5077
 139  484.3854
 140  569.171
 141  413.2045
 142  498.1276
 143  563.7036
 144  845.825
 145  958.9256
 146  1149.134
 147  1189.522
 148  1326.687
 149  1461.11
 150  1645.24
 151  1384.082
 152  1358.51
 153  1129.882
 154  1056.654
 155  787.9171
 156  533.4677
 157  386.3625
 158  458.915
 159  514.2196
 160  615.3492
 161  566.3315
 162  716.0345
 163  791.4028
 164  954.0833
 165  1011.294
 166  915.2
 167  993.1722
 168  937.0475
 169  813.6745
 170  705.9445
 171  540.9593
 172  591.4693
 173  439.6219
 174  368.8812
 175  438.0914
 176  555.9548
 177  825.142
 178  898.6978
 179  1140.586
 180  1241.13
 181  1221.592
 182  1417.909
 183  1589.606
 184  1575.927
 185  1466.514
 186  1211.445
 187  1195.984
 188  896.8216
 189  869.4102
 190  829.519
 191  688.1431
 192  525.3752
 193  468.9556
 194  677.8065
 195  696.3561
 196  697.988
 197  823.2843
 198  911.0984
 199  1052.756
 200  1128.238
 201  991.1638
 202  893.4254
 203  681.5903
 204  786.5835
 205  803.1458
 206  535.5029
 207  460.8828
 208  450.0708
 209  650.1002
 210  606.8555
 211  761.3809
 212  1079.12
 213  1381.171
 214  1533.6
 215  1472.244
 216  1297.045
 217  1413.816
 218  1461.327
 219  1511.512
 220  1290.777
 221  927.2459
 222  743.1887
 223  484.1422
 224  358.0052
 225  268.6848
 226  319.358
 227  496.7979
 228  595.8831
 229  879.1602
 230  901.2642
 231  949.4595
 232  1100.33
 233  1211.231
 234  1137.839
 235  1088.01
 236  924.9083
 237  994.0333
 238  779.3542
 239  641.6528
 240  445.6104
 241  368.4378
 242  486.6953
 243  639.9311
 244  920.8867
 245  1041.205
 246  1105.722
 247  1220.47
 248  1270.713
 249  1270.237
 250  1310.996
 251  1284.418
 252  1305.51
 253  1156.307
 254  914.4272
 255  733.0266
 256  414.4426
 257  362.4874
 258  341.0782
 259  421.4619
 260  434.4211
 261  595.4081
 262  741.0392
 263  799.8671
 264  904.8111
 265  1031.531
 266  988.0144
 267  1039.743
 268  927.3062
 269  880.1643
 270  787.83
 271  702.5322
 272  674.612
 273  647.3082
 274  635.0732
 275  815.3356
 276  890.4437
 277  1010.282
 278  1038.366
 279  1156.513
 280  1159.069
 281  1063.344
 282  1191.792
 283  1239.723
 284  1094.395
 285  1120.758
 286  1041.941
 287  1023.053
 288  761.7755
 289  584.6784
 290  588.2894
 291  648.9293
 292  751.2698
 293  732.535
 294  650.5541
 295  654.341
 296  764.2836
 297  945.2277
 298  1000.986
 299  902.3412
 300  1023.606
 301  879.3419
 302  797.1846
 303  666.8223
 304  623.8696
 305  620.0436
 306  576.7028
 307  660.0864
 308  707.2054
 309  792.7906
 310  1113.525
 311  1176.72
 312  1282.758
 313  1223.915
 314  1215.433
 315  1360.133
 316  1379.372
 317  1387.327
 318  1257.438
 319  955.9803
 320  933.405
 321  549.2815
 322  368.8313
 323  305.4548
 324  340.1581
 325  616.6018
 326  867.4705
 327  1027.83
 328  1021.916
 329  1006.001
 330  1137.831
 331  1128.657
 332  1179.85
 333  1183.18
 334  1097.02
 335  1237.011
 336  910.2958
 337  712.5964
 338  536.7125
 339  522.0569
 340  583.3729
 341  428.9102
 342  705.1104
 343  809.4179
 344  1233.151
 345  1240.695
 346  1195.679
 347  1183.829
 348  1259.12
 349  1256.955
 350  1308.813
 351  1157.912
 352  1039.807
 353  795.964
 354  585.7557
 355  523.2079
 356  434.6293
 357  475.5299
 358  414.0045
 359  468.4278
 360  529.6661
 361  541.2208
 362  756.8475
 363  859.7327
 364  913.0254
 365  1128.44
 366  1214.583
 367  1128.261
 368  827.1316
 369  619.8156
 370  668.6128
 371  485.1058
 372  450.9358
 373  461.5381
 374  596.6118
 375  660.5232
 376  691.733
 377  917.7236
 378  937.7384
 379  1061.05
 380  1241.078
 381  1346.327
 382  1373.493
 383  1326.741
 384  1288.311
 385  1226.96
 386  926.6779
 387  683.3079
 388  496.1115
 389  321.8549
 390  393.3537
 391  416.0792
 392  591.9651
 393  596.7949
 394  594.5924
 395  612.882
 396  631.2866
 397  897.3925
 398  1074.292
 399  1001.932
 400  910.6551
 401  738.9548
 402  745.5515
 403  754.0726
 404  544.7505
 405  498.4796
 406  358.3955
 407  474.3353
 408  524.4545
 409  703.0167
 410  848.9016
 411  884.8248
 412  1051.568
 413  1235.023
 414  1349.938
 415  1506.31
 416  1467.883
 417  1273.896
 418  1053.778
 419  882.6456
 420  812.8837
 421  707.8467
 422  569.6392
 423  514.7866
 424  405.7801
 425  451.5198
 426  475.3981
 427  627.9038
 428  697.4279
 429  760.9715
 430  850.4673
 431  980.9857
 432  1039.455
 433  991.3395
 434  799.9825
 435  716.272
 436  467.3484
 437  462.442
 438  576.189
 439  698.3789
 440  744.2946
 441  837.7357
 442  911.319
 443  1064.68
 444  1099.615
 445  1293.256
 446  1385.668
 447  1428.935
 448  1393.8
 449  1199.624
 450  1198.368
 451  968.2699
 452  807.5688
 453  642.1681
 454  409.9257
 455  465.357
 456  561.6968
 457  743.9902
 458  824.2228
 459  930.3383
 460  928.3228
 461  904.5513
 462  925.5118
 463  1050.533
 464  933.4919
 465  931.8127
 466  827.8448
 467  729.4301
 468  759.9078
 469  517.3217
 470  520.2039
 471  530.2524
 472  705.7031
 473  870.8568
 474  893.1911
 475  1145.878
 476  1156.543
 477  1303.828
 478  1286.813
 479  1322.067
 480  1398.468
 481  1405.278
 482  1417.914
 483  1397.289
 484  1086.721
 485  800.6116
 486  420.2077
 487  427.5624
 488  513.2
 489  501.3945
 490  561.3367
 491  526.807
 492  766.2376
 493  851.6863
 494  970.7039
 495  1076.814
 496  1146.452
 497  1176.186
 498  1155.285
 499  1073.319
 500  973.1609
 501  572.1572
 502  375.9253
 503  449.6225
 504  412.1706
 505  522.5582
 506  553.1345
 507  715.6194
 508  777.6326
 509  1020.327
 510  1155.745
 511  1139.856
 512  1187.89
 513  1342.893
 514  1374.458
 515  1478.176
 516  1386.787
 517  1299.94
 518  1018.53
 519  759.6958
 520  637.7817
 521  522.7505
 522  468.5469
 523  438.3343
 524  553.649
 525  651.9696
 526  695.6306
 527  989.0494
 528  974.4246
 529  959.1352
 530  1001.247
 531  1095.666
 532  1012.741
 533  961.8125
 534  807.4086
 535  736.4727
 536  521.0842
 537  450.1036
 538  325.2397
 539  294.8585
 540  402.9393
 541  568.8482
 542  906.0668
 543  897.0017
 544  1013.657
 545  1186.57
 546  1338.503
 547  1337.334
 548  1313.138
 549  1156.431
 550  918.1738
 551  644.5031
 552  582.615
 553  401.1857
 554  334.6446
 555  423.8433
 556  493.2385
 557  402.0755
 558  502.8028
 559  667.3858
 560  775.5055
 561  705.6619
 562  775.0012
 563  1040.051
 564  1110.713
 565  1199.206
 566  1010.214
 567  784.7883
 568  614.6252
 569  416.6177
 570  508.4486
 571  511.5495
 572  569.6897
 573  689.5396
 574  796.7207
 575  866.8212
 576  928.2363
 577  1002.318
 578  1164.81
 579  1187.532
 580  1376.396
 581  1311.04
 582  1194.98
 583  1175.068
 584  1053.856
 585  805.2523
 586  572.4329
 587  446.8922
 588  595.9638
 589  613.8381
 590  750.2729
 591  778.6701
 592  900.4038
 593  813.1699
 594  792.4428
 595  817.5516
 596  992.5452
 597  1018.073
 598  1132.621
 599  954.5324
 600  875.2755
 601  768.536
 602  658.1953
 603  645.361
 604  636.0456
 605  839.5623
 606  947.2136
 607  1081.812
 608  1329.066
 609  1554.788
 610  1856.141
 611  1942.383
 612  2022.276
 613  2118.34
 614  1963.643
 615  1878.489
 616  1572.196
 617  1387.837
 618  1079.668
 619  903.9926
 620  803.4028
 621  800.2217
 622  683.1938
 623  858.4485
 624  936.1398
 625  1021.565
 626  951.5833
 627  928.4427
 628  1042.079
 629  1025.283
 630  1117.166
 631  872.7217
 632  721.1648
 633  816.2374
 634  523.6751
 635  361.3626
 636  208.1946
 637  466.8041
 638  684.3138
 639  874.2234
 640  1160.598
 641  1290.484
 642  1449.087
 643  1475.858
 644  1327.826
 645  1340.677
 646  1364.209
 647  1507.882
 648  1463.421
 649  1115.524
 650  872.4635
 651  725.8724
 652  602.8148
 653  562.6731
 654  489.137
 655  531.9184
 656  446.777
 657  613.1774
 658  791.7755
 659  855.1606
 660  978.3286
 661  1108.935
 662  1206.233
 663  1286.281
 664  1072.018
 665  899.3924
 666  766.8882
 667  700.0104
 668  534.1887
 669  328.6244
 670  416.2893
 671  619.8879
 672  786.8224
 673  859.2534
 674  884.4316
 675  1262.717
 676  1436.28
 677  1611.378
 678  1608.126
 679  1516.627
 680  1421.712
 681  1218.18
 682  1089.396
 683  926.0074
 684  580.2284
 685  421.9227
 686  252.6803
 687  294.5888
 688  259.355
 689  411.9915
 690  539.5141
 691  678.7231
 692  969.0959
 693  1163.221
 694  1241.927
 695  1286.032
 696  1306.593
 697  1258.315
 698  1200.101
 699  851.7882
 700  689.4055
 701  400.707
 702  341.0135
 703  294.3948
 704  377.3275
 705  480.9805
 706  734.5862
 707  1042.444
 708  1256.595
 709  1181.793
 710  1328.795
 711  1521.282
 712  1651.036
 713  1602.926
 714  1251.894
 715  1069.493
 716  871.6558
 717  815.7241
 718  827.1221
 719  642.0784
 720  685.8226
 721  663.2341
 722  751.2227
 723  728.3057
 724  792.3887
 725  1016.854
 726  1065.307
 727  1138.295
 728  1309.959
 729  1343.085
 730  1163.217
 731  968.4581
 732  638.2374
 733  517.8147
 734  448.9458
 735  630.2395
 736  726.4494
 737  676.5699
 738  794.9353
 739  839.5931
 740  910.3953
 741  932.2564
 742  1029.2
 743  1331.815
 744  1275.058
 745  1175.03
 746  1116.706
 747  1061.452
 748  1078.323
 749  822.4043
 750  753.2198
 751  690.19
 752  591.2403
 753  561.5547
 754  573.8279
 755  553.2635
 756  668.9822
 757  724.6971
 758  854.1285
 759  808.96
 760  963.9713
 761  1070.126
 762  1125.705
 763  1185.274
 764  974.2784
 765  792.056
 766  706.2112
 767  666.6623
 768  682.3016
 769  515.4377
 770  612.7695
 771  693.4308
 772  993.657
 773  1028.7
 774  1039.869
 775  1160.915
 776  1277.905
 777  1320.597
 778  1439.963
 779  1346.843
 780  1408.252
 781  1379.161
 782  1063.52
 783  772.0939
 784  454.3664
 785  547.1445
 786  517.2458
 787  554.1948
 788  663.3987
 789  723.5222
 790  908.5836
 791  948.3162
 792  957.5009
 793  973.9598
 794  915.9606
 795  965.0261
 796  1074.621
 797  920.1864
 798  770.0786
 799  462.2946
 800  486.8061
 801  417.7388
 802  418.9568
 803  537.2131
 804  680.0048
 805  888.5756
 806  1056.974
 807  1255.801
 808  1393.727
 809  1355.159
 810  1386.035
 811  1345.472
 812  1241.226
 813  1230.854
 814  1070.82
 815  872.2632
 816  529.0667
 817  362.4931
 818  467.767
 819  433.9384
 820  531.3356
 821  616.6758
 822  896.2564
 823  918.5234
 824  935.2946
 825  1019.603
 826  1135.15
 827  1171.867
 828  1195.629
 829  1065.18
 830  869.5298
 831  829.6599
 832  673.0659
 833  556.2741
 834  225.9578
 835  276.0237
 836  426.4229
 837  715.5907
 838  904.6041
 839  1004.547
 840  1145.206
 841  1196.555
 842  1240.321
 843  1409.504
 844  1355.7
 845  1383.674
 846  1262.967
 847  1026.711
 848  720.3568
 849  437.6493
 850  432.8759
 851  395.0175
 852  385.5117
 853  390.585
 854  456.9538
 855  560.5017
 856  779.5905
 857  937.2191
 858  977.9354
 859  936.5261
 860  1109.767
 861  1328.117
 862  1219.202
 863  1119.191
 864  902.8704
 865  662.7458
 866  493.2873
 867  373.0464
 868  393.3628
 869  404.9079
 870  598.8099
 871  905.2492
 872  1018.769
 873  1135.661
 874  1202.171
 875  1411.01
 876  1537.553
 877  1498.517
 878  1541.428
 879  1325.912
 880  1216.384
 881  1003.482
 882  716.042
 883  530.9521
 884  420.5216
 885  545.0233
 886  647.6843
 887  678.1703
 888  588.6357
 889  480.2296
 890  631.2288
 891  792.984
 892  873.751
 893  922.867
 894  898.6324
 895  832.8545
 896  960.6321
 897  784.7973
 898  754.708
 899  605.4241
 900  564.1103
 901  584.5775
 902  514.9027
 903  670.0874
 904  764.6191
 905  1176.395
 906  1320.432
 907  1223.973
 908  1339.092
 909  1366.13
 910  1571.166
 911  1421.582
 912  1361.671
 913  1258.25
 914  1154.321
 915  806.7094
 916  740.3728
 917  628.4349
 918  650.0143
 919  588.4233
 920  684.1515
 921  695.9173
 922  552.9628
 923  568.6283
 924  653.6613
 925  863.658
 926  1009.404
 927  1058.531
 928  1097.823
 929  994.4606
 930  904.0419
 931  839.8402
 932  604.4678
 933  595.4026
 934  527.4088
 935  642.8478
 936  857.0552
 937  1041.047
 938  1121.19
 939  1071.48
 940  1148.505
 941  1185.209
 942  977.858
 943  1092.373
 944  1163.629
 945  1287.621
 946  1310.253
 947  1037.126
 948  914.4409
 949  535.0949
 950  527.3757
 951  546.8015
 952  609.7159
 953  657.6047
 954  719.1685
 955  940.7019
 956  982.8411
 957  873.4973
 958  1014.913
 959  1076.929
 960  1019.289
 961  877.2466
 962  728.5538
 963  755.862
 964  690.0506
 965  636.212
 966  649.4554
 967  502.4585
 968  606.8718
 969  649.1229
 970  946.5739
 971  938.0738
 972  1101.688
 973  1224.202
 974  1358.307
 975  1268.593
 976  1305.231
 977  1131.147
 978  1220.402
 979  1106.079
 980  862.0084
 981  635.641
 982  429.5262
 983  432.873
 984  322.9142
 985  325.2563
 986  459.4114
 987  566.3635
 988  574.0527
 989  509.9547
 990  764.1566
 991  991.7995
 992  1112.115
 993  1173.719
 994  1197.398
 995  1026.229
 996  794.1612
 997  554.4575
 998  516.2081
 999  298.1359
1000  162.8667
1001  458.1891
1002  763.5081
1003  923.0875
1004  993.0501
1005  1173.238
1006  1274.428
1007  1205.65
1008  1316.794
1009  1288.815
1010  1217.302
1011  1190.072
1012  1019.288
1013  804.48
1014  657.4344
1015  525.5864
1016  573.4198
1017  468.2154
1018  565.2197
1019  626.6645
1020  797.9727
1021  781.6666
1022  810.1677
1023  810.9003
