# Input file       =  1201979202.113353_cleaned.dat
# Candidate        =  PSR_0332+5434
# Telescope        =  AR
# Epoch_topo       =  58155.796540663810
# Epoch_bary       =  N/A
# T_sample         =  0.002
# Data Folded      =  7340032
# Data Avg         =  0.118442377896697
# Data StdDev      =  3.89600899543078 
# Profile Bins     =  512
# Profile Avg      =  1698.16975853605 
# Profile StdDev   =  466.480986774122 
# Reduced chi-sqr  =  0.910
# Prob(Noise)      <  0.927   (~0.0 sigma)
# P_topo (ms)      =  714.578352923451  +/- 0.000203
# P'_topo (s/s)    =  -0                +/- 1.07e-10
# P''_topo (s/s^2) =  0                 +/- 4.72e-14
# P_bary (ms)      =  N/A
# P'_bary (s/s)    =  N/A
# P''_bary (s/s^2) =  N/A
# P_orb (s)        =  N/A
# asin(i)/c (s)    =  N/A
# eccentricity     =  N/A
# w (rad)          =  N/A
# T_peri           =  N/A
######################################################
   0  1819.359
   1  2100.042
   2  1797.854
   3  1594.388
   4  1749.95
   5  1634.725
   6  1378.535
   7  1154.198
   8  1608.869
   9  1848.927
  10  1495.759
  11  1509.907
  12  1094.782
  13  1425.549
  14  1576.366
  15  1444.43
  16  1408.872
  17  1546.204
  18  1649.271
  19  1727.198
  20  1708.686
  21  1504.181
  22  1230.442
  23  1336.481
  24  1378.674
  25  1503.852
  26  1510.358
  27  1438.141
  28  1655.196
  29  1594.643
  30  1460.082
  31  1113.72
  32  1469.843
  33  1967.006
  34  1960.238
  35  1318.969
  36  1276.4
  37  1747.433
  38  1785.274
  39  1810.352
  40  1904.008
  41  1623.691
  42  1787.335
  43  1707.615
  44  1527.844
  45  1458.297
  46  1606.753
  47  1685.65
  48  1929.152
  49  1908.756
  50  1650.339
  51  1554.098
  52  1858.975
  53  1612.224
  54  1255.223
  55  1250.484
  56  1453.307
  57  1686.504
  58  1523.507
  59  1778.146
  60  1593.05
  61  1508.531
  62  1544.833
  63  1732.692
  64  2008.415
  65  1381.916
  66  1244.698
  67  1342.814
  68  1446.707
  69  1710.777
  70  1894.3
  71  1788.47
  72  1600.646
  73  2158.487
  74  1697.097
  75  1863.309
  76  1822.487
  77  1665.246
  78  1443.987
  79  1368.367
  80  1504.478
  81  1534.89
  82  1232.333
  83  1504.836
  84  1691.634
  85  1534.788
  86  1633.984
  87  1616.374
  88  1658.54
  89  1530.253
  90  1689.045
  91  1597.983
  92  1289.297
  93  1282.19
  94  1196.308
  95  1667.338
  96  1526.367
  97  1592.864
  98  1291.62
  99  1499.715
 100  1432.63
 101  1534.95
 102  1049.206
 103  1150.211
 104  1438.857
 105  1209.658
 106  1560.649
 107  1498.483
 108  1443.851
 109  1799.614
 110  1448.867
 111  1493.198
 112  1443.18
 113  1638.031
 114  1725.29
 115  1620.807
 116  1606.893
 117  1687.145
 118  1588.822
 119  1639.711
 120  1570.557
 121  1517.116
 122  1834.126
 123  1575.181
 124  1315.31
 125  1396.409
 126  1343.16
 127  1367.321
 128  1542.607
 129  1621.034
 130  1577.945
 131  1514.556
 132  1029.182
 133  966.7903
 134  1305.254
 135  1252.687
 136  1137.851
 137  1513.99
 138  1770.14
 139  1437.486
 140  1147.643
 141  1388.513
 142  1728.462
 143  1705.149
 144  1744.995
 145  1362.154
 146  1189.73
 147  1489.367
 148  1408.817
 149  1218.01
 150  1827.703
 151  1898.058
 152  1682.173
 153  1321.452
 154  1107.836
 155  1462.466
 156  1667.607
 157  1566.226
 158  1171.693
 159  1022.595
 160  793.8499
 161  774.2617
 162  1255.974
 163  1276.243
 164  1257.594
 165  1214.812
 166  1241.211
 167  1419.722
 168  1386.206
 169  1598.878
 170  1309.589
 171  1440.414
 172  1562.895
 173  1508.809
 174  1280.134
 175  1154.507
 176  1235.892
 177  1334.779
 178  1508.358
 179  1450.761
 180  1670.539
 181  1641.7
 182  1683.211
 183  1438.594
 184  1498.267
 185  1779.027
 186  1735.311
 187  1830.282
 188  1648.49
 189  1933.701
 190  1906.31
 191  1968.062
 192  1862.437
 193  1490.907
 194  1902.994
 195  1720.95
 196  1942.308
 197  1602.545
 198  1714.49
 199  1612.018
 200  1932.248
 201  2020.202
 202  1782.847
 203  1630.861
 204  1558.352
 205  1623.834
 206  1532.473
 207  1598.754
 208  1699.84
 209  1640.115
 210  1656.192
 211  1457.208
 212  1959.735
 213  2028.848
 214  1661.667
 215  1608.643
 216  1486.504
 217  1790.055
 218  2169.324
 219  1809.025
 220  1675.972
 221  1601.439
 222  1522.864
 223  1626.728
 224  1614.736
 225  1596.995
 226  1899.121
 227  1436.611
 228  1230.657
 229  1693.936
 230  1800.411
 231  1912.144
 232  1702.648
 233  1902.667
 234  2278.25
 235  1844.696
 236  1660.767
 237  1617.294
 238  1813.194
 239  1954.491
 240  1794.993
 241  1933.496
 242  1743.542
 243  1963.361
 244  1778.309
 245  1839.827
 246  1923.787
 247  1732.896
 248  1760.907
 249  1735.853
 250  2013.008
 251  1637.509
 252  1603.752
 253  1535.621
 254  1830.427
 255  1569.315
 256  1852.499
 257  1971.216
 258  1744.954
 259  2009.119
 260  1641.249
 261  1154.455
 262  1403.812
 263  1557.744
 264  1713.722
 265  1748.724
 266  1720.354
 267  1586.547
 268  1509.089
 269  1556.842
 270  1616.396
 271  1724.112
 272  1579.167
 273  1865.217
 274  1905.642
 275  1427.176
 276  1431.35
 277  1604.358
 278  1603.776
 279  1554.58
 280  1736.425
 281  1450.817
 282  1514.347
 283  1753.187
 284  1894.498
 285  1735.767
 286  1924.696
 287  2038.878
 288  1877.946
 289  1930.514
 290  1479.568
 291  1673.773
 292  1781.806
 293  2380.043
 294  2459.113
 295  2056.231
 296  1576.865
 297  1608.699
 298  2115.207
 299  2551.876
 300  2587.243
 301  2295.217
 302  2192.12
 303  1876.507
 304  2300.926
 305  3147.806
 306  3391.882
 307  3705.792
 308  3117.147
 309  2884.399
 310  2281.325
 311  1525.329
 312  1700.758
 313  2003.059
 314  2035.663
 315  1784.956
 316  1935.204
 317  2025.119
 318  1840.006
 319  1908.398
 320  2109.425
 321  2345.205
 322  2132.214
 323  1927.875
 324  1896.77
 325  1761.455
 326  1919.168
 327  1685.566
 328  2059.3
 329  2322.343
 330  2175.991
 331  1998.174
 332  1971.587
 333  1768.499
 334  2306.89
 335  2267.281
 336  1785.424
 337  1742.533
 338  1795.437
 339  1842.892
 340  1550.072
 341  1638.225
 342  1589.221
 343  1440.8
 344  1548.084
 345  1741.079
 346  2018.914
 347  1669.69
 348  1726.957
 349  1872.484
 350  1852.229
 351  1598.231
 352  1451.748
 353  1562.342
 354  1868.826
 355  2049.961
 356  1860.07
 357  1869.537
 358  1774.047
 359  1797.589
 360  2039.426
 361  2204.785
 362  1927.647
 363  1897.462
 364  1652.364
 365  2052.695
 366  2278.906
 367  2359.183
 368  2342.979
 369  2176.356
 370  2019.15
 371  1942.07
 372  2032.362
 373  2045.66
 374  1862.328
 375  2053.041
 376  2032.553
 377  1915.033
 378  2171.456
 379  2195.108
 380  2127.851
 381  2140.829
 382  1723.074
 383  1623.358
 384  1746.74
 385  1928.562
 386  1817.481
 387  1809.099
 388  1943.504
 389  1652.315
 390  1198.033
 391  1465.689
 392  1534.595
 393  1412.965
 394  1696.742
 395  1802.602
 396  1623.349
 397  1436.55
 398  1490.713
 399  1748.244
 400  1971.73
 401  1995.33
 402  1870.533
 403  1756.354
 404  1809.866
 405  1581.443
 406  1587.852
 407  1900.983
 408  1806.103
 409  1816.331
 410  1648.023
 411  1776.304
 412  1596.458
 413  2033.009
 414  1783.696
 415  1567.957
 416  1638.076
 417  1682.594
 418  1646.335
 419  2076.774
 420  2028.142
 421  1739.898
 422  1755.365
 423  1945.148
 424  1896.842
 425  1233.117
 426  1284.493
 427  1477.444
 428  1544.944
 429  1518.324
 430  1592.164
 431  1942.797
 432  1431.739
 433  1543.058
 434  1616.601
 435  1869.547
 436  1616.465
 437  1324.556
 438  1593.166
 439  1786.428
 440  1835.447
 441  1894.396
 442  1649.934
 443  1483.843
 444  1486.61
 445  1964.731
 446  1691.76
 447  1206.662
 448  1473.848
 449  1699.312
 450  1808.982
 451  1838.771
 452  1796.971
 453  1509.435
 454  1305.513
 455  1974.788
 456  2101.163
 457  2005.833
 458  2483.294
 459  2161.051
 460  1937.559
 461  1883.299
 462  1925.433
 463  2278.541
 464  2330.622
 465  2537.228
 466  2416.264
 467  2040.813
 468  1873.833
 469  1729.982
 470  1575.402
 471  1533.189
 472  2284.286
 473  2214.772
 474  1751.585
 475  1974.873
 476  1892.698
 477  1979.379
 478  1945.294
 479  1721.291
 480  1610.843
 481  1231.383
 482  1359.753
 483  1774.084
 484  1696.826
 485  1692.43
 486  1541.337
 487  1615.665
 488  1854.636
 489  1646.069
 490  1614.01
 491  1778.063
 492  1718.871
 493  1547.41
 494  1260.427
 495  1351.981
 496  1665.344
 497  1560.98
 498  1675.958
 499  1600.12
 500  1266.417
 501  1141.658
 502  1477.342
 503  1478.254
 504  1448.868
 505  1294.254
 506  1327.137
 507  1824.09
 508  1819.88
 509  1446.303
 510  1345.673
 511  1619.849
