# Input file       =  1201188759.107331_cleaned.dat
# Candidate        =  PSR_0332+5434
# Telescope        =  AR
# Epoch_topo       =  58146.647894760776
# Epoch_bary       =  N/A
# T_sample         =  0.002
# Data Folded      =  7340032
# Data Avg         =  0.0830383708484338
# Data StdDev      =  5.77991431257193 
# Profile Bins     =  512
# Profile Avg      =  1190.48890990855 
# Profile StdDev   =  692.046690641767 
# Reduced chi-sqr  =  0.845
# Prob(Noise)      <  0.995   (~0.0 sigma)
# P_topo (ms)      =  714.574437557353  +/- 2.25e-05
# P'_topo (s/s)    =  -0                +/- 1.18e-11
# P''_topo (s/s^2) =  0                 +/- 5.23e-15
# P_bary (ms)      =  N/A
# P'_bary (s/s)    =  N/A
# P''_bary (s/s^2) =  N/A
# P_orb (s)        =  N/A
# asin(i)/c (s)    =  N/A
# eccentricity     =  N/A
# w (rad)          =  N/A
# T_peri           =  N/A
######################################################
   0  1174.758
   1  594.4487
   2  1261.02
   3  1646.386
   4  1720.716
   5  1852.079
   6  1257.751
   7  1471.572
   8  746.2621
   9  1675.601
  10  2169.273
  11  2263.596
  12  2493.834
  13  1688.983
  14  2092.15
  15  1591.682
  16  1266.538
  17  1251.259
  18  1205.819
  19  1607.248
  20  1675.686
  21  1943.133
  22  1170.126
  23  1472.201
  24  908.0559
  25  1396.894
  26  1666.995
  27  1590.679
  28  1664.58
  29  1287.222
  30  854.275
  31  35.30176
  32  693.7869
  33  491.1748
  34  1278.674
  35  1191.395
  36  1021.351
  37  829.0934
  38  567.5275
  39  1166.235
  40  577.2555
  41  1197.06
  42  1028.181
  43  1524.009
  44  1043.379
  45  934.4758
  46  869.4577
  47  550.6177
  48  1359.611
  49  1579.382
  50  1887.155
  51  1431.839
  52  1963.085
  53  2127.547
  54  1858.058
  55  2207.787
  56  2079.474
  57  1131.985
  58  923.9774
  59  1976.911
  60  1821.209
  61  1687.847
  62  1766.125
  63  1157.311
  64  1415.502
  65  1036.025
  66  1564.438
  67  1402.748
  68  1618.592
  69  992.3127
  70  1442.806
  71  1264.354
  72  1327.822
  73  1902.102
  74  1483.005
  75  2251.492
  76  1210.735
  77  1345.217
  78  1260.236
  79  873.052
  80  1880.687
  81  2022.409
  82  1951.4
  83  798.6931
  84  1388.659
  85  1074.912
  86  1018.59
  87  1352.509
  88  1383.2
  89  1600.453
  90  1411.151
  91  1903.984
  92  1323.658
  93  1520.098
  94  1362.989
  95  1744.907
  96  1261.542
  97  559.5313
  98  294.9454
  99  1284.309
 100  1452.954
 101  943.3879
 102  955.79
 103  874.6063
 104  732.7669
 105  1019.364
 106  1229.197
 107  1295.871
 108  743.3938
 109  1110.499
 110  757.9913
 111  891.959
 112  639.395
 113  617.7365
 114  1420.215
 115  1729.919
 116  1248.852
 117  549.1813
 118  1068.92
 119  695.2825
 120  641.4648
 121  621.6261
 122  817.5856
 123  808.9788
 124  293.633
 125  1155.773
 126  501.673
 127  653.6006
 128  671.689
 129  1273.932
 130  1642.493
 131  692.3308
 132  703.5062
 133  167.794
 134  768.1492
 135  649.1407
 136  1313.26
 137  1173.401
 138  1399.436
 139  1179.853
 140  1214.038
 141  1212.758
 142  1428.597
 143  1784.882
 144  1254.662
 145  1156.359
 146  778.3782
 147  1233.086
 148  1328.007
 149  692.2616
 150  914.7639
 151  774.3557
 152  2022.52
 153  1582.9
 154  1320.626
 155  1197.84
 156  1487.925
 157  1565.311
 158  868.5083
 159  1348.65
 160  443.4783
 161  582.4271
 162  263.1123
 163  966.435
 164  1332.417
 165  1016.945
 166  1489.29
 167  1374.51
 168  989.561
 169  566.5531
 170  1427.103
 171  829.223
 172  1261.366
 173  1149.947
 174  877.6863
 175  961.2094
 176  1248.246
 177  1480.208
 178  1220.356
 179  1334.293
 180  1360.694
 181  1239.283
 182  879.0872
 183  972.0979
 184  1223.552
 185  949.5278
 186  1620.022
 187  1613.432
 188  1069.407
 189  1084.124
 190  1709.587
 191  2173.933
 192  1384.374
 193  1316.303
 194  670.4153
 195  915.9815
 196  1103.371
 197  1455.723
 198  1402.737
 199  1334.129
 200  1517.275
 201  1312.95
 202  1150.922
 203  1163.774
 204  1560.997
 205  1358.173
 206  2074.004
 207  2464.578
 208  1812.993
 209  1555.37
 210  1269.092
 211  1757.752
 212  957.4607
 213  1881.356
 214  1998.571
 215  1946.143
 216  2006.546
 217  1708.944
 218  1312.184
 219  724.5876
 220  1791.282
 221  1995.162
 222  2549.295
 223  2297.276
 224  1752.401
 225  1747.641
 226  1012.13
 227  1584.29
 228  1292.908
 229  1751.683
 230  1342.086
 231  1584.776
 232  1077.939
 233  1004.495
 234  1728.581
 235  1740.996
 236  2058.597
 237  1851.642
 238  1776.418
 239  1289.341
 240  773.8051
 241  693.8234
 242  773.2286
 243  1318.787
 244  1162.32
 245  1795.009
 246  862.0187
 247  1349.707
 248  651.2812
 249  1239.64
 250  1384.478
 251  702.0497
 252  1718.904
 253  1053.632
 254  1256.432
 255  573.4459
 256  989.3357
 257  554.5743
 258  1254.2
 259  1363.034
 260  921.8452
 261  1092.11
 262  811.0712
 263  1453.82
 264  1368.419
 265  1598.7
 266  1242.212
 267  764.6765
 268  1182.536
 269  1226.09
 270  1868.517
 271  1526.593
 272  2087.407
 273  1252.283
 274  1252.43
 275  1258.892
 276  1485.829
 277  1275.254
 278  1071.032
 279  1664.867
 280  1267.7
 281  1534.283
 282  1053.114
 283  800.4994
 284  374.5461
 285  527.9905
 286  1136.091
 287  929.9276
 288  1532.835
 289  1387.763
 290  1435.83
 291  902.7548
 292  594.6481
 293  875.2742
 294  1126.886
 295  1809.03
 296  1435.371
 297  1468.208
 298  306.7557
 299  804.135
 300  736.7799
 301  1077.078
 302  1575.954
 303  1401.1
 304  1942.212
 305  1394.102
 306  1655.985
 307  1564.542
 308  2167.702
 309  2124.762
 310  2105.931
 311  1718.315
 312  1091.398
 313  1392.21
 314  933.9845
 315  1301.307
 316  1608.526
 317  1195.023
 318  946.9152
 319  539.8279
 320  1048.696
 321  978.1721
 322  1374.038
 323  1419.415
 324  1406.186
 325  811.6401
 326  770.7086
 327  1004.926
 328  1335.523
 329  1712.583
 330  995.842
 331  1072.379
 332  971.7556
 333  1075.9
 334  819.2993
 335  1727.695
 336  1739.275
 337  1271.837
 338  1281.923
 339  1124.95
 340  1005.452
 341  161.3718
 342  565.1541
 343  716.7252
 344  1531.402
 345  2073.492
 346  1441.656
 347  1424.752
 348  493.5738
 349  744.8656
 350  1161.741
 351  1375.292
 352  997.8077
 353  1185.728
 354  1345.087
 355  549.1646
 356  1038.389
 357  778.0567
 358  1235.158
 359  1030.521
 360  1284.402
 361  1239.932
 362  716.3517
 363  649.8524
 364  411.3001
 365  1378.755
 366  879.169
 367  1300.845
 368  1217.589
 369  470.4326
 370  553.5293
 371  865.3062
 372  1608.126
 373  1528.887
 374  1349.817
 375  917.5947
 376  1241.191
 377  918.4499
 378  827.9562
 379  1281.248
 380  914.4721
 381  1664.389
 382  1249.384
 383  620.3077
 384  60.1316
 385  329.0567
 386  1262.548
 387  686.7631
 388  721.7803
 389  498.5287
 390  636.2903
 391  -277.7863
 392  -99.82442
 393  428.0878
 394  1047.543
 395  1349.704
 396  691.361
 397  821.7924
 398  586.6159
 399  839.8099
 400  547.8367
 401  810.711
 402  416.6768
 403  687.3302
 404  686.6425
 405  344.6615
 406  930.6824
 407  1316.151
 408  1355.901
 409  613.1967
 410  650.2892
 411  787.0795
 412  700.9808
 413  850.2952
 414  706.8369
 415  1436.703
 416  951.8112
 417  1096.237
 418  735.12
 419  1321.699
 420  1197.978
 421  1102.137
 422  1529.197
 423  1217.867
 424  1108.374
 425  1139.171
 426  826.7784
 427  211.0899
 428  457.3263
 429  688.788
 430  186.5558
 431  695.4904
 432  230.9166
 433  756.568
 434  492.9747
 435  566.6686
 436  963.0822
 437  927.8224
 438  1347.22
 439  807.3766
 440  909.2696
 441  388.4381
 442  837.8389
 443  914.8877
 444  1694.232
 445  1991.085
 446  2093.979
 447  1514.984
 448  1613.243
 449  2145.699
 450  1713.086
 451  1755.578
 452  752.882
 453  1416.394
 454  1498.162
 455  827.3179
 456  555.2022
 457  94.09621
 458  1162.295
 459  807.8264
 460  1633.768
 461  1425.565
 462  841.2298
 463  588.7158
 464  711.9255
 465  1343.423
 466  859.5898
 467  1510.436
 468  1521.31
 469  1370.27
 470  875.929
 471  958.6868
 472  403.6121
 473  992.3987
 474  1060.335
 475  727.6796
 476  992.7976
 477  1276.464
 478  1420.029
 479  1103.829
 480  1063.73
 481  1103.799
 482  1160.562
 483  954.1166
 484  682.9619
 485  1147.89
 486  1158.243
 487  1706.434
 488  1192.47
 489  1081.672
 490  1477.306
 491  876.9199
 492  1219.823
 493  1081.746
 494  1413.508
 495  1568.278
 496  1975.878
 497  1712.057
 498  955.3625
 499  1116.486
 500  611.8302
 501  1758.829
 502  1213.678
 503  1557.762
 504  819.0355
 505  1214.572
 506  1203.079
 507  1418.886
 508  1797.2
 509  1500.826
 510  1750.009
 511  1733.293
