# Input file       =  1201087940.12175_cleaned.dat
# Candidate        =  PSR_0332+5434
# Telescope        =  AR
# Epoch_topo       =  58145.481008353592
# Epoch_bary       =  N/A
# T_sample         =  0.002
# Data Folded      =  7143424
# Data Avg         =  0.125644432705478
# Data StdDev      =  4.52686742757727 
# Profile Bins     =  1024
# Profile Avg      =  876.542827272673 
# Profile StdDev   =  378.095067752881 
# Reduced chi-sqr  =  0.563
# Prob(Noise)      <  1   (~0.0 sigma)
# P_topo (ms)      =  714.573869198068  +/- 8.53e-05
# P'_topo (s/s)    =  -0                +/- 4.62e-11
# P''_topo (s/s^2) =  0                 +/- 2.1e-14
# P_bary (ms)      =  N/A
# P'_bary (s/s)    =  N/A
# P''_bary (s/s^2) =  N/A
# P_orb (s)        =  N/A
# asin(i)/c (s)    =  N/A
# eccentricity     =  N/A
# w (rad)          =  N/A
# T_peri           =  N/A
######################################################
   0  850.6445
   1  874.2327
   2  918.9079
   3  985.9044
   4  798.5304
   5  919.9941
   6  980.6871
   7  1020.714
   8  1061.57
   9  976.212
  10  915.7508
  11  932.7434
  12  848.4345
  13  653.3546
  14  598.2139
  15  561.7792
  16  638.8524
  17  663.9047
  18  841.9835
  19  963.6709
  20  1040.15
  21  1064.046
  22  1034.979
  23  1097.018
  24  1119.143
  25  1043.714
  26  1062.017
  27  937.0099
  28  910.8564
  29  959.7505
  30  920.7405
  31  796.3184
  32  723.9943
  33  855.0623
  34  817.7972
  35  956.0336
  36  963.4598
  37  983.1198
  38  1021.604
  39  951.2696
  40  881.8945
  41  960.1866
  42  875.8961
  43  882.8702
  44  939.3363
  45  950.9863
  46  919.3087
  47  760.8497
  48  711.4169
  49  567.1716
  50  665.8522
  51  750.9776
  52  864.2904
  53  919.9401
  54  877.3967
  55  943.1753
  56  1036.535
  57  1043.023
  58  1074.09
  59  1061.041
  60  991.1523
  61  886.6791
  62  686.5161
  63  619.3371
  64  766.6832
  65  811.3776
  66  801.2609
  67  647.4475
  68  775.1538
  69  896.5392
  70  1043.986
  71  1038.329
  72  849.3813
  73  1070.058
  74  990.6649
  75  982.4099
  76  947.5054
  77  829.4409
  78  707.9404
  79  657.778
  80  648.8444
  81  725.0417
  82  608.1884
  83  635.3921
  84  554.4489
  85  731.5016
  86  838.0554
  87  798.1973
  88  828.8536
  89  1001.745
  90  1109.486
  91  1287.159
  92  1222.573
  93  1202.336
  94  1115.329
  95  1052.838
  96  919.7057
  97  900.5745
  98  818.0648
  99  824.4909
 100  911.1797
 101  1004.773
 102  932.4851
 103  944.6985
 104  875.6572
 105  770.2369
 106  820.5607
 107  774.7584
 108  846.3864
 109  839.8757
 110  805.1002
 111  836.7292
 112  1007.019
 113  1022.414
 114  958.4203
 115  706.3328
 116  739.7867
 117  780.3366
 118  923.3107
 119  946.8377
 120  915.2712
 121  805.8356
 122  749.6866
 123  907.6899
 124  1078.417
 125  978.5023
 126  988.5493
 127  911.4812
 128  934.9771
 129  936.2051
 130  923.425
 131  1139.254
 132  1156.066
 133  1204.467
 134  967.5565
 135  1050.037
 136  960.282
 137  893.8643
 138  878.5565
 139  1002.501
 140  981.0802
 141  945.757
 142  719.3717
 143  711.2459
 144  728.3519
 145  534.9858
 146  380.0027
 147  460.5168
 148  719.0015
 149  872.9742
 150  959.6253
 151  1029.655
 152  876.6394
 153  792.2637
 154  803.8022
 155  817.7114
 156  1060.777
 157  1003.242
 158  966.7805
 159  883.3608
 160  822.8088
 161  870.1099
 162  916.671
 163  986.4149
 164  972.8201
 165  865.4268
 166  765.1714
 167  565.907
 168  692.394
 169  814.83
 170  935.4383
 171  1060.577
 172  1038.357
 173  1024.875
 174  979.9841
 175  778.4059
 176  897.7989
 177  877.7684
 178  825.4493
 179  653.6107
 180  570.6268
 181  679.8783
 182  695.0295
 183  803.3043
 184  838.7519
 185  889.2896
 186  810.0402
 187  797.796
 188  903.2927
 189  1055.293
 190  1016.327
 191  935.4481
 192  740.9852
 193  771.4641
 194  863.6994
 195  800.9355
 196  824.3174
 197  852.2437
 198  1028.508
 199  994.0482
 200  1065.477
 201  1037.198
 202  843.9938
 203  928.906
 204  904.788
 205  892.6953
 206  971.866
 207  982.778
 208  985.1706
 209  954.1058
 210  942.535
 211  828.5439
 212  760.8534
 213  637.4348
 214  722.4142
 215  803.3647
 216  1017.367
 217  1000.945
 218  982.6038
 219  936.3163
 220  916.7365
 221  995.2397
 222  1091.557
 223  1146.646
 224  1130.603
 225  727.7287
 226  563.1117
 227  653.0107
 228  733.8774
 229  740.999
 230  727.8199
 231  736.9941
 232  777.9622
 233  877.2751
 234  939.1409
 235  1066.707
 236  1134.49
 237  1082.109
 238  945.173
 239  941.5773
 240  821.147
 241  959.3406
 242  1011.95
 243  927.8816
 244  792.5993
 245  711.745
 246  710.7965
 247  719.083
 248  716.0067
 249  789.6051
 250  828.7531
 251  810.5742
 252  792.2686
 253  797.4676
 254  849.1971
 255  789.3547
 256  951.4144
 257  1080.472
 258  968.52
 259  941.1904
 260  946.6237
 261  1013.637
 262  941.5615
 263  895.3313
 264  907.534
 265  1046.4
 266  1071.657
 267  1040.83
 268  945.3837
 269  831.1195
 270  664.423
 271  771.8952
 272  899.4924
 273  893.9163
 274  882.7607
 275  853.0804
 276  869.2151
 277  825.8036
 278  695.1007
 279  768.0922
 280  821.9045
 281  901.8915
 282  819.7576
 283  842.4411
 284  774.4529
 285  695.2357
 286  694.3922
 287  745.8954
 288  873.985
 289  1027.484
 290  906.4876
 291  797.2355
 292  723.5297
 293  743.2786
 294  844.2993
 295  787.6011
 296  856.871
 297  828.238
 298  918.1794
 299  839.14
 300  845.324
 301  881.5507
 302  847.3008
 303  953.0422
 304  989.1103
 305  942.8395
 306  974.8958
 307  927.5611
 308  886.7808
 309  923.7874
 310  831.2343
 311  692.7821
 312  541.5618
 313  578.8416
 314  721.608
 315  852.4566
 316  1005.582
 317  1078.474
 318  1011.844
 319  853.1843
 320  809.2792
 321  895.404
 322  1070.294
 323  1029.61
 324  1235.595
 325  1140.728
 326  1070.276
 327  978.8425
 328  929.7947
 329  922.3652
 330  910.8641
 331  1016.923
 332  992.9804
 333  1021.093
 334  1026.015
 335  906.7125
 336  963.4578
 337  811.5743
 338  690.933
 339  696.762
 340  727.0389
 341  740.8172
 342  693.2795
 343  610.2682
 344  696.9694
 345  700.6334
 346  752.0737
 347  804.1108
 348  998.9218
 349  943.0406
 350  724.8265
 351  623.7047
 352  717.1321
 353  860.8068
 354  1026.923
 355  1011.169
 356  1066.834
 357  928.9324
 358  811.7947
 359  842.46
 360  810.4865
 361  817.3632
 362  907.5344
 363  1004.438
 364  937.655
 365  822.3148
 366  855.7692
 367  865.251
 368  1050.205
 369  1051.589
 370  980.7157
 371  817.7288
 372  846.6933
 373  795.0706
 374  813.2354
 375  670.5493
 376  660.5359
 377  638.9266
 378  566.5599
 379  507.3911
 380  605.9368
 381  675.6109
 382  691.562
 383  761.4477
 384  767.2311
 385  750.2429
 386  776.3133
 387  926.0805
 388  896.9017
 389  928.4681
 390  963.5259
 391  950.3947
 392  958.1462
 393  790.1472
 394  709.6472
 395  701.6769
 396  722.394
 397  742.6055
 398  802.1311
 399  863.5664
 400  797.666
 401  870.6326
 402  804.9479
 403  756.106
 404  792.8214
 405  939.8533
 406  1020.528
 407  1074.969
 408  885.7441
 409  727.7332
 410  598.3287
 411  619.2365
 412  837.8613
 413  838.7679
 414  833.5521
 415  678.2026
 416  759.9689
 417  759.4835
 418  801.5623
 419  867.4561
 420  888.3726
 421  1021.231
 422  960.3059
 423  894.2689
 424  916.108
 425  948.5438
 426  840.8989
 427  839.6178
 428  776.7258
 429  698.4031
 430  518.9068
 431  592.0455
 432  649.9997
 433  860.9445
 434  985.3708
 435  947.6235
 436  892.7103
 437  882.1772
 438  802.0317
 439  783.1146
 440  625.6068
 441  677.5038
 442  689.202
 443  596.283
 444  571.4589
 445  594.67
 446  564.7714
 447  618.2668
 448  650.121
 449  818.0544
 450  887.7265
 451  1031.286
 452  1076.212
 453  1055.924
 454  1118.186
 455  1052.235
 456  885.4283
 457  893.8239
 458  823.8127
 459  739.1304
 460  746.571
 461  874.0591
 462  855.2242
 463  635.8706
 464  509.5817
 465  547.3159
 466  818.5176
 467  887.8896
 468  980.437
 469  999.1052
 470  990.3854
 471  959.6163
 472  1030.91
 473  890.0327
 474  798.6344
 475  720.9153
 476  699.9035
 477  686.7355
 478  644.9908
 479  738.2509
 480  829.548
 481  923.8691
 482  780.2654
 483  657.2998
 484  567.0662
 485  686.6667
 486  908.9191
 487  1049.993
 488  1045.285
 489  1087.345
 490  939.0323
 491  764.933
 492  830.0875
 493  987.0493
 494  1015.883
 495  1073.589
 496  1131.789
 497  1128.791
 498  1051.388
 499  950.7807
 500  826.866
 501  924.9413
 502  905.3336
 503  777.193
 504  707.9593
 505  707.7723
 506  772.0144
 507  800.4883
 508  766.4327
 509  766.2952
 510  862.3855
 511  904.7793
 512  775.9803
 513  704.0912
 514  750.3467
 515  948.3617
 516  1042.023
 517  989.4722
 518  883.7866
 519  992.7734
 520  1241.718
 521  1221.204
 522  1150.267
 523  971.6765
 524  934.6603
 525  848.541
 526  713.6447
 527  623.0169
 528  669.8711
 529  728.1106
 530  803.4277
 531  877.4894
 532  846.175
 533  797.7833
 534  763.1359
 535  879.1402
 536  969.2589
 537  1100.712
 538  1090.403
 539  1030.835
 540  816.2852
 541  580.6343
 542  547.3961
 543  583.2186
 544  584.1774
 545  700.6037
 546  698.5859
 547  723.0159
 548  704.0572
 549  717.8726
 550  823.6608
 551  1000.667
 552  988.2225
 553  934.1841
 554  953.3322
 555  901.084
 556  634.8019
 557  639.968
 558  682.6356
 559  775.6906
 560  946.1932
 561  1128.22
 562  1132.121
 563  1089.8
 564  1095.402
 565  993.0969
 566  893.2177
 567  694.7888
 568  587.8821
 569  548.9272
 570  548.6795
 571  678.2512
 572  963.4663
 573  939.2419
 574  873.8527
 575  931.0785
 576  947.7568
 577  897.4857
 578  827.7004
 579  985.7238
 580  987.1045
 581  977.4587
 582  963.3222
 583  1046.937
 584  1098.355
 585  1095.312
 586  1017.143
 587  1047.943
 588  1031.767
 589  1034.059
 590  918.0477
 591  782.2761
 592  693.5444
 593  840.1354
 594  860.8586
 595  794.1006
 596  765.9599
 597  837.746
 598  896.4411
 599  920.3813
 600  940.387
 601  1016.433
 602  988.5357
 603  932.0301
 604  1043.204
 605  1101.211
 606  1073.965
 607  946.3289
 608  911.2
 609  892.3829
 610  1051.984
 611  1043.134
 612  1073.97
 613  1201.343
 614  1448.186
 615  1650.294
 616  1777.567
 617  1672.732
 618  1634.25
 619  1580.124
 620  1587.66
 621  1268.689
 622  1225.421
 623  1087.536
 624  1099.028
 625  1065.249
 626  1067.366
 627  1091.307
 628  1159.013
 629  1181.368
 630  1006.674
 631  1005.72
 632  882.8024
 633  875.3041
 634  883.3851
 635  848.1072
 636  799.1469
 637  813.4119
 638  862.1584
 639  818.4328
 640  850.8962
 641  922.092
 642  1014.523
 643  1042.822
 644  935.3705
 645  875.747
 646  811.02
 647  799.274
 648  803.5518
 649  936.579
 650  890.1575
 651  766.2659
 652  746.1975
 653  882.1915
 654  961.8823
 655  943.507
 656  867.0696
 657  805.1395
 658  773.1074
 659  827.7093
 660  899.1644
 661  901.2218
 662  800.6325
 663  921.1442
 664  1050.877
 665  1176.755
 666  1106.981
 667  979.2092
 668  846.4224
 669  952.9532
 670  859.7407
 671  730.6337
 672  753.8292
 673  794.2505
 674  745.6703
 675  677.6942
 676  602.1786
 677  581.3514
 678  720.2245
 679  801.65
 680  685.6495
 681  718.3737
 682  810.392
 683  1020.497
 684  1067.421
 685  1048.592
 686  1018.46
 687  1063.277
 688  1123.045
 689  1014.58
 690  937.4627
 691  929.9473
 692  917.1388
 693  981.7171
 694  973.9713
 695  864.148
 696  843.9492
 697  799.5439
 698  722.29
 699  744.3682
 700  637.864
 701  710.1744
 702  925.6523
 703  971.4974
 704  975.8106
 705  946.6212
 706  887.5786
 707  828.8587
 708  864.8365
 709  994.4707
 710  935.6653
 711  790.0342
 712  794.9709
 713  900.5084
 714  1001.918
 715  894.0709
 716  860.7357
 717  745.5977
 718  738.541
 719  890.933
 720  1003.935
 721  904.4426
 722  787.7703
 723  826.3478
 724  855.9341
 725  869.9829
 726  888.0087
 727  968.5496
 728  1017.693
 729  936.6046
 730  901.6592
 731  1085.344
 732  1110.586
 733  857.5666
 734  776.6464
 735  820.4872
 736  863.9353
 737  900.5867
 738  912.8631
 739  912.5987
 740  803.2308
 741  717.1025
 742  755.4313
 743  881.3993
 744  831.6281
 745  823.7497
 746  877.0039
 747  1034.463
 748  979.0002
 749  1091.589
 750  1136.255
 751  1196.221
 752  1326.368
 753  1345.401
 754  1170.996
 755  989.9679
 756  862.3056
 757  915.9632
 758  890.765
 759  1049.879
 760  899.5284
 761  914.9296
 762  823.7732
 763  743.0502
 764  784.1077
 765  672.0805
 766  863.2383
 767  1057.656
 768  1181.052
 769  1044.337
 770  878.5546
 771  697.749
 772  763.4363
 773  811.8143
 774  953.2108
 775  844.2274
 776  819.0109
 777  741.959
 778  757.5427
 779  644.7018
 780  590.7556
 781  614.586
 782  777.7634
 783  844.0599
 784  909.8712
 785  908.3931
 786  921.4421
 787  902.1354
 788  842.144
 789  787.9497
 790  804.1047
 791  746.4856
 792  721.165
 793  726.6513
 794  813.8035
 795  839.1035
 796  1035.556
 797  1085.525
 798  967.0215
 799  1005.233
 800  830.2466
 801  858.5862
 802  870.6813
 803  923.5721
 804  854.296
 805  827.3787
 806  816.9663
 807  702.271
 808  636.3958
 809  684.2145
 810  765.2635
 811  999.6713
 812  1054.534
 813  961.2154
 814  916.1996
 815  915.0875
 816  1084.026
 817  1204.598
 818  1323.975
 819  1245.72
 820  1256.473
 821  1109.871
 822  989.2502
 823  861.3959
 824  744.9753
 825  592.9025
 826  695.5206
 827  854.7142
 828  913.7062
 829  964.9673
 830  910.9992
 831  881.7138
 832  815.188
 833  776.7638
 834  826.7441
 835  858.3206
 836  866.9304
 837  774.1351
 838  707.8214
 839  590.7698
 840  702.1943
 841  649.5571
 842  685.5804
 843  654.9639
 844  647.8336
 845  568.9319
 846  598.5574
 847  682.0658
 848  819.1505
 849  962.9113
 850  1014.437
 851  853.2444
 852  885.2073
 853  911.9281
 854  970.4065
 855  1019.693
 856  987.6785
 857  924.2019
 858  848.1749
 859  936.3472
 860  1011.636
 861  1151.428
 862  1224.277
 863  1265.792
 864  1229.012
 865  1053.208
 866  753.6765
 867  773.1658
 868  756.7216
 869  901.2537
 870  971.1058
 871  882.8475
 872  753.9813
 873  752.3644
 874  827.3707
 875  841.7015
 876  947.2638
 877  1031.561
 878  1007.609
 879  1020.104
 880  959.6312
 881  779.6053
 882  746.2491
 883  772.0952
 884  858.7522
 885  917.4431
 886  1002.294
 887  959.8201
 888  788.9641
 889  697.6818
 890  788.6174
 891  913.3378
 892  883.95
 893  753.1277
 894  830.7736
 895  808.6091
 896  784.1387
 897  887.6545
 898  833.0268
 899  1066.191
 900  1008.159
 901  1023.668
 902  882.6517
 903  745.5992
 904  736.876
 905  807.1111
 906  752.886
 907  645.6782
 908  622.0905
 909  793.9097
 910  782.9104
 911  798.323
 912  785.3032
 913  803.3101
 914  845.7714
 915  937.3493
 916  1000.862
 917  1070.507
 918  900.4857
 919  808.449
 920  871.9363
 921  969.8884
 922  1047.651
 923  1036.487
 924  1073.906
 925  919.4448
 926  909.4364
 927  887.4737
 928  896.6956
 929  1060.004
 930  1051.796
 931  924.08
 932  906.4942
 933  815.8903
 934  910.1251
 935  875.1593
 936  887.5384
 937  896.6569
 938  880.8929
 939  782.3524
 940  674.7527
 941  635.9669
 942  684.0139
 943  727.709
 944  907.2586
 945  922.1651
 946  805.6556
 947  805.1492
 948  746.3876
 949  834.2225
 950  954.1796
 951  1051.842
 952  1071.953
 953  988.1981
 954  914.4827
 955  780.2079
 956  704.3928
 957  852.4244
 958  888.7199
 959  959.9014
 960  814.3074
 961  803.0638
 962  767.5103
 963  692.3698
 964  811.6813
 965  844.9461
 966  819.1598
 967  849.9753
 968  827.7623
 969  722.9659
 970  739.1139
 971  624.0055
 972  739.8456
 973  714.7418
 974  775.7002
 975  646.0964
 976  693.676
 977  717.8054
 978  679.4644
 979  737.8992
 980  795.2902
 981  802.4975
 982  888.7964
 983  919.1522
 984  1027.644
 985  1034.852
 986  1077.693
 987  924.8074
 988  953.3939
 989  854.2876
 990  948.2112
 991  917.8663
 992  982.5306
 993  832.5226
 994  969.2908
 995  954.3257
 996  829.3156
 997  771.8752
 998  692.8139
 999  689.0217
1000  762.9799
1001  741.4706
1002  794.3829
1003  829.0753
1004  878.9891
1005  832.1792
1006  892.6942
1007  947.7582
1008  877.2957
1009  740.7941
1010  649.9326
1011  722.6494
1012  942.9119
1013  936.1508
1014  756.1807
1015  817.1374
1016  855.4565
1017  1055.539
1018  870.3027
1019  761.1335
1020  677.0503
1021  782.4954
1022  956.7256
1023  954.2581
