# Input file       =  1201863564.114864_cleaned.dat
# Candidate        =  PSR_0332+5434
# Telescope        =  AR
# Epoch_topo       =  58154.458137903523
# Epoch_bary       =  N/A
# T_sample         =  0.002
# Data Folded      =  7405568
# Data Avg         =  0.109588224714852
# Data StdDev      =  4.24685155050323 
# Profile Bins     =  1024
# Profile Avg      =  792.542397921991 
# Profile StdDev   =  361.1572098151   
# Reduced chi-sqr  =  2.370
# Prob(Noise)      <  2.55e-115   (~22.8 sigma)
# P_topo (ms)      =  714.57755786575   +/- 2.11e-05
# P'_topo (s/s)    =  -0                +/- 1.1e-11
# P''_topo (s/s^2) =  0                 +/- 4.82e-15
# P_bary (ms)      =  N/A
# P'_bary (s/s)    =  N/A
# P''_bary (s/s^2) =  N/A
# P_orb (s)        =  N/A
# asin(i)/c (s)    =  N/A
# eccentricity     =  N/A
# w (rad)          =  N/A
# T_peri           =  N/A
######################################################
   0  595.4266
   1  686.5225
   2  482.5574
   3  548.2839
   4  642.6946
   5  819.649
   6  847.0168
   7  661.7137
   8  675.1749
   9  644.713
  10  594.9539
  11  639.6071
  12  455.2153
  13  504.0646
  14  423.6828
  15  612.1107
  16  617.6548
  17  596.3417
  18  610.5875
  19  801.0547
  20  947.0898
  21  1163.556
  22  1236.39
  23  1256.6
  24  1159.832
  25  1243.957
  26  1245.328
  27  1041.451
  28  804.9273
  29  657.8842
  30  662.1665
  31  731.668
  32  646.3654
  33  686.4059
  34  569.3067
  35  514.367
  36  484.4335
  37  604.5462
  38  674.8424
  39  559.3518
  40  572.0493
  41  663.0302
  42  675.7329
  43  618.853
  44  489.7626
  45  477.5251
  46  509.3641
  47  547.5875
  48  582.5468
  49  615.9692
  50  766.5206
  51  989.9643
  52  1195.045
  53  1300.168
  54  1320.268
  55  1267.356
  56  1313.203
  57  1295.145
  58  1226.686
  59  973.5349
  60  842.4767
  61  711.913
  62  576.6024
  63  413.9168
  64  359.1233
  65  431.8291
  66  578.4767
  67  627.0092
  68  707.0271
  69  713.0459
  70  861.1981
  71  833.1216
  72  760.5082
  73  659.4917
  74  607.2546
  75  591.552
  76  516.7612
  77  429.3079
  78  424.5135
  79  396.6783
  80  368.455
  81  577.9638
  82  847.2513
  83  954.098
  84  1023.108
  85  1112.34
  86  1176.637
  87  1161.718
  88  1195.874
  89  1313.67
  90  1256.577
  91  1151.825
  92  1060.168
  93  930.4752
  94  892.2356
  95  681.9893
  96  695.0946
  97  521.1973
  98  528.7796
  99  494.3255
 100  636.7797
 101  589.6261
 102  591.4941
 103  596.6107
 104  763.742
 105  856.762
 106  879.0065
 107  769.4215
 108  653.6714
 109  734.2739
 110  689.4288
 111  608.0583
 112  383.9471
 113  353.2019
 114  404.8803
 115  421.7617
 116  737.3073
 117  1013.945
 118  1220.698
 119  1284.15
 120  1295.313
 121  1424.823
 122  1440.162
 123  1348.226
 124  1163.162
 125  941.7485
 126  935.5061
 127  848.1735
 128  769.1727
 129  583.7758
 130  562.8259
 131  615.1419
 132  552.8944
 133  580.6793
 134  668.1025
 135  752.1389
 136  841.3844
 137  838.7395
 138  863.4263
 139  796.6698
 140  751.2917
 141  845.9306
 142  684.842
 143  539.6936
 144  446.816
 145  357.3824
 146  421.992
 147  419.786
 148  621.2375
 149  727.7726
 150  736.032
 151  959.9911
 152  1060.628
 153  1259.807
 154  1312.105
 155  1464.113
 156  1548.085
 157  1466.147
 158  1352.43
 159  1134.628
 160  837.135
 161  811.8119
 162  664.5001
 163  648.7823
 164  484.8992
 165  535.1329
 166  516.3049
 167  518.2836
 168  615.5319
 169  725.8164
 170  720.9416
 171  715.2643
 172  639.6957
 173  663.8478
 174  681.4591
 175  646.0945
 176  695.5416
 177  561.5472
 178  490.7497
 179  359.3598
 180  486.6393
 181  640.7375
 182  702.9023
 183  923.8799
 184  1005.083
 185  1085.746
 186  1053.294
 187  1095.236
 188  1180.42
 189  1168.964
 190  1205.006
 191  1204.581
 192  1064.712
 193  891.9621
 194  724.4214
 195  741.3491
 196  709.91
 197  737.8301
 198  725.2936
 199  654.517
 200  551.0641
 201  496.3993
 202  574.9897
 203  682.5326
 204  706.6265
 205  705.8132
 206  610.7266
 207  597.6443
 208  751.1956
 209  813.8174
 210  681.3701
 211  581.879
 212  526.7693
 213  571.0974
 214  593.169
 215  727.0671
 216  910.529
 217  1083.629
 218  1261.344
 219  1396.697
 220  1366.207
 221  1245.638
 222  1315.215
 223  1295.699
 224  1184.457
 225  915.3888
 226  822.9362
 227  663.1787
 228  649.7902
 229  594.582
 230  595.8801
 231  608.7903
 232  678.5522
 233  734.1585
 234  677.1703
 235  597.4058
 236  619.675
 237  786.1567
 238  796.7886
 239  825.6128
 240  660.831
 241  625.775
 242  528.1311
 243  468.1984
 244  484.4497
 245  468.414
 246  465.3175
 247  504.7704
 248  647.8202
 249  876.1912
 250  1098.176
 251  1152.925
 252  1107.078
 253  1019.419
 254  1131.504
 255  1265.758
 256  1386.895
 257  1328.41
 258  1152.62
 259  987.2441
 260  794.8815
 261  716.7675
 262  540.9855
 263  480.0914
 264  559.2128
 265  619.6777
 266  678.5585
 267  679.3278
 268  677.4184
 269  780.5427
 270  757.4565
 271  761.6533
 272  727.4207
 273  796.429
 274  772.0153
 275  543.6519
 276  448.0011
 277  456.5765
 278  432.0352
 279  436.6912
 280  307.1388
 281  493.2426
 282  691.8118
 283  970.0137
 284  1175.08
 285  1035.78
 286  1102.923
 287  1340.892
 288  1625.751
 289  1627.382
 290  1355.57
 291  1244.906
 292  968.6259
 293  655.3446
 294  534.1064
 295  391.8857
 296  410.6685
 297  313.9701
 298  496.9519
 299  602.594
 300  689.1729
 301  824.5867
 302  860.2189
 303  905.2729
 304  943.3806
 305  1038.553
 306  1046.565
 307  913.1462
 308  761.3999
 309  725.4774
 310  551.7198
 311  510.0412
 312  375.0745
 313  477.0106
 314  573.4907
 315  674.1279
 316  927.611
 317  1163.864
 318  1456.63
 319  1553.214
 320  1490.04
 321  1383.376
 322  1298.535
 323  1238.654
 324  1191.315
 325  815.0485
 326  566.1962
 327  312.0019
 328  379.2336
 329  504.6838
 330  596.0024
 331  594.4084
 332  554.2418
 333  640.0348
 334  708.5814
 335  755.8553
 336  771.9713
 337  795.8658
 338  881.1866
 339  834.2828
 340  700.8981
 341  675.5221
 342  697.0792
 343  635.6425
 344  492.0024
 345  378.9495
 346  531.4989
 347  686.5582
 348  882.7325
 349  960.6411
 350  1043.193
 351  1186.596
 352  1341.784
 353  1472.765
 354  1484.197
 355  1498.418
 356  1417.223
 357  1252.12
 358  1059.858
 359  891.3522
 360  667.7095
 361  514.179
 362  431.6807
 363  524.6139
 364  517.1911
 365  594.9122
 366  659.7812
 367  738.6364
 368  840.7529
 369  895.1943
 370  844.2278
 371  685.7308
 372  656.9971
 373  686.8127
 374  677.6642
 375  534.1054
 376  428.8322
 377  510.7464
 378  518.3508
 379  598.2864
 380  682.9006
 381  894.5223
 382  995.8389
 383  1071.57
 384  1168.877
 385  1231.845
 386  1158.136
 387  1169.531
 388  1131.869
 389  1055.428
 390  903.215
 391  862.2675
 392  764.2792
 393  732.8224
 394  701.1854
 395  730.7385
 396  673.1516
 397  721.1122
 398  771.465
 399  836.7853
 400  938.9895
 401  913.6
 402  771.6411
 403  678.8008
 404  772.2963
 405  779.7168
 406  731.0897
 407  693.8008
 408  645.7629
 409  450.0971
 410  253.3551
 411  260.7718
 412  351.4316
 413  440.7679
 414  628.9485
 415  822.217
 416  1005.143
 417  1109.95
 418  1268.741
 419  1393.335
 420  1392.127
 421  1282.649
 422  1028.318
 423  872.9201
 424  762.2895
 425  664.7087
 426  507.0551
 427  603.6967
 428  655.1382
 429  668.248
 430  530.6011
 431  633.9322
 432  786.5591
 433  872.3417
 434  814.5468
 435  792.5482
 436  757.061
 437  799.9497
 438  817.4094
 439  710.2288
 440  442.6237
 441  413.6474
 442  549.444
 443  542.3931
 444  346.3667
 445  257.7164
 446  473.6872
 447  732.3597
 448  926.1089
 449  1142.823
 450  1265.27
 451  1318.312
 452  1312.706
 453  1361.135
 454  1396.954
 455  1390.793
 456  1410.042
 457  1164.605
 458  837.9665
 459  624.1282
 460  566.1458
 461  566.7569
 462  465.1881
 463  556.509
 464  641.9807
 465  619.6098
 466  638.711
 467  684.4962
 468  746.0805
 469  791.8383
 470  826.8544
 471  919.702
 472  711.0267
 473  469.5137
 474  415.456
 475  405.6373
 476  455.9857
 477  305.1712
 478  414.646
 479  544.6339
 480  805.1619
 481  950.8243
 482  1061.03
 483  1134.032
 484  1246.498
 485  1335.693
 486  1382.516
 487  1359.961
 488  1180.522
 489  1000.291
 490  736.2278
 491  747.1006
 492  680.8372
 493  499.7424
 494  369.8485
 495  347.2034
 496  609.2118
 497  561.0595
 498  650.9317
 499  665.1552
 500  770.7424
 501  855.0266
 502  790.875
 503  788.8338
 504  641.6464
 505  615.5597
 506  633.956
 507  747.439
 508  658.717
 509  567.3172
 510  474.6992
 511  472.6151
 512  490.0686
 513  626.9898
 514  760.1249
 515  895.5436
 516  1020.678
 517  1154.497
 518  1156.389
 519  1049.428
 520  1272.697
 521  1444.852
 522  1466.754
 523  1174.307
 524  979.3219
 525  788.7692
 526  572.1738
 527  476.6067
 528  586.7902
 529  636.2478
 530  563.0913
 531  364.5377
 532  382.246
 533  447.7406
 534  618.4191
 535  712.652
 536  723.4548
 537  756.2545
 538  759.9048
 539  789.8988
 540  669.1714
 541  605.7437
 542  546.3324
 543  546.3931
 544  544.1046
 545  647.0232
 546  811.558
 547  856.4637
 548  880.7725
 549  985.251
 550  1144.266
 551  1246.142
 552  1222.957
 553  1134.18
 554  1065.304
 555  919.0557
 556  791.2916
 557  628.2167
 558  544.5621
 559  541.9534
 560  623.4494
 561  564.4227
 562  609.1467
 563  539.982
 564  640.6118
 565  726.5261
 566  783.5242
 567  650.1896
 568  610.7223
 569  649.8128
 570  623.1758
 571  461.0491
 572  401.2998
 573  417.3336
 574  439.1957
 575  412.9297
 576  408.7144
 577  535.5527
 578  643.9661
 579  875.926
 580  933.3147
 581  1119.632
 582  1160.554
 583  1310.229
 584  1389.52
 585  1386.811
 586  1340.195
 587  1334.131
 588  1181.968
 589  1155.231
 590  956.8795
 591  841.6895
 592  475.6418
 593  391.5095
 594  519.4232
 595  558.077
 596  581.3491
 597  509.8648
 598  586.8578
 599  728.1233
 600  836.9903
 601  996.6744
 602  984.7554
 603  883.8195
 604  779.3441
 605  719.8827
 606  650.7093
 607  670.1001
 608  648.5754
 609  844.1515
 610  813.3918
 611  1053.766
 612  1318.252
 613  1679.245
 614  1970.599
 615  2194.104
 616  2113.667
 617  1937.834
 618  1820.362
 619  1723.219
 620  1383.74
 621  1109.241
 622  909.374
 623  689.2604
 624  644.9608
 625  661.1776
 626  719.5216
 627  589.4208
 628  413.1628
 629  435.6391
 630  401.1941
 631  644.5024
 632  795.1591
 633  905.0061
 634  829.5135
 635  734.7308
 636  800.1503
 637  866.0845
 638  788.1942
 639  721.9951
 640  556.4183
 641  508.8248
 642  399.473
 643  355.4471
 644  474.7402
 645  721.4761
 646  933.8322
 647  974.3282
 648  1014.519
 649  1231.557
 650  1375.237
 651  1471.629
 652  1487.055
 653  1423.073
 654  1254.301
 655  1003.308
 656  737.9825
 657  462.081
 658  328.9862
 659  319.1563
 660  354.1477
 661  322.2473
 662  311.8968
 663  350.64
 664  541.6468
 665  670.6315
 666  899.6414
 667  876.5132
 668  886.114
 669  833.0387
 670  815.9816
 671  699.806
 672  669.0088
 673  622.2046
 674  575.8011
 675  436.0923
 676  386.9524
 677  425.191
 678  537.5903
 679  639.8679
 680  776.4948
 681  970.9414
 682  1228.207
 683  1295.847
 684  1314.758
 685  1271.338
 686  1232.929
 687  1175.4
 688  1195.737
 689  1126.613
 690  916.9244
 691  637.7297
 692  488.5128
 693  456.8554
 694  499.9226
 695  549.7668
 696  660.5033
 697  770.3852
 698  766.6039
 699  670.7422
 700  591.8312
 701  559.2872
 702  616.0542
 703  628.0386
 704  558.9122
 705  544.1832
 706  587.8667
 707  587.5939
 708  542.1028
 709  555.1523
 710  700.5342
 711  874.1037
 712  1071.976
 713  1252.151
 714  1320.084
 715  1146.82
 716  1112.921
 717  1157.462
 718  1207.101
 719  1204.056
 720  1133.144
 721  1032.612
 722  892.9514
 723  668.0928
 724  633.3604
 725  502.8253
 726  600.0248
 727  770.681
 728  819.4005
 729  891.9874
 730  777.1371
 731  836.0126
 732  842.8515
 733  876.6049
 734  881.685
 735  739.2698
 736  482.5976
 737  409.9126
 738  388.6678
 739  466.4463
 740  434.1093
 741  431.6289
 742  491.1556
 743  547.7696
 744  860.5588
 745  979.353
 746  1081.31
 747  1069.945
 748  1206.891
 749  1225.893
 750  1166.497
 751  1212.296
 752  1238.27
 753  1030.159
 754  968.5626
 755  873.8635
 756  882.704
 757  706.3241
 758  552.391
 759  471.6746
 760  404.1068
 761  384.3414
 762  455.7892
 763  425.2739
 764  573.4683
 765  585.731
 766  805.5049
 767  853.3404
 768  823.7123
 769  706.0024
 770  558.7432
 771  452.1465
 772  409.6941
 773  293.0971
 774  310.2451
 775  404.2531
 776  585.6196
 777  713.3278
 778  788.5478
 779  957.5413
 780  1064.441
 781  1167.653
 782  1237.207
 783  1281.341
 784  1280.766
 785  1231.161
 786  1055.493
 787  851.843
 788  573.6414
 789  510.9282
 790  504.811
 791  493.9182
 792  481.7014
 793  593.4137
 794  791.7055
 795  860.0979
 796  921.8631
 797  948.6658
 798  915.4409
 799  911.0294
 800  866.185
 801  853.2402
 802  821.8694
 803  818.6536
 804  616.921
 805  373.2597
 806  183.478
 807  207.8448
 808  298.9101
 809  451.683
 810  589.5394
 811  785.1375
 812  888.7689
 813  1073.074
 814  1066.128
 815  1125.923
 816  1227.104
 817  1334.968
 818  1218.389
 819  1029.366
 820  878.3148
 821  777.9515
 822  769.1783
 823  653.1928
 824  630.177
 825  533.5569
 826  535.9241
 827  563.3555
 828  576.9186
 829  637.9077
 830  624.6258
 831  693.2321
 832  693.1335
 833  682.9484
 834  611.7285
 835  726.4427
 836  741.018
 837  808.5743
 838  670.9449
 839  611.7663
 840  455.4485
 841  294.4164
 842  398.9158
 843  603.0299
 844  802.9971
 845  816.7045
 846  962.8041
 847  1149.38
 848  1317.799
 849  1442.518
 850  1508.416
 851  1422.059
 852  1243.117
 853  1064.279
 854  995.4585
 855  768.5526
 856  607.9579
 857  663.7798
 858  776.6799
 859  796.5056
 860  692.9361
 861  563.9133
 862  489.6175
 863  512.6301
 864  665.6463
 865  743.9357
 866  617.5445
 867  635.7664
 868  567.7137
 869  651.3198
 870  664.295
 871  516.469
 872  412.2022
 873  309.5263
 874  370.8802
 875  472.5707
 876  527.86
 877  713.0387
 878  934.4395
 879  1233.46
 880  1242.611
 881  1155.121
 882  1180.679
 883  1198.039
 884  1238.055
 885  1159.095
 886  1086.722
 887  961.9874
 888  766.6384
 889  653.5035
 890  584.7769
 891  689.108
 892  838.8674
 893  771.6875
 894  719.2873
 895  714.6582
 896  734.8654
 897  706.8766
 898  668.4291
 899  668.6223
 900  776.7801
 901  549.6796
 902  450.0367
 903  340.2641
 904  417.8197
 905  493.1099
 906  475.5096
 907  596.5304
 908  495.4967
 909  638.0494
 910  702.7216
 911  816.4954
 912  1011.92
 913  1236.245
 914  1449.006
 915  1365.967
 916  1272.413
 917  1117.615
 918  915.2248
 919  837.9715
 920  762.8286
 921  700.7468
 922  651.8383
 923  599.433
 924  626.3131
 925  492.2706
 926  558.946
 927  712.9378
 928  716.1564
 929  778.3214
 930  728.4393
 931  779.1238
 932  711.6122
 933  520.8273
 934  498.7269
 935  385.8705
 936  468.6481
 937  453.5865
 938  379.419
 939  414.9167
 940  522.4921
 941  669.5858
 942  755.9958
 943  803.2968
 944  946.9629
 945  1165.667
 946  1267.244
 947  1373.467
 948  1356.668
 949  1344.161
 950  1242.671
 951  1028.206
 952  864.7004
 953  678.506
 954  475.7043
 955  216.401
 956  196.0701
 957  344.6797
 958  377.5796
 959  367.1767
 960  367.9455
 961  484.8038
 962  679.8249
 963  834.8735
 964  826.4502
 965  859.9653
 966  751.5436
 967  757.8495
 968  588.07
 969  500.9443
 970  525.0795
 971  491.1106
 972  490.3091
 973  280.2863
 974  413.0736
 975  604.6224
 976  864.1487
 977  1019.468
 978  1172.531
 979  1267.227
 980  1262.709
 981  1274.41
 982  1193.08
 983  1059.903
 984  848.6016
 985  824.4175
 986  832.4722
 987  779.2491
 988  641.1183
 989  547.4225
 990  527.4017
 991  473.9973
 992  455.8044
 993  548.0637
 994  541.4228
 995  596.1129
 996  674.3912
 997  692.4861
 998  801.2667
 999  839.8746
1000  925.4561
1001  863.077
1002  749.4466
1003  725.2762
1004  675.6747
1005  661.0443
1006  533.2506
1007  619.0186
1008  667.4449
1009  851.2418
1010  1058.811
1011  1307.74
1012  1307.03
1013  1311.62
1014  1394.906
1015  1577.018
1016  1485.367
1017  1282.445
1018  1024.972
1019  706.1052
1020  561.166
1021  345.7143
1022  481.4544
1023  492.0489
