# Input file       =  1201533515.12507_cleaned.dat
# Candidate        =  PSR_0332+5434
# Telescope        =  AR
# Epoch_topo       =  58150.638126447571
# Epoch_bary       =  N/A
# T_sample         =  0.002
# Data Folded      =  7340032
# Data Avg         =  0.119413042016926
# Data StdDev      =  4.40612715726184 
# Profile Bins     =  1024
# Profile Avg      =  855.964002061335 
# Profile StdDev   =  373.04053449737  
# Reduced chi-sqr  =  0.801
# Prob(Noise)      <  1   (~0.0 sigma)
# P_topo (ms)      =  714.576162353505  +/- 0.000439
# P'_topo (s/s)    =  -0                +/- 2.32e-10
# P''_topo (s/s^2) =  0                 +/- 1.02e-13
# P_bary (ms)      =  N/A
# P'_bary (s/s)    =  N/A
# P''_bary (s/s^2) =  N/A
# P_orb (s)        =  N/A
# asin(i)/c (s)    =  N/A
# eccentricity     =  N/A
# w (rad)          =  N/A
# T_peri           =  N/A
######################################################
   0  716.5923
   1  701.3516
   2  786.4324
   3  765.1387
   4  860.1477
   5  849.6835
   6  893.1901
   7  943.2115
   8  1059.61
   9  990.5157
  10  894.8688
  11  648.3568
  12  574.2948
  13  602.6741
  14  612.0036
  15  585.4247
  16  610.0496
  17  728.2533
  18  807.887
  19  740.6346
  20  810.4453
  21  868.3667
  22  861.6869
  23  862.1053
  24  850.4137
  25  866.2548
  26  777.2144
  27  643.5479
  28  675.3896
  29  584.2007
  30  522.3431
  31  596.0701
  32  699.1745
  33  709.7648
  34  654.0607
  35  628.7626
  36  783.5145
  37  794.2094
  38  858.7629
  39  825.6088
  40  775.3485
  41  818.071
  42  795.8911
  43  944.0778
  44  1023.315
  45  1068.243
  46  983.3093
  47  851.8028
  48  744.1942
  49  823.6546
  50  898.3727
  51  969.3356
  52  989.4964
  53  1079.355
  54  1083.356
  55  1019.596
  56  1026.12
  57  1103.914
  58  1200.177
  59  1201.297
  60  1195.091
  61  1113.59
  62  962.8608
  63  1045.552
  64  1030.484
  65  1055.335
  66  919.1531
  67  954.3726
  68  906.0064
  69  903.858
  70  1024.399
  71  1141.849
  72  1084.635
  73  958.7507
  74  952.8701
  75  922.4742
  76  782.6599
  77  736.7733
  78  765.6663
  79  761.148
  80  738.393
  81  869.1766
  82  1073.792
  83  1123.511
  84  985.1328
  85  917.652
  86  858.6547
  87  865.4164
  88  885.9614
  89  735.629
  90  668.1631
  91  561.3763
  92  709.5464
  93  729.9543
  94  773.962
  95  796.8297
  96  856.5449
  97  842.2484
  98  883.3747
  99  1050.374
 100  989.23
 101  994.5424
 102  1023.938
 103  1004.946
 104  882.2296
 105  762.0154
 106  737.926
 107  623.6295
 108  648.7398
 109  808.6122
 110  923.8184
 111  955.9766
 112  863.8544
 113  849.6703
 114  829.383
 115  759.1279
 116  757.4997
 117  817.6797
 118  780.5887
 119  809.4277
 120  832.4392
 121  963.4728
 122  868.7269
 123  820.9942
 124  778.1171
 125  797.9921
 126  871.3546
 127  935.6291
 128  1125.978
 129  1087.819
 130  1104.027
 131  1075.255
 132  1043.259
 133  892.4014
 134  829.1525
 135  927.6103
 136  973.7542
 137  1000.18
 138  932.2429
 139  906.3421
 140  809.7408
 141  781.3285
 142  719.543
 143  665.9539
 144  760.0122
 145  842.3472
 146  895.4693
 147  860.911
 148  759.7225
 149  738.1168
 150  827.9782
 151  949.9534
 152  1048.83
 153  1060.98
 154  1045.58
 155  886.1243
 156  916.9317
 157  976.0906
 158  1078.753
 159  1192.661
 160  1184.764
 161  1179.613
 162  1043.167
 163  992.1031
 164  1099.142
 165  1033.843
 166  1149.962
 167  1083.602
 168  1210.05
 169  1246.994
 170  1097.122
 171  968.6235
 172  937.3901
 173  1000.692
 174  1086.928
 175  1090.393
 176  985.3291
 177  821.7841
 178  699.0077
 179  759.0347
 180  905.2151
 181  949.3139
 182  976.4031
 183  943.1063
 184  1028.397
 185  984.0865
 186  857.4812
 187  880.2531
 188  819.1674
 189  692.7545
 190  586.3411
 191  460.8574
 192  420.2449
 193  505.0645
 194  703.8775
 195  797.1057
 196  787.5926
 197  766.4806
 198  913.2382
 199  809.4783
 200  646.5383
 201  549.1786
 202  698.3087
 203  821.2933
 204  691.0602
 205  683.4556
 206  644.1673
 207  679.7778
 208  620.3333
 209  689.3972
 210  649.3866
 211  703.6143
 212  671.5325
 213  603.0883
 214  571.8818
 215  593.4478
 216  806.2577
 217  788.7034
 218  882.0098
 219  944.265
 220  1080.945
 221  1083.789
 222  977.0833
 223  960.1697
 224  854.702
 225  852.0115
 226  788.1906
 227  714.1649
 228  606.8456
 229  644.5101
 230  741.5782
 231  786.239
 232  777.5133
 233  791.0844
 234  874.5988
 235  782.1201
 236  830.5755
 237  874.2635
 238  1008.231
 239  1100.969
 240  933.2471
 241  789.7597
 242  693.1552
 243  746.7623
 244  761.1406
 245  717.0248
 246  699.3739
 247  769.1299
 248  822.8903
 249  1016.562
 250  1093.877
 251  998.4969
 252  951.7314
 253  834.8676
 254  970.3481
 255  939.0095
 256  922.2242
 257  793.8668
 258  703.8489
 259  752.157
 260  789.1442
 261  722.4107
 262  624.174
 263  607.2814
 264  696.1035
 265  739.6737
 266  794.0526
 267  816.2572
 268  871.6104
 269  989.3908
 270  961.6962
 271  811.3657
 272  534.6935
 273  600.0889
 274  659.5704
 275  657.0517
 276  575.657
 277  517.5152
 278  497.3347
 279  596.2235
 280  677.0834
 281  820.6006
 282  804.0537
 283  730.1378
 284  796.1042
 285  849.9998
 286  868.2141
 287  748.4545
 288  598.3296
 289  577.3564
 290  692.7496
 291  757.743
 292  755.2547
 293  789.3642
 294  831.408
 295  798.3709
 296  728.8527
 297  588.6893
 298  497.5567
 299  527.29
 300  675.7185
 301  682.0306
 302  654.5747
 303  655.0918
 304  711.3979
 305  748.9691
 306  767.6285
 307  749.1187
 308  736.7823
 309  819.8209
 310  788.0983
 311  841.2112
 312  764.4551
 313  780.0339
 314  745.9225
 315  675.6354
 316  582.904
 317  628.6963
 318  707.8182
 319  663.1495
 320  651.5599
 321  650.9047
 322  681.3242
 323  782.7562
 324  802.816
 325  895.6281
 326  907.6752
 327  995.6256
 328  1103.606
 329  1127.738
 330  1135.455
 331  1110.37
 332  1057.034
 333  1103.916
 334  892.2205
 335  689.5405
 336  671.3373
 337  637.2692
 338  698.5307
 339  720.111
 340  895.7108
 341  1007.844
 342  1010.542
 343  998.7844
 344  1012.866
 345  993.3234
 346  1101.687
 347  1224.055
 348  1191.995
 349  1047.5
 350  967.687
 351  956.1234
 352  1004.696
 353  1018.526
 354  1181.2
 355  1284.497
 356  1271.248
 357  1194.727
 358  1036.983
 359  1027.489
 360  1064.331
 361  1187.258
 362  1362.034
 363  1266.253
 364  1207.287
 365  1027.783
 366  1003.059
 367  1122.331
 368  1302.408
 369  1465.941
 370  1288.864
 371  990.0556
 372  860.8596
 373  1087.003
 374  1110.199
 375  1157.057
 376  1089.519
 377  1068.11
 378  1056.408
 379  1170.151
 380  1364.052
 381  1371.709
 382  1347.645
 383  1332.716
 384  1199.382
 385  1060.348
 386  994.2052
 387  1087.309
 388  1181.954
 389  1089.488
 390  1048.809
 391  1051.673
 392  1011.465
 393  986.2189
 394  1137.003
 395  1158.65
 396  1109.597
 397  1056.967
 398  1022.394
 399  964.4907
 400  973.5192
 401  992.487
 402  1034.592
 403  949.7728
 404  799.3843
 405  806.4528
 406  831.9216
 407  888.5155
 408  986.3196
 409  1102.214
 410  1067.671
 411  1017.719
 412  968.8976
 413  848.3185
 414  794.5732
 415  738.374
 416  857.268
 417  761.5815
 418  879.9956
 419  1013.081
 420  958.4543
 421  790.8138
 422  731.895
 423  822.0138
 424  825.5311
 425  675.2463
 426  627.8622
 427  714.8166
 428  742.3486
 429  748.1964
 430  685.9272
 431  515.1139
 432  546.6395
 433  797.1949
 434  961.8206
 435  920.975
 436  759.4188
 437  853.2526
 438  957.6276
 439  988.8713
 440  1009.488
 441  1006.251
 442  886.7758
 443  813.8296
 444  636.2983
 445  659.326
 446  594.673
 447  609.9731
 448  678.9805
 449  842.3561
 450  970.8486
 451  907.6141
 452  889.1998
 453  954.3826
 454  1010.259
 455  976.5248
 456  985.0713
 457  1063.813
 458  1077.553
 459  1025.3
 460  950.3607
 461  972.9816
 462  899.8209
 463  931.4497
 464  1010.425
 465  1088.349
 466  1111.724
 467  1008.906
 468  1008.047
 469  1055.946
 470  1095.77
 471  940.2292
 472  820.218
 473  893.1528
 474  1042.687
 475  1149.631
 476  1078.783
 477  947.8278
 478  758.7499
 479  581.2393
 480  691.5333
 481  869.3546
 482  873.0542
 483  894.6108
 484  761.0577
 485  749.844
 486  690.2961
 487  748.7911
 488  742.3618
 489  631.0727
 490  624.7188
 491  667.4301
 492  695.519
 493  553.9036
 494  555.7547
 495  719.6021
 496  724.4376
 497  781.8076
 498  818.0277
 499  912.4183
 500  903.4688
 501  950.8216
 502  1023.314
 503  1132.479
 504  1062.128
 505  1057.917
 506  902.5816
 507  888.1302
 508  815.5466
 509  812.364
 510  908.2847
 511  961.0519
 512  924.7489
 513  879.051
 514  840.9832
 515  912.5441
 516  942.0912
 517  920.6652
 518  918.3823
 519  852.7823
 520  876.2806
 521  981.3242
 522  1057.19
 523  1039.505
 524  1072.285
 525  1163.964
 526  1028.571
 527  735.6601
 528  565.1342
 529  581.0648
 530  722.7859
 531  1002.392
 532  1105.954
 533  1055.97
 534  983.0732
 535  852.7881
 536  882.0274
 537  868.9717
 538  1001.352
 539  1216.679
 540  1138.958
 541  914.7002
 542  839.5914
 543  851.9893
 544  1013.864
 545  1020.976
 546  990.0366
 547  1044.622
 548  988.6765
 549  930.8716
 550  874.4246
 551  795.4177
 552  901.1374
 553  709.4823
 554  693.404
 555  740.6652
 556  817.2454
 557  831.4618
 558  874.0947
 559  910.8483
 560  1033.035
 561  983.0776
 562  1002.219
 563  898.9111
 564  839.176
 565  798.8131
 566  825.9817
 567  734.7726
 568  653.6335
 569  636.8715
 570  635.2858
 571  773.8444
 572  875.9595
 573  864.1054
 574  920.9238
 575  940.1992
 576  1001.079
 577  857.9274
 578  743.2516
 579  640.0968
 580  631.367
 581  667.2886
 582  764.8643
 583  789.5643
 584  802.2552
 585  673.7731
 586  675.1311
 587  683.2012
 588  736.2188
 589  642.1895
 590  742.7358
 591  779.9569
 592  834.8241
 593  793.8856
 594  833.7779
 595  865.709
 596  808.5071
 597  695.9477
 598  704.4068
 599  725.9568
 600  660.5941
 601  695.8787
 602  867.5993
 603  895.9321
 604  916.717
 605  850.2387
 606  876.3912
 607  945.7719
 608  961.4402
 609  1171.654
 610  1323.648
 611  1478.406
 612  1600.826
 613  1598.29
 614  1717.965
 615  1777.836
 616  1846.596
 617  1914.865
 618  1742.671
 619  1550.802
 620  1281.387
 621  1137.391
 622  964.1522
 623  870.6461
 624  688.2817
 625  655.9377
 626  749.034
 627  787.2582
 628  890.5931
 629  741.4746
 630  724.2808
 631  809.4171
 632  838.0504
 633  872.966
 634  711.8323
 635  613.178
 636  712.5488
 637  796.6624
 638  891.4281
 639  883.4122
 640  938.5146
 641  995.4812
 642  955.5712
 643  894.1467
 644  760.9664
 645  821.6243
 646  820.1309
 647  835.3502
 648  907.5545
 649  932.7552
 650  924.0634
 651  731.5419
 652  757.8167
 653  818.0281
 654  779.2248
 655  673.6038
 656  658.2244
 657  641.4674
 658  618.8217
 659  605.2358
 660  686.2892
 661  791.1501
 662  726.8035
 663  674.3449
 664  638.3223
 665  681.7278
 666  748.4082
 667  767.0764
 668  676.5747
 669  683.5154
 670  628.9481
 671  712.78
 672  828.1515
 673  971.8121
 674  1107.51
 675  936.4572
 676  881.481
 677  829.5757
 678  840.9962
 679  898.2512
 680  912.1335
 681  812.801
 682  840.7982
 683  877.12
 684  985.2501
 685  815.3161
 686  790.4659
 687  900.323
 688  986.7751
 689  1060.503
 690  1010.615
 691  1130.908
 692  1080.609
 693  1138.752
 694  830.8344
 695  769.9365
 696  777.9341
 697  923.9344
 698  896.5665
 699  932.9832
 700  961.463
 701  921.2041
 702  868.0349
 703  1008.851
 704  1103.481
 705  1229.411
 706  1255.439
 707  1188.47
 708  985.2359
 709  881.726
 710  820.7872
 711  891.0543
 712  885.8887
 713  870.6813
 714  991.4955
 715  966.5645
 716  919.3901
 717  849.7882
 718  832.2869
 719  893.0646
 720  902.3621
 721  931.0289
 722  912.4774
 723  862.1998
 724  897.7916
 725  964.3427
 726  945.657
 727  907.5027
 728  774.6705
 729  760.2486
 730  702.8911
 731  739.6321
 732  767.5032
 733  808.8089
 734  771.6079
 735  762.7106
 736  748.2794
 737  610.28
 738  747.1691
 739  744.3785
 740  694.6705
 741  541.3838
 742  500.0087
 743  605.7953
 744  590.8456
 745  626.3969
 746  637.0623
 747  623.5801
 748  711.1741
 749  677.9936
 750  641.8226
 751  582.2186
 752  632.0039
 753  675.2098
 754  709.8575
 755  715.617
 756  672.5103
 757  504.3692
 758  456.5334
 759  453.5912
 760  583.3406
 761  597.4066
 762  671.0764
 763  672.6537
 764  773.0844
 765  926.4524
 766  980.2591
 767  971.3406
 768  1013.33
 769  1023.546
 770  934.4689
 771  777.5138
 772  762.5518
 773  902.948
 774  1054.934
 775  1010.872
 776  904.5131
 777  823.7343
 778  794.5517
 779  793.5751
 780  796.1725
 781  884.0824
 782  853.3441
 783  776.4979
 784  800.2318
 785  748.8667
 786  682.2365
 787  743.5875
 788  803.592
 789  982.5654
 790  1021.193
 791  1009.554
 792  853.7827
 793  831.2853
 794  855.183
 795  917.2043
 796  876.4666
 797  765.0056
 798  719.7427
 799  570.8538
 800  703.5308
 801  673.1517
 802  641.9768
 803  692.6936
 804  873.9801
 805  1014.894
 806  859.9952
 807  785.6797
 808  831.6171
 809  891.084
 810  807.1079
 811  831.2239
 812  649.9843
 813  565.3276
 814  634.0047
 815  766.0978
 816  742.0265
 817  702.038
 818  830.316
 819  991.2595
 820  1040.555
 821  1046.962
 822  1030.797
 823  886.6158
 824  747.1395
 825  775.893
 826  853.2369
 827  871.3315
 828  981.5347
 829  1127.339
 830  1089.984
 831  1079.579
 832  1017.519
 833  1098.887
 834  947.424
 835  830.4017
 836  951.8602
 837  943.6096
 838  1083.548
 839  999.0179
 840  1017.447
 841  879.2676
 842  881.8154
 843  972.7033
 844  1061.156
 845  1053.355
 846  1046.637
 847  1133.943
 848  1072.134
 849  946.3088
 850  897.0579
 851  853.9061
 852  849.7726
 853  837.1289
 854  844.392
 855  848.8145
 856  748.1151
 857  849.1757
 858  791.2784
 859  812.949
 860  902.3843
 861  897.242
 862  917.3198
 863  834.4096
 864  861.4451
 865  891.4836
 866  762.129
 867  785.6187
 868  759.8251
 869  943.6805
 870  949.3095
 871  776.7158
 872  677.6306
 873  846.2668
 874  1061.932
 875  1031.864
 876  900.0922
 877  931.9185
 878  891.6749
 879  844.5867
 880  744.1628
 881  788.373
 882  726.0297
 883  671.7364
 884  564.8237
 885  485.6327
 886  482.8968
 887  600.8676
 888  693.1425
 889  749.2354
 890  832.2959
 891  1015.327
 892  1055.658
 893  937.087
 894  759.8112
 895  679.9982
 896  766.6206
 897  772.3286
 898  805.7777
 899  771.6026
 900  640.4142
 901  537.6053
 902  597.6081
 903  727.6451
 904  879.459
 905  766.4958
 906  780.9178
 907  811.9114
 908  774.0219
 909  555.4236
 910  443.9665
 911  493.1481
 912  712.5602
 913  723.3184
 914  626.728
 915  632.5783
 916  821.4755
 917  870.521
 918  906.7429
 919  910.9438
 920  995.1428
 921  972.7941
 922  943.7635
 923  834.8536
 924  745.3289
 925  655.951
 926  680.6625
 927  858.9671
 928  1067.12
 929  960.023
 930  963.6583
 931  973.4757
 932  1119.556
 933  946.3655
 934  864.5563
 935  800.6631
 936  722.134
 937  786.9799
 938  739.2621
 939  740.8587
 940  699.3238
 941  684.2946
 942  770.8524
 943  892.6467
 944  815.317
 945  782.2166
 946  943.3172
 947  1042.159
 948  1008.94
 949  881.188
 950  702.1442
 951  556.4481
 952  455.9224
 953  633.2507
 954  659.3737
 955  607.2042
 956  655.1679
 957  787.0269
 958  855.0106
 959  897.3107
 960  936.6545
 961  1054.508
 962  1022.744
 963  1003.558
 964  875.9724
 965  707.2491
 966  645.9272
 967  801.9116
 968  774.0187
 969  766.8901
 970  653.6661
 971  621.3797
 972  531.8004
 973  507.2111
 974  586.0645
 975  711.1411
 976  776.8008
 977  818.7697
 978  782.9975
 979  663.0901
 980  532.2845
 981  560.6185
 982  653.3187
 983  676.2587
 984  570.1174
 985  666.6607
 986  852.8253
 987  856.097
 988  700.1519
 989  715.5403
 990  801.9637
 991  899.0035
 992  796.8079
 993  688.2219
 994  696.9714
 995  643.3529
 996  648.2141
 997  632.387
 998  708.3458
 999  666.4752
1000  664.683
1001  661.4717
1002  795.0028
1003  726.1425
1004  680.4086
1005  848.1727
1006  929.585
1007  907.3687
1008  702.4416
1009  628.4028
1010  563.0156
1011  616.6229
1012  696.1005
1013  803.0961
1014  758.9831
1015  744.3184
1016  808.6379
1017  871.9614
1018  927.9514
1019  865.7068
1020  792.6172
1021  731.3297
1022  688.3112
1023  651.4047
