# Input file       =  1201462217.127175_cleaned.dat
# Candidate        =  PSR_0332+5434
# Telescope        =  AR
# Epoch_topo       =  58149.812918138603
# Epoch_bary       =  N/A
# T_sample         =  0.002
# Data Folded      =  7340032
# Data Avg         =  0.0663581666771539
# Data StdDev      =  2.98152330745387 
# Profile Bins     =  512
# Profile Avg      =  951.362448960568 
# Profile StdDev   =  356.98683862955  
# Reduced chi-sqr  =  0.911
# Prob(Noise)      <  0.926   (~0.0 sigma)
# P_topo (ms)      =  714.576162533998  +/- 0.000698
# P'_topo (s/s)    =  -0                +/- 3.68e-10
# P''_topo (s/s^2) =  0                 +/- 1.63e-13
# P_bary (ms)      =  N/A
# P'_bary (s/s)    =  N/A
# P''_bary (s/s^2) =  N/A
# P_orb (s)        =  N/A
# asin(i)/c (s)    =  N/A
# eccentricity     =  N/A
# w (rad)          =  N/A
# T_peri           =  N/A
######################################################
   0  1272.244
   1  996.8452
   2  1397.756
   3  1486.583
   4  1206.452
   5  875.0847
   6  1043.28
   7  1199.244
   8  1091.235
   9  1017.426
  10  1184.873
  11  762.9542
  12  1006.171
  13  1229.735
  14  1316.327
  15  1111.039
  16  968.7814
  17  1020.434
  18  1220.832
  19  1015.767
  20  958.2986
  21  916.6323
  22  805.6785
  23  1005.547
  24  961.7775
  25  1012.343
  26  1361.435
  27  934.8854
  28  799.0819
  29  702.3851
  30  997.3901
  31  1279.727
  32  1090.594
  33  887.159
  34  708.7911
  35  951.4046
  36  518.6227
  37  767.011
  38  973.8088
  39  970.2731
  40  874.1035
  41  791.5311
  42  738.4405
  43  837.9194
  44  926.2729
  45  527.0276
  46  716.1943
  47  928.6417
  48  1033.264
  49  1011.027
  50  1072.025
  51  910.1418
  52  932.7513
  53  916.1262
  54  919.2756
  55  969.9634
  56  751.5737
  57  988.4721
  58  665.148
  59  807.3851
  60  841.8126
  61  807.4362
  62  774.7605
  63  871.0886
  64  1149.58
  65  818.2271
  66  638.1023
  67  899.7202
  68  637.9069
  69  667.2175
  70  894.6495
  71  750.4212
  72  628.4323
  73  634.8054
  74  1021.348
  75  845.7006
  76  835.1774
  77  918.9767
  78  781.3441
  79  661.5082
  80  713.0961
  81  496.8343
  82  454.0533
  83  515.9268
  84  904.5697
  85  841.2027
  86  766.8484
  87  899.2163
  88  804.8113
  89  900.7529
  90  1079.998
  91  1038.181
  92  695.7532
  93  847.8359
  94  1031.045
  95  1056.92
  96  1042.413
  97  702.1133
  98  336.8238
  99  496.0895
 100  665.0602
 101  750.0626
 102  608.3145
 103  846.5366
 104  837.8081
 105  934.0807
 106  751.2855
 107  651.6675
 108  973.5636
 109  741.6954
 110  732.9226
 111  919.9509
 112  1117.994
 113  1164.574
 114  984.1487
 115  1090.469
 116  1020.209
 117  1322.805
 118  1209.969
 119  939.4405
 120  800.0718
 121  1167.698
 122  1107.71
 123  734.9361
 124  895.9271
 125  1336.711
 126  1116.315
 127  677.6093
 128  926.1464
 129  996.7535
 130  1036.376
 131  758.0061
 132  654.2383
 133  950.0834
 134  1098.662
 135  982.4672
 136  1000.076
 137  822.4858
 138  538.9968
 139  635.858
 140  933.2922
 141  785.1326
 142  824.332
 143  741.7025
 144  710.9165
 145  843.6022
 146  725.84
 147  855.176
 148  977.1285
 149  978.6234
 150  843.8004
 151  655.4474
 152  556.3005
 153  681.0452
 154  961.3465
 155  910.9587
 156  557.8788
 157  676.3937
 158  1003.43
 159  1201.841
 160  1401.33
 161  601.6101
 162  835.1681
 163  818.9559
 164  899.3652
 165  1126.309
 166  1093.039
 167  806.7353
 168  963.7396
 169  1130.15
 170  1096.798
 171  935.3461
 172  760.996
 173  876.3896
 174  768.5013
 175  1065.352
 176  1204.744
 177  995.5552
 178  646.1177
 179  730.1108
 180  1077.627
 181  866.3177
 182  926.4011
 183  1169.562
 184  911.7222
 185  939.2053
 186  960.3099
 187  898.3089
 188  859.7898
 189  1104.158
 190  1011.426
 191  1035.634
 192  896.0615
 193  887.322
 194  1009.053
 195  949.9422
 196  815.2673
 197  888.6301
 198  951.4312
 199  1127.651
 200  976.936
 201  1101.637
 202  1299.783
 203  966.2364
 204  1045.021
 205  919.3303
 206  1104.782
 207  1193.865
 208  981.639
 209  911.8495
 210  906.8099
 211  863.2208
 212  971.4142
 213  1002.346
 214  703.2487
 215  772.5249
 216  869.7606
 217  819.7484
 218  900.9971
 219  583.5933
 220  660.5436
 221  905.2629
 222  901.6896
 223  970.0591
 224  896.2242
 225  760.205
 226  762.5372
 227  728.5551
 228  955.4021
 229  1028.467
 230  851.4131
 231  1011.516
 232  1028.848
 233  906.8818
 234  861.5165
 235  501.6869
 236  599.3408
 237  644.7816
 238  694.2889
 239  796.128
 240  802.3173
 241  1079.555
 242  984.9339
 243  738.7822
 244  881.2454
 245  994.556
 246  747.0193
 247  808.7899
 248  1019.287
 249  1279.096
 250  1237.149
 251  1225.726
 252  1061.618
 253  998.0026
 254  882.4836
 255  721.9201
 256  1160.012
 257  1081.645
 258  997.9221
 259  1071.255
 260  1181.577
 261  914.5109
 262  948.8288
 263  839.0678
 264  1058.893
 265  810.2316
 266  614.3191
 267  788.7769
 268  989.7267
 269  973.8889
 270  989.427
 271  957.7909
 272  1170.219
 273  1028
 274  388.331
 275  632.7472
 276  775.423
 277  1006.485
 278  1180.696
 279  1100.163
 280  1065.526
 281  1049.238
 282  1161.214
 283  852.5826
 284  764.0596
 285  943.9545
 286  1119.996
 287  1183.456
 288  1031.379
 289  1168.255
 290  1413.326
 291  1213.037
 292  841.1949
 293  703.3022
 294  923.7449
 295  846.1799
 296  804.2895
 297  881.8656
 298  959.5726
 299  1225.54
 300  1063.315
 301  882.6532
 302  1127.844
 303  1184.839
 304  1632.038
 305  1883.323
 306  2432.181
 307  2370.383
 308  2183.038
 309  2406.487
 310  2001.881
 311  1331.861
 312  989.9219
 313  691.4329
 314  1067.929
 315  1295.372
 316  681.9142
 317  635.0146
 318  518.5817
 319  812.1946
 320  853.3284
 321  1297.621
 322  1143.052
 323  969.2997
 324  872.6876
 325  820.6552
 326  749.4511
 327  793.9872
 328  585.4581
 329  436.5717
 330  882.1223
 331  910.4081
 332  752.5707
 333  759.5604
 334  1086.65
 335  764.7206
 336  603.4471
 337  1081.612
 338  915.0209
 339  630.9279
 340  648.2146
 341  787.5508
 342  955.9888
 343  1203.691
 344  963.967
 345  692.6941
 346  633.8941
 347  683.668
 348  775.0512
 349  869.0204
 350  787.9667
 351  718.2899
 352  862.9773
 353  844.232
 354  704.7799
 355  1150.429
 356  1264.984
 357  876.2454
 358  660.9886
 359  917.1125
 360  878.8059
 361  1036.037
 362  780.166
 363  633.5461
 364  738.9638
 365  956.884
 366  1144.868
 367  1190.755
 368  1153.622
 369  978.478
 370  1027.723
 371  853.3719
 372  925.8085
 373  868.6339
 374  598.9036
 375  665.619
 376  865.3771
 377  888.9655
 378  1015.57
 379  1028.107
 380  1192.306
 381  1097.62
 382  876.9202
 383  847.2089
 384  759.2174
 385  768.3357
 386  1155.688
 387  1076.581
 388  567.5856
 389  920.7255
 390  1185.698
 391  1188.006
 392  1100.797
 393  995.5266
 394  965.8304
 395  792.8625
 396  799.4217
 397  1295.719
 398  1334.512
 399  1185.785
 400  674.2332
 401  520.03
 402  686.6415
 403  931.5213
 404  911.5147
 405  936.6933
 406  851.7594
 407  1150.458
 408  959.6021
 409  958.7684
 410  1023.723
 411  665.3011
 412  710.1209
 413  997.4716
 414  822.4909
 415  809.8206
 416  1163.036
 417  1063.956
 418  810.4459
 419  1095.52
 420  1187.905
 421  745.0748
 422  654.6266
 423  667.6763
 424  586.6109
 425  403.566
 426  666.9887
 427  1157.875
 428  1039.47
 429  923.1383
 430  954.5284
 431  983.1918
 432  1265.237
 433  1233.111
 434  1236.819
 435  1067.095
 436  776.5385
 437  961.0557
 438  1010.883
 439  970.5959
 440  1258.264
 441  1023.224
 442  595.9638
 443  535.4079
 444  1018.355
 445  912.691
 446  1314.371
 447  1488.575
 448  1197.933
 449  965.8783
 450  1089.463
 451  1082.141
 452  1357.408
 453  1338.619
 454  1137.25
 455  1050.629
 456  1158.501
 457  976.5285
 458  650.207
 459  1030.191
 460  923.5703
 461  693.3629
 462  988.6462
 463  1012.321
 464  721.6013
 465  953.3195
 466  1022.194
 467  1140.58
 468  845.4668
 469  1010.638
 470  1121.904
 471  1087.115
 472  784.1982
 473  912.423
 474  1044.062
 475  851.2747
 476  1072.901
 477  1043.353
 478  1171.929
 479  1269.464
 480  1433.385
 481  1193.668
 482  1106.431
 483  1016.274
 484  817.6359
 485  1036.186
 486  1281.56
 487  1419.432
 488  1278.324
 489  1162.868
 490  1017.828
 491  1112.719
 492  888.9691
 493  1055.332
 494  1164.729
 495  1061.887
 496  846.874
 497  1054.1
 498  1159.217
 499  1210.491
 500  991.8842
 501  1388.516
 502  1174.171
 503  763.1627
 504  946.3449
 505  1259.767
 506  1318.164
 507  1120.011
 508  1073.496
 509  1170.881
 510  1016.256
 511  1384.221
