# Input file       =  1201634619.11026_cleaned.dat
# Candidate        =  PSR_0332+5434
# Telescope        =  AR
# Epoch_topo       =  58151.808311461340
# Epoch_bary       =  N/A
# T_sample         =  0.002
# Data Folded      =  7340032
# Data Avg         =  0.0513666719894641
# Data StdDev      =  3.05650338015413 
# Profile Bins     =  512
# Profile Avg      =  736.311629822194 
# Profile StdDev   =  365.964430401703 
# Reduced chi-sqr  =  0.868
# Prob(Noise)      <  0.986   (~0.0 sigma)
# P_topo (ms)      =  714.576958735083  +/- 0.000852
# P'_topo (s/s)    =  -0                +/- 4.5e-10
# P''_topo (s/s^2) =  0                 +/- 1.98e-13
# P_bary (ms)      =  N/A
# P'_bary (s/s)    =  N/A
# P''_bary (s/s^2) =  N/A
# P_orb (s)        =  N/A
# asin(i)/c (s)    =  N/A
# eccentricity     =  N/A
# w (rad)          =  N/A
# T_peri           =  N/A
######################################################
   0  791.0316
   1  585.2765
   2  641.406
   3  911.287
   4  1208.57
   5  1032.648
   6  625.8643
   7  493.2191
   8  312.6384
   9  527.3035
  10  707.6742
  11  836.0039
  12  663.7981
  13  604.4364
  14  442.9101
  15  144.1642
  16  597.9749
  17  793.725
  18  738.5139
  19  927.3655
  20  1046.891
  21  745.3471
  22  531.129
  23  421.3932
  24  292.1831
  25  517.2208
  26  597.7889
  27  693.2444
  28  252.0001
  29  511.8709
  30  955.7921
  31  857.2686
  32  622.3419
  33  1038.872
  34  761.0861
  35  602.7064
  36  653.7661
  37  885.049
  38  926.9578
  39  622.579
  40  602.4089
  41  502.1677
  42  722.2027
  43  886.3963
  44  774.3092
  45  1003.794
  46  807.9692
  47  794.6832
  48  768.4648
  49  754.9866
  50  646.6168
  51  747.4645
  52  1157.855
  53  797.6256
  54  618.8054
  55  444.9361
  56  371.4954
  57  646.877
  58  433.9536
  59  660.457
  60  615.217
  61  824.0433
  62  684.2016
  63  482.7849
  64  642.6927
  65  862.8475
  66  991.7072
  67  1046.429
  68  684.6518
  69  764.8727
  70  718.2029
  71  799.9922
  72  636.0402
  73  764.4866
  74  972.099
  75  627.4053
  76  794.5991
  77  838.8741
  78  709.0815
  79  343.4171
  80  174.8459
  81  661.3622
  82  1184.896
  83  1323.995
  84  1236.652
  85  1001.283
  86  415.5772
  87  422.0957
  88  638.5734
  89  659.1964
  90  845.4194
  91  749.4769
  92  552.7485
  93  598.327
  94  904.5033
  95  961.1416
  96  785.8134
  97  657.8597
  98  606.5715
  99  676.1382
 100  712.6805
 101  743.3792
 102  818.4127
 103  918.2653
 104  997.857
 105  639.0049
 106  671.7457
 107  1095.421
 108  993.9666
 109  617.9249
 110  878.6077
 111  1117.976
 112  917.2676
 113  475.1383
 114  433.7683
 115  866.3298
 116  953.9705
 117  1175.505
 118  1171.888
 119  872.3925
 120  715.4102
 121  630.9127
 122  412.0335
 123  568.4359
 124  776.7362
 125  887.0844
 126  897.0918
 127  880.8149
 128  724.191
 129  687.322
 130  875.7192
 131  889.4614
 132  754.1074
 133  821.8127
 134  713.2234
 135  577.7594
 136  521.3663
 137  472.2833
 138  694.4078
 139  811.3165
 140  993.931
 141  752.8024
 142  718.6286
 143  489.1057
 144  703.6632
 145  873.0451
 146  410.5238
 147  379.0298
 148  608.5355
 149  469.9782
 150  646.5295
 151  773.9721
 152  1001.5
 153  1009.91
 154  1010.67
 155  885.8137
 156  794.2639
 157  822.4556
 158  797.106
 159  791.4493
 160  646.6489
 161  931.7079
 162  670.9412
 163  787.9047
 164  867.7057
 165  727.2042
 166  661.69
 167  441.1786
 168  603.4053
 169  709.0006
 170  780.0524
 171  989.8348
 172  960.851
 173  817.4142
 174  615.2921
 175  575.7649
 176  915.6754
 177  812.5961
 178  581.5003
 179  797.5398
 180  895.5961
 181  575.3254
 182  536.5127
 183  777.389
 184  549.1003
 185  559.1843
 186  654.1734
 187  568.3975
 188  593.5335
 189  417.7285
 190  702.4139
 191  907.5054
 192  679.0829
 193  756.8618
 194  902.0737
 195  999.0607
 196  420.7639
 197  602.565
 198  760.3599
 199  562.3622
 200  386.3397
 201  863.7189
 202  1201.435
 203  804.252
 204  394.5062
 205  635.5607
 206  535.3254
 207  685.902
 208  916.2363
 209  917.2431
 210  799.3903
 211  965.5426
 212  721.8135
 213  918.6053
 214  879.4159
 215  769.4135
 216  833.0262
 217  1040.498
 218  866.6195
 219  443.5246
 220  532.6938
 221  878.9448
 222  738.733
 223  732.9711
 224  661.3964
 225  757.3907
 226  654.9937
 227  957.5594
 228  889.9595
 229  694.3779
 230  734.9405
 231  671.8899
 232  761.497
 233  783.6593
 234  697.2777
 235  530.3535
 236  665.015
 237  898.7508
 238  974.6117
 239  520.304
 240  198.6221
 241  395.8931
 242  834.4596
 243  865.2096
 244  649.9913
 245  694.7247
 246  626.4056
 247  891.3317
 248  795.5693
 249  641.4514
 250  878.814
 251  1116.035
 252  1009.258
 253  905.8352
 254  936.7448
 255  992.9196
 256  595.1941
 257  636.5934
 258  732.9414
 259  1023.529
 260  1125.449
 261  956.5586
 262  865.5207
 263  1104.739
 264  785.2141
 265  703.051
 266  877.1379
 267  867.4704
 268  585.6609
 269  601.2253
 270  805.5452
 271  796.8414
 272  491.9517
 273  991.6921
 274  957.9609
 275  584.6583
 276  593.8771
 277  566.697
 278  668.1628
 279  842.3485
 280  428.0346
 281  374.3852
 282  494.9971
 283  1157.227
 284  924.1472
 285  823.4292
 286  740.2294
 287  1220.508
 288  979.2394
 289  846.907
 290  699.6557
 291  800.7571
 292  989.6317
 293  1004.624
 294  725.4418
 295  776.6826
 296  579.4188
 297  635.8414
 298  705.2792
 299  691.9118
 300  1006.734
 301  745.3389
 302  826.5839
 303  743.8033
 304  506.962
 305  528.8895
 306  501.9158
 307  544.8848
 308  662.109
 309  517.9398
 310  748.9497
 311  739.8403
 312  476.408
 313  747.55
 314  644.7661
 315  607.334
 316  508.5505
 317  829.6151
 318  789.609
 319  520.6962
 320  641.2896
 321  694.5291
 322  531.2092
 323  636.1093
 324  1055.852
 325  859.2856
 326  500.808
 327  657.6564
 328  868.9367
 329  908.8453
 330  920.0551
 331  606.9796
 332  606.2407
 333  616.423
 334  621.5728
 335  384.2443
 336  718.7827
 337  886.3751
 338  744.0907
 339  649.9603
 340  535.4764
 341  294.437
 342  235.0158
 343  604.3163
 344  596.2547
 345  773.7963
 346  500.644
 347  491.9175
 348  232.7849
 349  437.8239
 350  621.6467
 351  590.7283
 352  914.7991
 353  691.5818
 354  417.4183
 355  401.1836
 356  605.385
 357  594.277
 358  617.2266
 359  706.0394
 360  602.5137
 361  558.2336
 362  611.0358
 363  606.2792
 364  591.3055
 365  708.415
 366  902.1777
 367  1020.89
 368  447.3845
 369  371.3055
 370  388.9495
 371  468.7805
 372  478.1937
 373  384.8467
 374  397.4435
 375  579.6545
 376  567.684
 377  738.385
 378  521.8458
 379  651.3903
 380  577.3364
 381  494.5504
 382  176.9078
 383  325.3395
 384  572.2567
 385  514.4155
 386  566.1954
 387  513.8788
 388  658.5574
 389  671.293
 390  635.7533
 391  1091.291
 392  828.5649
 393  562.0432
 394  351.3035
 395  353.5348
 396  634.5452
 397  990.8384
 398  1127.317
 399  905.1829
 400  656.6971
 401  495.509
 402  301.6025
 403  740.0178
 404  763.9983
 405  779.2054
 406  775.0942
 407  600.1655
 408  835.905
 409  560.949
 410  552.7774
 411  658.3482
 412  879.0011
 413  854.5648
 414  762.7374
 415  578.6498
 416  584.596
 417  585.0419
 418  892.9706
 419  754.5034
 420  770.3772
 421  625.575
 422  923.4906
 423  959.8183
 424  540.3383
 425  580.8899
 426  855.8055
 427  568.2702
 428  532.5056
 429  588.0657
 430  413.9751
 431  527.559
 432  813.7716
 433  706.0293
 434  621.1898
 435  254.7489
 436  217.7472
 437  317.3818
 438  383.6852
 439  633.9464
 440  311.6455
 441  528.9349
 442  783.2673
 443  725.6599
 444  694.1425
 445  642.0349
 446  694.5093
 447  895.542
 448  923.3796
 449  830.5605
 450  641.8755
 451  877.7576
 452  899.1033
 453  1028.865
 454  709.3741
 455  807.0566
 456  820.6552
 457  587.485
 458  997.536
 459  768.022
 460  809.907
 461  1113.62
 462  1040.36
 463  1217.438
 464  1183.704
 465  1283.486
 466  1103.312
 467  841.8946
 468  884.8877
 469  838.686
 470  968.629
 471  844.5316
 472  1019.234
 473  1162.224
 474  1057.388
 475  790.1005
 476  949.3449
 477  898.3046
 478  1009.01
 479  619.8937
 480  978.8892
 481  1345.757
 482  1494.804
 483  1719.931
 484  2153.268
 485  2495.751
 486  2013.113
 487  1598.712
 488  1194.238
 489  823.6599
 490  490.6096
 491  621.0127
 492  739.9829
 493  758.8729
 494  828.9362
 495  1028.903
 496  908.3151
 497  764.5942
 498  868.0437
 499  890.4655
 500  672.043
 501  919.656
 502  907.353
 503  890.1165
 504  589.7667
 505  637.9567
 506  492.1071
 507  477.8897
 508  606.6063
 509  739.4108
 510  472.358
 511  437.2558
