# Input file       =  1201462217.127175_cleaned.dat
# Candidate        =  PSR_0332+5434
# Telescope        =  AR
# Epoch_topo       =  58149.812918138603
# Epoch_bary       =  N/A
# T_sample         =  0.002
# Data Folded      =  7340032
# Data Avg         =  0.0663581666771539
# Data StdDev      =  2.98152330745387 
# Profile Bins     =  512
# Profile Avg      =  951.362448867882 
# Profile StdDev   =  356.98683862955  
# Reduced chi-sqr  =  0.910
# Prob(Noise)      <  0.928   (~0.0 sigma)
# P_topo (ms)      =  714.576162479984  +/- 0.000697
# P'_topo (s/s)    =  -0                +/- 3.68e-10
# P''_topo (s/s^2) =  0                 +/- 1.62e-13
# P_bary (ms)      =  N/A
# P'_bary (s/s)    =  N/A
# P''_bary (s/s^2) =  N/A
# P_orb (s)        =  N/A
# asin(i)/c (s)    =  N/A
# eccentricity     =  N/A
# w (rad)          =  N/A
# T_peri           =  N/A
######################################################
   0  893.3486
   1  984.1558
   2  771.5761
   3  932.8016
   4  762.5757
   5  698.8412
   6  932.7308
   7  763.7816
   8  823.2343
   9  806.6657
  10  1121.116
  11  932.7096
  12  578.359
  13  909.4312
  14  680.9843
  15  629.4523
  16  873.1926
  17  804.9958
  18  669.4528
  19  577.4675
  20  947.2478
  21  899.2359
  22  821.1245
  23  920.7468
  24  813.7951
  25  648.8655
  26  710.5651
  27  571.4891
  28  434.4525
  29  502.162
  30  823.364
  31  887.3747
  32  736.6947
  33  900.171
  34  818.4976
  35  865.8924
  36  1061.245
  37  1087.462
  38  752.8441
  39  760.9358
  40  1015.211
  41  1013.665
  42  1102.492
  43  772.2614
  44  407.9613
  45  460.6142
  46  606.5593
  47  772.8222
  48  583.2386
  49  825.3429
  50  854.5752
  51  885.5624
  52  846.1375
  53  595.6706
  54  964.1124
  55  805.7669
  56  686.244
  57  877.501
  58  1083.226
  59  1177.035
  60  988.2397
  61  1093.059
  62  999.3898
  63  1267.177
  64  1263.344
  65  991.7345
  66  804.566
  67  1072.986
  68  1202.781
  69  774.1776
  70  811.674
  71  1269.322
  72  1225.564
  73  750.0144
  74  803.8172
  75  1016.127
  76  1039.51
  77  850.9143
  78  660.3174
  79  831.7021
  80  1108.983
  81  1015.502
  82  1000.345
  83  874.3419
  84  588.208
  85  570.537
  86  878.3807
  87  850.6856
  88  774.4905
  89  823.5826
  90  653.3487
  91  870.9031
  92  713.0718
  93  816.4638
  94  951.0567
  95  1035.188
  96  846.5257
  97  721.6272
  98  519.9235
  99  672.2928
 100  876.5993
 101  995.4026
 102  601.962
 103  593.481
 104  976.9811
 105  1100.72
 106  1454.298
 107  765.5699
 108  720.5978
 109  885.0791
 110  849.3055
 111  1052.44
 112  1175.104
 113  788.9562
 114  960.4768
 115  1073.172
 116  1120.568
 117  983.8923
 118  776.7166
 119  869.6381
 120  769.7546
 121  981.9097
 122  1207.184
 123  1083.183
 124  710.1983
 125  639.1044
 126  1047.132
 127  933.9962
 128  871.2867
 129  1137.053
 130  994.0209
 131  884.3556
 132  993.3837
 133  891.0699
 134  851.306
 135  1066.426
 136  1038.56
 137  1046.016
 138  927.6912
 139  861.6653
 140  989.1627
 141  989.3159
 142  817.2014
 143  863.3733
 144  964.076
 145  1064.454
 146  1038.48
 147  1036.336
 148  1315.708
 149  1030.98
 150  998.7817
 151  965.6132
 152  1004.929
 153  1228.09
 154  1039.661
 155  882.6915
 156  951.8538
 157  829.8644
 158  972.7918
 159  1000.771
 160  796.5977
 161  659.8541
 162  913.1779
 163  797.1444
 164  936.0087
 165  633.8409
 166  633.5827
 167  847.5882
 168  890.6293
 169  985.6959
 170  916.9737
 171  778.77
 172  749.1251
 173  754.3543
 174  868.4523
 175  1052.327
 176  861.8402
 177  971.1027
 178  1047.33
 179  935.4457
 180  892.502
 181  568.1893
 182  544.0693
 183  656.1588
 184  664.2271
 185  804.6866
 186  759.1028
 187  1052.898
 188  1039.756
 189  788.1622
 190  821.045
 191  1001.577
 192  786.3347
 193  782.9072
 194  942.8616
 195  1235.848
 196  1281.381
 197  1195.999
 198  1124.515
 199  970.7285
 200  984.6166
 201  684.87
 202  1101.202
 203  1114.952
 204  968.5264
 205  1052.985
 206  1188.869
 207  961.7219
 208  973.3364
 209  812.2741
 210  1023.021
 211  903.6758
 212  613.5591
 213  738.7971
 214  960.0198
 215  976.9888
 216  975.9656
 217  1006.518
 218  1090.155
 219  1143.522
 220  470.7131
 221  534.2568
 222  782.9164
 223  929.9263
 224  1174.285
 225  1076.171
 226  1095.254
 227  1028.959
 228  1163.629
 229  954.2587
 230  732.2217
 231  878.4071
 232  1108.782
 233  1157.067
 234  1068.786
 235  1115.421
 236  1418.277
 237  1295.475
 238  884.2186
 239  716.0912
 240  868.078
 241  897.4296
 242  798.1454
 243  847.1135
 244  928.3185
 245  1169.894
 246  1142.296
 247  851.4713
 248  1125.181
 249  1154.647
 250  1523.812
 251  1826.919
 252  2293.65
 253  2436.496
 254  2201.708
 255  2385.733
 256  2160.734
 257  1463.823
 258  1022.115
 259  742.2536
 260  927.4505
 261  1353.806
 262  786.0391
 263  622.0204
 264  531.4399
 265  750.0826
 266  809.1794
 267  1235.382
 268  1174.088
 269  1034.576
 270  853.6143
 271  886.0481
 272  696.9799
 273  827.6249
 274  622.645
 275  435.9932
 276  762.7837
 277  980.4105
 278  777.8473
 279  710.5666
 280  1034.429
 281  896.9608
 282  554.9527
 283  968.1571
 284  1036.959
 285  653.5828
 286  631.6505
 287  758.7157
 288  905.6819
 289  1181.352
 290  1031.075
 291  770.5717
 292  574.2653
 293  681.4306
 294  756.7821
 295  851.1319
 296  818.8241
 297  734.8568
 298  816.6395
 299  885.7495
 300  684.9946
 301  1036.562
 302  1310.786
 303  971.3873
 304  654.5182
 305  858.0679
 306  879.7952
 307  1027.784
 308  858.11
 309  644.1232
 310  714.3111
 311  868.1172
 312  1150.192
 313  1118.953
 314  1258.989
 315  974.9664
 316  1064.915
 317  838.1204
 318  910.6906
 319  901.0875
 320  692.4036
 321  570.8256
 322  876.5393
 323  834.6649
 324  1043.316
 325  952.0938
 326  1210.084
 327  1105.723
 328  957.538
 329  813.7197
 330  818.4632
 331  705.1564
 332  1085.602
 333  1131.738
 334  665.0711
 335  786.5134
 336  1205.463
 337  1181.149
 338  1115.864
 339  1006.276
 340  963.5882
 341  860.5789
 342  719.6461
 343  1236.491
 344  1321.453
 345  1285.757
 346  759.9807
 347  515.2327
 348  635.054
 349  897.8118
 350  907.2922
 351  978.6206
 352  807.5715
 353  1147.077
 354  967.7868
 355  943.124
 356  1031.8
 357  743.2512
 358  638.9319
 359  985.3989
 360  881.6398
 361  759.7716
 362  1096.717
 363  1153.426
 364  831.2277
 365  956.7863
 366  1266.567
 367  822.4315
 368  689.4348
 369  630.2512
 370  616.4804
 371  418.4449
 372  585.8536
 373  1097.11
 374  1067.724
 375  949.9025
 376  904.9936
 377  998.6691
 378  1182.296
 379  1274.395
 380  1226.983
 381  1135.783
 382  844.6906
 383  870.8646
 384  1053.847
 385  916.2397
 386  1226.757
 387  1112.116
 388  692.7479
 389  465.1581
 390  944.6682
 391  955.8812
 392  1189.169
 393  1508.475
 394  1262.77
 395  971.7696
 396  1059.905
 397  1074.963
 398  1340.182
 399  1325.374
 400  1201.324
 401  1039.279
 402  1146.357
 403  1081.812
 404  636.0557
 405  936.7969
 406  1014.565
 407  673.7626
 408  923.6842
 409  1044.217
 410  758.6705
 411  868.6133
 412  1057.6
 413  1128.254
 414  931.8758
 415  914.2147
 416  1124.777
 417  1096.134
 418  870.7437
 419  827.8542
 420  1082.445
 421  827.7983
 422  1061.998
 423  1036.927
 424  1134.187
 425  1263.634
 426  1385.442
 427  1312.86
 428  1034.663
 429  1108.644
 430  822.4688
 431  989.3876
 432  1207.837
 433  1424.236
 434  1316.683
 435  1180.806
 436  1034.414
 437  1096.594
 438  957.1172
 439  961.7621
 440  1193.732
 441  1086.328
 442  890.8109
 443  973.9669
 444  1130.778
 445  1241.213
 446  990.9812
 447  1302.451
 448  1322.162
 449  803.067
 450  862.9461
 451  1180.985
 452  1339.409
 453  1169.74
 454  1084.577
 455  1138.362
 456  1044.49
 457  1293.434
 458  1359.411
 459  1003.135
 460  1271.202
 461  1534.006
 462  1270.488
 463  933.1754
 464  982.7612
 465  1198.892
 466  1135.603
 467  987.3073
 468  1197.492
 469  813.5672
 470  955.3981
 471  1162.332
 472  1326.34
 473  1144.584
 474  984.3843
 475  999.8092
 476  1180.315
 477  1121.675
 478  913.9615
 479  972.6842
 480  806.0699
 481  940.0029
 482  1021.007
 483  915.4584
 484  1359.058
 485  1034.634
 486  799.7548
 487  741.3871
 488  870.5225
 489  1276.535
 490  1120.692
 491  982.0682
 492  663.5436
 493  991.9641
 494  561.4023
 495  680.4134
 496  949.8182
 497  977.68
 498  909.3055
 499  817.8934
 500  729.8011
 501  783.9037
 502  939.855
 503  603.3346
 504  649.3416
 505  897.8582
 506  1037.408
 507  989.2065
 508  1064.3
 509  978.7841
 510  883.6323
 511  957.9467
