# Input file       =  1201720771.121948_cleaned.dat
# Candidate        =  PSR_0332+5434
# Telescope        =  AR
# Epoch_topo       =  58152.805441226250
# Epoch_bary       =  N/A
# T_sample         =  0.002
# Data Folded      =  7340032
# Data Avg         =  0.0794719654316263
# Data StdDev      =  3.4857365875111  
# Profile Bins     =  512
# Profile Avg      =  1139.28961041233 
# Profile StdDev   =  417.357825632292 
# Reduced chi-sqr  =  0.852
# Prob(Noise)      <  0.993   (~0.0 sigma)
# P_topo (ms)      =  714.577331982396  +/- 0.000283
# P'_topo (s/s)    =  -0                +/- 1.49e-10
# P''_topo (s/s^2) =  0                 +/- 6.58e-14
# P_bary (ms)      =  N/A
# P'_bary (s/s)    =  N/A
# P''_bary (s/s^2) =  N/A
# P_orb (s)        =  N/A
# asin(i)/c (s)    =  N/A
# eccentricity     =  N/A
# w (rad)          =  N/A
# T_peri           =  N/A
######################################################
   0  1772.081
   1  1373.842
   2  1236.435
   3  1346.257
   4  1389.558
   5  1244.442
   6  1329.557
   7  1309.576
   8  1209.1
   9  1303.005
  10  1335.114
  11  1202.56
  12  1193.819
  13  1073.609
  14  988.9566
  15  717.2195
  16  1030.052
  17  1211.274
  18  965.4208
  19  1436.084
  20  1213.112
  21  972.2854
  22  951.9634
  23  1258.444
  24  997.0099
  25  1131.825
  26  1352.974
  27  1325.551
  28  1524.341
  29  1482.992
  30  1553.001
  31  1424.324
  32  1336.846
  33  1096.029
  34  921.0955
  35  1199.453
  36  972.264
  37  1073.883
  38  1592.625
  39  1389.999
  40  1169.877
  41  1172.068
  42  1255.448
  43  1074.293
  44  1053.695
  45  1010.739
  46  864.3885
  47  1022.283
  48  919.5894
  49  824.8083
  50  1022.064
  51  872.3859
  52  862.2274
  53  875.6908
  54  962.0835
  55  1038.112
  56  824.3096
  57  671.1379
  58  826.1481
  59  1214.55
  60  995.0588
  61  945.6097
  62  1100.678
  63  842.6545
  64  461.7732
  65  856.6049
  66  1026.975
  67  622.1654
  68  691.2485
  69  747.7923
  70  963.1198
  71  912.7774
  72  701.5214
  73  864.675
  74  641.0479
  75  831.8754
  76  551.9094
  77  519.5477
  78  622.4163
  79  603.0953
  80  758.0391
  81  969.18
  82  1139.665
  83  803.8809
  84  1130.631
  85  622.6093
  86  560.5692
  87  1057.727
  88  1094.01
  89  857.7751
  90  826.5729
  91  870.9391
  92  593.6976
  93  499.0463
  94  898.728
  95  1027.884
  96  818.1794
  97  702.4319
  98  846.7588
  99  1096
 100  812.4315
 101  1066.411
 102  1264.213
 103  1260.424
 104  1097.28
 105  1250.441
 106  1075.888
 107  698.8159
 108  864.3635
 109  1128.236
 110  896.1926
 111  774.7451
 112  902.124
 113  786.3398
 114  826.8058
 115  758.606
 116  1093.841
 117  1183.052
 118  891.0205
 119  1187.431
 120  981.4889
 121  678.5049
 122  810.0995
 123  1126.669
 124  1102.004
 125  1034.472
 126  939.6647
 127  908.0234
 128  1188.991
 129  1239.315
 130  1127.333
 131  1336.213
 132  1060.526
 133  1025.809
 134  1206.177
 135  1329.064
 136  1136.542
 137  1062.735
 138  705.4105
 139  678.7549
 140  881.6072
 141  1016.949
 142  1385.565
 143  1181.556
 144  1122.488
 145  791.2969
 146  842.6716
 147  925.2137
 148  1139.013
 149  1189.464
 150  966.1577
 151  1254.255
 152  1226.846
 153  1120.8
 154  1461.801
 155  1392.784
 156  1555.575
 157  1708.198
 158  1754.971
 159  2125.389
 160  2489.844
 161  2820.521
 162  2762.068
 163  2251.868
 164  1759.178
 165  1584.801
 166  1752.62
 167  1169.945
 168  1378.477
 169  1446.924
 170  1427.84
 171  1172.134
 172  1100.233
 173  1269.927
 174  1491.401
 175  1670.051
 176  1631.621
 177  1483.158
 178  1369.515
 179  1048.779
 180  1127.203
 181  1108.159
 182  1156.678
 183  1221.538
 184  1430.926
 185  1363.62
 186  971.8046
 187  753.6135
 188  753.7905
 189  1123.254
 190  1229.999
 191  1173.689
 192  1274.667
 193  1150.554
 194  1422.751
 195  1242.111
 196  1064.895
 197  886.1179
 198  839.21
 199  1006.403
 200  1179.366
 201  938.3513
 202  1028.262
 203  971.2966
 204  660.2424
 205  883.4564
 206  978.8376
 207  1198.474
 208  1051.348
 209  1063.594
 210  1091.884
 211  1177.186
 212  1267.352
 213  831.1931
 214  878.0675
 215  1217.428
 216  1360.233
 217  1187.719
 218  1374.176
 219  1405.78
 220  1026.624
 221  1071.345
 222  1091.581
 223  980.9105
 224  1305.15
 225  1161.904
 226  851.8371
 227  898.2334
 228  1122.536
 229  1015.803
 230  874.4659
 231  1045.324
 232  1211.371
 233  806.994
 234  934.1529
 235  1216.744
 236  1008.834
 237  737.9901
 238  848.9056
 239  662.4122
 240  730.064
 241  922.0114
 242  966.3605
 243  1024.614
 244  1032.166
 245  1263.288
 246  1223.767
 247  1070.037
 248  973.0024
 249  804.8328
 250  729.8427
 251  862.6934
 252  1024.293
 253  809.7883
 254  893.5846
 255  1166.604
 256  896.4286
 257  1061.897
 258  1271.301
 259  1266.485
 260  1288.653
 261  1453.589
 262  1174.396
 263  1233.279
 264  1379.43
 265  1400.18
 266  1196.591
 267  1304.441
 268  1149.908
 269  1054.232
 270  964.1843
 271  1114.124
 272  1010.661
 273  588.2845
 274  1053.238
 275  1258.098
 276  683.0021
 277  860.0765
 278  876.9579
 279  841.3864
 280  1291.602
 281  1405.579
 282  1507.553
 283  1027.839
 284  1189.42
 285  1623.604
 286  1315.082
 287  1257.088
 288  1397.746
 289  1302.551
 290  1559.317
 291  1179.595
 292  1088.187
 293  1209.273
 294  948.8879
 295  978.3966
 296  692.4165
 297  847.3646
 298  805.1666
 299  868.212
 300  1044.809
 301  1096.941
 302  853.3716
 303  826.3261
 304  792.5767
 305  1094.904
 306  1021.489
 307  1018.36
 308  1093.057
 309  997.2787
 310  1384.034
 311  1175.131
 312  1469.615
 313  1139.351
 314  1371.633
 315  1406.882
 316  1389.051
 317  1370.219
 318  1249.484
 319  1077.319
 320  992.6003
 321  1100.383
 322  1109.061
 323  1023.49
 324  1422.149
 325  1435.839
 326  1447.594
 327  1459.989
 328  1030.72
 329  1103.392
 330  1081.914
 331  1258.509
 332  1411.47
 333  1235.57
 334  1326.54
 335  1260.683
 336  1211.405
 337  1108.52
 338  1001.369
 339  744.4649
 340  994.3101
 341  1113.667
 342  1237.74
 343  1449.952
 344  1348.117
 345  1084.629
 346  953.8743
 347  958.8896
 348  852.2665
 349  1063.292
 350  1355.202
 351  1160.861
 352  1042.981
 353  1074.386
 354  1037.32
 355  875.5648
 356  1370.954
 357  1439.688
 358  1382.728
 359  1112.704
 360  1173.762
 361  1086.069
 362  850.4537
 363  974.1005
 364  1246.307
 365  1193.596
 366  1370.409
 367  1549.332
 368  1234.942
 369  1158.655
 370  931.1608
 371  889.2928
 372  817.4441
 373  999.7932
 374  1021.529
 375  1339.072
 376  1357.359
 377  1116.165
 378  1140.142
 379  1081.587
 380  1150.35
 381  938.8127
 382  1005.463
 383  1329.925
 384  1182.47
 385  1140.684
 386  860.7463
 387  1309.339
 388  1410.377
 389  1159.409
 390  1002.165
 391  856.5599
 392  1269.662
 393  1344.729
 394  1183.802
 395  998.2623
 396  894.3681
 397  829.9741
 398  985.4199
 399  1376.845
 400  1323.512
 401  1105.419
 402  1251.651
 403  1035.571
 404  1058.435
 405  1053.276
 406  1069.168
 407  1082.325
 408  1098.712
 409  1268.691
 410  905.2837
 411  998.9189
 412  1201.278
 413  1439.898
 414  1259.567
 415  1139.541
 416  1461.096
 417  1705.477
 418  1638.484
 419  1393.628
 420  1570.356
 421  957.6429
 422  754.0293
 423  1063.216
 424  1129.132
 425  655.439
 426  770.0175
 427  1335.433
 428  1432.998
 429  872.5712
 430  865.515
 431  1259.047
 432  1355.668
 433  1301.328
 434  1391.195
 435  1500.804
 436  1010.437
 437  1025.946
 438  1324.419
 439  1392.881
 440  1165.497
 441  1444.598
 442  1551.321
 443  1190.155
 444  1271.718
 445  1654.67
 446  1572.764
 447  1359.629
 448  1250.276
 449  1091.829
 450  1247.134
 451  841.4149
 452  980.1341
 453  1287.536
 454  929.3072
 455  1358.44
 456  1642.444
 457  1460.805
 458  1089.469
 459  1241.092
 460  1476.203
 461  1648.328
 462  1635.731
 463  1454.267
 464  1293.98
 465  1500.669
 466  1293.659
 467  1491.099
 468  1685.074
 469  1565.116
 470  1037.941
 471  1164.432
 472  1317.547
 473  1376.126
 474  1325.158
 475  1153.56
 476  998.6684
 477  1279.044
 478  1228.373
 479  1449.143
 480  1166.127
 481  966.0515
 482  1158.263
 483  1335.461
 484  1471.059
 485  1533.715
 486  1048.218
 487  1017.505
 488  1016.951
 489  1076.739
 490  1339.602
 491  1431.416
 492  1029.445
 493  865.7202
 494  1114.728
 495  1100.411
 496  1215.31
 497  1229.871
 498  1261.522
 499  1242.85
 500  1410.715
 501  1254.165
 502  1026.128
 503  971.1275
 504  1183.766
 505  1223.274
 506  1367.896
 507  1627.178
 508  1481.986
 509  1315.395
 510  1169.161
 511  1333.295
