# Input file       =  1201361171.110048_cleaned.dat
# Candidate        =  PSR_0332+5434
# Telescope        =  AR
# Epoch_topo       =  58148.643404051480
# Epoch_bary       =  N/A
# T_sample         =  0.002
# Data Folded      =  7340032
# Data Avg         =  0.138735297731598
# Data StdDev      =  5.85406241787558 
# Profile Bins     =  1024
# Profile Avg      =  993.696286814529 
# Profile StdDev   =  495.628586148745 
# Reduced chi-sqr  =  0.600
# Prob(Noise)      <  1   (~0.0 sigma)
# P_topo (ms)      =  714.575331692022  +/- 3.86e-05
# P'_topo (s/s)    =  -0                +/- 2.04e-11
# P''_topo (s/s^2) =  0                 +/- 8.99e-15
# P_bary (ms)      =  N/A
# P'_bary (s/s)    =  N/A
# P''_bary (s/s^2) =  N/A
# P_orb (s)        =  N/A
# asin(i)/c (s)    =  N/A
# eccentricity     =  N/A
# w (rad)          =  N/A
# T_peri           =  N/A
######################################################
   0  1168.553
   1  1145.632
   2  1027.323
   3  1025.072
   4  1003.742
   5  926.3142
   6  856.1281
   7  934.5624
   8  1001.377
   9  889.5074
  10  934.6811
  11  830.4587
  12  801.592
  13  840.9003
  14  970.4628
  15  1054.923
  16  932.012
  17  809.344
  18  744.695
  19  658.988
  20  748.3033
  21  950.524
  22  1023.991
  23  976.1501
  24  916.6722
  25  1069.413
  26  1269.998
  27  1329.62
  28  1402.817
  29  1582.937
  30  1332.952
  31  1139.403
  32  976.9725
  33  1163.172
  34  1193.998
  35  1051.494
  36  1116.897
  37  1219.677
  38  1120.066
  39  1117.568
  40  1224.781
  41  1390.844
  42  1241.615
  43  1011.112
  44  884.4806
  45  708.4549
  46  755.3428
  47  1022.635
  48  1125.804
  49  1115.816
  50  1091.245
  51  1162.311
  52  1133.867
  53  973.5764
  54  921.7368
  55  1075.432
  56  1274.891
  57  1458.24
  58  1521.336
  59  1363.134
  60  1148.489
  61  1108.998
  62  1260.133
  63  1337.889
  64  1148.993
  65  1070.136
  66  945.9432
  67  1026.413
  68  1248.096
  69  1274.603
  70  1235.471
  71  1142.689
  72  1168.324
  73  1155.009
  74  947.9856
  75  911.1694
  76  905.1107
  77  1101.708
  78  1011.845
  79  857.7996
  80  835.5405
  81  921.8547
  82  1015.406
  83  1000.649
  84  1091.775
  85  1055.181
  86  1221.373
  87  1263.021
  88  995.8087
  89  864.4167
  90  877.0994
  91  1221.359
  92  1292.573
  93  1252.834
  94  1198.284
  95  1031.467
  96  1123.469
  97  1100.94
  98  1289.162
  99  1359.839
 100  1201.052
 101  1090.047
 102  922.7854
 103  776.5056
 104  797.7586
 105  972.6478
 106  1242.305
 107  1272.274
 108  1313.111
 109  1103.539
 110  1118.243
 111  1160.708
 112  1268.617
 113  1252.951
 114  1224.587
 115  1217.01
 116  1045.369
 117  999.6944
 118  799.4918
 119  708.8536
 120  1038.726
 121  1112.041
 122  1188.094
 123  1047.339
 124  1132.325
 125  1151.634
 126  1132.762
 127  1083.082
 128  1239.668
 129  1181.928
 130  1132.537
 131  1077.699
 132  1254.003
 133  1172.865
 134  1200.272
 135  1299.767
 136  1358.722
 137  1111.438
 138  992.7814
 139  1085.948
 140  1307.805
 141  1429.985
 142  1528.426
 143  1595.144
 144  1499.736
 145  1272.536
 146  1195.277
 147  1130.506
 148  1273.327
 149  1177.582
 150  1243.992
 151  1188.083
 152  1195.488
 153  1076.204
 154  1080.12
 155  1149.05
 156  1234.631
 157  1166.759
 158  1156.337
 159  1067.232
 160  917.9716
 161  988.3537
 162  1054.657
 163  1324.056
 164  1261.14
 165  1259.568
 166  996.216
 167  958.4059
 168  1000.499
 169  1136.46
 170  1333.219
 171  1412.794
 172  1522.08
 173  1562.507
 174  1424.795
 175  1354.962
 176  1306.057
 177  1346.148
 178  1330.918
 179  1302.296
 180  1374.848
 181  1159.974
 182  1146.858
 183  1162.698
 184  1302.601
 185  1249.798
 186  1118.531
 187  1172.922
 188  1155.394
 189  1120.233
 190  839.6307
 191  812.7426
 192  934.9968
 193  979.1648
 194  1041.248
 195  1026.506
 196  1296.847
 197  1429.66
 198  1472.513
 199  1310.109
 200  1240.556
 201  1237.283
 202  1083.974
 203  967.9215
 204  823.6857
 205  919.0001
 206  955.6756
 207  833.887
 208  753.3365
 209  603.788
 210  671.6116
 211  714.1884
 212  743.0136
 213  912.5047
 214  1106.119
 215  1325.781
 216  1337.164
 217  1248.138
 218  1154.776
 219  1007.586
 220  1097.014
 221  1252.551
 222  1173.36
 223  810.5287
 224  522.4482
 225  623.7329
 226  745.392
 227  967.5204
 228  1092.742
 229  1199.579
 230  1082.353
 231  913.8614
 232  756.931
 233  608.8335
 234  724.1591
 235  896.7843
 236  876.8699
 237  831.6674
 238  777.0234
 239  981.571
 240  1111.543
 241  1231.057
 242  1221.321
 243  1193.802
 244  1242.975
 245  1040.383
 246  943.901
 247  976.4656
 248  1114.547
 249  1334.395
 250  1328.694
 251  1318.69
 252  1157.824
 253  1163.004
 254  1227.255
 255  1293.385
 256  1246.27
 257  1201.48
 258  1193.909
 259  1098.354
 260  886.4591
 261  813.8831
 262  880.599
 263  1052.394
 264  1289.693
 265  1371.26
 266  1335.656
 267  1126.678
 268  1050.041
 269  1074.19
 270  1188.552
 271  1209.89
 272  1161.646
 273  1258.681
 274  1100.497
 275  861.4214
 276  570.658
 277  537.9797
 278  775.5023
 279  949.1362
 280  953.4313
 281  726.8635
 282  722.212
 283  756.4581
 284  1055.635
 285  1166.15
 286  1198.883
 287  915.9529
 288  745.1789
 289  646.3066
 290  650.6951
 291  729.6915
 292  644.0934
 293  593.0034
 294  649.4578
 295  777.54
 296  964.767
 297  1083.584
 298  1010.334
 299  1058.863
 300  1053.771
 301  1092.112
 302  1187.029
 303  929.5382
 304  871.2476
 305  708.1234
 306  730.0445
 307  673.1994
 308  721.3226
 309  774.069
 310  914.7492
 311  983.8699
 312  1043.514
 313  1110.972
 314  1020.043
 315  1085.882
 316  1024.021
 317  930.428
 318  982.5272
 319  848.8173
 320  953.2756
 321  1079.561
 322  1065.812
 323  1184.317
 324  835.8056
 325  802.0208
 326  745.3415
 327  886.395
 328  929.3069
 329  949.9494
 330  971.7697
 331  840.2712
 332  824.1526
 333  772.6083
 334  903.946
 335  934.2889
 336  1043.854
 337  1098.516
 338  971.766
 339  904.2673
 340  942.6638
 341  1075.343
 342  1032.696
 343  1042.117
 344  1133.506
 345  1117.822
 346  953.4481
 347  841.528
 348  862.5008
 349  940.5764
 350  979.3906
 351  1051.825
 352  983.0164
 353  903.5822
 354  979.1699
 355  902.2827
 356  1145.2
 357  1265.026
 358  1437.643
 359  1296.419
 360  1123.107
 361  1071.495
 362  1104.073
 363  1254.224
 364  1326.329
 365  1274.199
 366  976.1591
 367  946.6959
 368  964.4864
 369  1190.168
 370  1261.456
 371  1302.589
 372  1214.168
 373  1110.916
 374  982.8492
 375  993.1793
 376  997.3202
 377  1053.549
 378  1149.669
 379  1258.103
 380  1252.283
 381  1168.815
 382  1067.032
 383  1213.927
 384  1326.533
 385  1664.41
 386  1582.509
 387  1351.449
 388  1190.856
 389  974.5187
 390  1019.104
 391  952.7226
 392  1172.98
 393  1306.935
 394  1346.446
 395  1263.522
 396  1045.418
 397  1068.997
 398  1175.893
 399  1513.943
 400  1464.242
 401  1407.974
 402  1149.403
 403  921.1385
 404  740.9455
 405  780.8869
 406  924.0482
 407  1133.924
 408  1100.551
 409  1176.374
 410  1062.644
 411  1105.5
 412  1085.918
 413  1085.042
 414  1172.433
 415  1218.612
 416  1301.775
 417  1105.606
 418  1001.268
 419  1035.467
 420  1231.384
 421  1442.229
 422  1502.91
 423  1352.87
 424  1186.271
 425  1152.512
 426  1326.854
 427  1359.064
 428  1352.488
 429  1329.269
 430  1368.988
 431  1266.696
 432  1216.375
 433  1070.013
 434  988.905
 435  983.7797
 436  981.9863
 437  1100.865
 438  1184.652
 439  1050.589
 440  974.9568
 441  1089.976
 442  1147.247
 443  1125.559
 444  1084.252
 445  1098.328
 446  1028.731
 447  919.7105
 448  925.7423
 449  938.7053
 450  1049.889
 451  1167.745
 452  1229.21
 453  1177.167
 454  1076.661
 455  958.9534
 456  1173.27
 457  1167.796
 458  1056.124
 459  838.1686
 460  631.3463
 461  773.2315
 462  862.0065
 463  1105.722
 464  1250.677
 465  1194.859
 466  1203.484
 467  1067.67
 468  1106.115
 469  1079.516
 470  969.55
 471  918.936
 472  893.3339
 473  752.2035
 474  817.7427
 475  859.1614
 476  905.4246
 477  908.705
 478  1222.75
 479  1550.46
 480  1497.238
 481  1318.511
 482  1325.994
 483  1414.144
 484  1501.471
 485  1517.603
 486  1439.102
 487  1254.947
 488  1056.733
 489  1016.216
 490  1001.65
 491  954.8162
 492  1028.935
 493  1146.757
 494  1102.303
 495  989.1459
 496  925.6536
 497  925.2902
 498  1009.511
 499  1050.872
 500  1161.817
 501  912.0582
 502  863.0697
 503  719.1415
 504  743.9915
 505  712.7639
 506  773.8242
 507  812.9463
 508  884.1899
 509  1065.138
 510  1103.947
 511  1148.559
 512  988.3628
 513  1032.245
 514  1109.935
 515  1054.263
 516  1016.441
 517  904.1289
 518  873.4052
 519  804.4595
 520  886.1431
 521  1068.304
 522  1080.963
 523  1085.294
 524  989.5746
 525  982.6389
 526  924.3333
 527  847.8985
 528  863.2302
 529  887.4274
 530  952.2122
 531  893.6846
 532  755.3741
 533  544.9046
 534  547.6057
 535  628.4672
 536  727.2997
 537  833.8635
 538  799.8048
 539  777.2958
 540  652.2522
 541  809.7713
 542  852.6601
 543  938.8942
 544  823.645
 545  825.9084
 546  698.9846
 547  614.5969
 548  565.6152
 549  542.8999
 550  754.0331
 551  782.5147
 552  988.8236
 553  911.1674
 554  821.4568
 555  701.0764
 556  641.9361
 557  794.8541
 558  799.5191
 559  793.2675
 560  741.1074
 561  670.4066
 562  693.6609
 563  687.8076
 564  737.1423
 565  771.446
 566  831.7944
 567  815.3366
 568  759.1243
 569  688.4718
 570  802.5757
 571  877.7532
 572  896.0417
 573  957.4736
 574  905.3016
 575  1047.839
 576  1050.031
 577  1084.079
 578  1049.937
 579  1104.584
 580  955.3031
 581  803.9534
 582  638.8894
 583  641.2726
 584  647.8635
 585  647.8338
 586  812.0143
 587  842.1138
 588  784.1818
 589  754.2806
 590  871.7336
 591  907.6693
 592  806.208
 593  749.275
 594  733.9612
 595  852.5506
 596  671.554
 597  744.213
 598  805.2073
 599  1089.146
 600  1155.516
 601  1003.376
 602  735.5643
 603  455.3604
 604  382.1107
 605  468.5552
 606  587.8603
 607  621.0357
 608  870.9363
 609  994.0245
 610  1119.981
 611  1062.2
 612  1182.546
 613  1361.908
 614  1481.323
 615  1360.363
 616  1003.092
 617  1043.299
 618  1187.306
 619  1134.38
 620  954.0006
 621  855.0982
 622  1079.815
 623  1008.173
 624  734.4569
 625  545.0338
 626  585.9971
 627  635.1983
 628  757.2986
 629  771.8415
 630  815.6381
 631  814.6487
 632  595.0868
 633  640.3254
 634  629.9287
 635  681.4026
 636  648.0104
 637  696.1992
 638  805.5642
 639  790.8837
 640  647.0953
 641  678.2405
 642  628.0851
 643  800.4004
 644  848.5142
 645  797.3815
 646  696.5742
 647  496.1198
 648  501.583
 649  656.0359
 650  1021.54
 651  1067.01
 652  1011.839
 653  864.1411
 654  806.7634
 655  797.8154
 656  1012.431
 657  1021.278
 658  1001.227
 659  885.5768
 660  806.5502
 661  716.4993
 662  799.8657
 663  857.4568
 664  860.7152
 665  966.5407
 666  981.8929
 667  991.4702
 668  800.8627
 669  743.6276
 670  745.028
 671  767.3071
 672  732.8751
 673  669.0253
 674  672.492
 675  608.8338
 676  389.4057
 677  417.955
 678  458.7446
 679  496.6477
 680  557.0712
 681  592.9405
 682  634.5771
 683  733.088
 684  818.9446
 685  910.8411
 686  901.3977
 687  948.3597
 688  980.3766
 689  828.8058
 690  778.483
 691  658.3561
 692  665.502
 693  873.7031
 694  875.7151
 695  875.068
 696  741.6593
 697  770.454
 698  888.3139
 699  1074.991
 700  1127.913
 701  989.2667
 702  862.486
 703  749.6454
 704  858.5423
 705  965.0693
 706  997.5808
 707  824.0615
 708  831.846
 709  763.952
 710  643.4629
 711  711.6301
 712  857.5265
 713  992.7529
 714  999.0328
 715  942.0707
 716  993.1267
 717  1049.162
 718  961.0909
 719  915.1263
 720  850.4595
 721  954.515
 722  1038.509
 723  1015.891
 724  887.5913
 725  677.1412
 726  712.0689
 727  774.0114
 728  837.7657
 729  943.6235
 730  1109.839
 731  903.5262
 732  745.0626
 733  783.5574
 734  771.4947
 735  772.4074
 736  620.263
 737  680.3735
 738  639.1309
 739  507.1163
 740  483.3307
 741  487.0257
 742  492.786
 743  519.3517
 744  596.8821
 745  734.4147
 746  731.5871
 747  806.9301
 748  902.3646
 749  989.5867
 750  904.3972
 751  910.3566
 752  835.0602
 753  917.5036
 754  822.5502
 755  997.379
 756  1119.997
 757  1011.32
 758  899.3138
 759  882.854
 760  1127.676
 761  1039.909
 762  757.4247
 763  744.5619
 764  815.9539
 765  832.3889
 766  673.844
 767  831.3693
 768  717.4843
 769  619.4877
 770  605.4899
 771  754.7581
 772  820.2839
 773  809.6549
 774  957.7644
 775  804.13
 776  764.9365
 777  847.2454
 778  1083.183
 779  999.7952
 780  984.2865
 781  1014.392
 782  1026.019
 783  819.884
 784  955.7389
 785  1198.363
 786  1076.717
 787  889.7755
 788  773.851
 789  706.5453
 790  652.2521
 791  667.1962
 792  803.9058
 793  852.3074
 794  1091.169
 795  1203.099
 796  1213.015
 797  977.8865
 798  1019.861
 799  1167.443
 800  1369.243
 801  1287.604
 802  1393.625
 803  1403.528
 804  1151.556
 805  874.2443
 806  861.22
 807  1059.061
 808  1249.847
 809  1266.566
 810  1341.886
 811  1157.244
 812  1082.156
 813  898.5681
 814  760.2214
 815  692.2384
 816  653.4755
 817  704.5443
 818  767.7592
 819  871.21
 820  993.8605
 821  1061.003
 822  967.5272
 823  1005.811
 824  1241.172
 825  1185.385
 826  1025.689
 827  884.0501
 828  1107.9
 829  1314.231
 830  1225.591
 831  1202.068
 832  1093.7
 833  979.5953
 834  882.5807
 835  936.1057
 836  1183.161
 837  1220.477
 838  1161.34
 839  1136.028
 840  1002.397
 841  1059.659
 842  957.0157
 843  948.4264
 844  808.4413
 845  688.6299
 846  839.301
 847  933.1118
 848  945.7629
 849  938.7228
 850  978.5215
 851  1077.391
 852  1206.914
 853  1160.373
 854  1047.484
 855  1184.479
 856  1164.818
 857  1147.729
 858  1002.97
 859  1049.729
 860  1104.748
 861  914.6207
 862  851.007
 863  795.9313
 864  872.8
 865  1051.777
 866  1086.357
 867  1111.438
 868  930.7696
 869  772.7475
 870  751.6921
 871  780.0744
 872  871.1252
 873  830.3795
 874  892.5206
 875  784.8678
 876  840.6001
 877  849.1581
 878  894.2278
 879  904.8206
 880  949.5571
 881  972.0176
 882  724.7128
 883  660.7332
 884  667.6711
 885  925.9923
 886  1003.982
 887  997.1702
 888  1019.615
 889  954.3804
 890  861.1732
 891  859.3031
 892  948.6758
 893  1106.855
 894  1058.335
 895  973.8316
 896  1083.188
 897  1031.025
 898  981.5385
 899  950.1047
 900  1052.392
 901  1205.754
 902  1135.122
 903  1032.438
 904  944.31
 905  979.6904
 906  1047.766
 907  1063.109
 908  926.1732
 909  899.3476
 910  953.7925
 911  757.6614
 912  746.6653
 913  708.4404
 914  956.0199
 915  1091.207
 916  988.408
 917  1022.709
 918  924.1942
 919  800.5174
 920  683.7455
 921  726.1252
 922  810.6458
 923  926.7391
 924  1045.386
 925  1138.699
 926  1030.304
 927  921.7663
 928  928.3769
 929  969.093
 930  973.659
 931  948.8093
 932  1125.068
 933  1128.358
 934  1225.641
 935  1097.909
 936  1267.124
 937  1207.308
 938  1198.074
 939  1181.532
 940  1125.523
 941  1058.159
 942  935.3945
 943  1027.224
 944  1046.317
 945  1059.072
 946  1055.002
 947  998.5182
 948  919.5693
 949  896.1587
 950  1092.435
 951  1184.544
 952  1084.468
 953  1036.81
 954  925.1605
 955  958.9186
 956  1041.88
 957  1102.57
 958  1186.011
 959  1165.48
 960  1192.96
 961  1211.36
 962  1056.283
 963  1027.627
 964  1040.315
 965  923.1018
 966  982.6661
 967  1047.468
 968  1225.466
 969  1238.365
 970  1068.203
 971  1034.19
 972  1177.23
 973  1294.464
 974  1229.165
 975  1044.982
 976  890.3408
 977  788.7562
 978  649.7263
 979  681.139
 980  935.4731
 981  1074.191
 982  1234.42
 983  1016.387
 984  907.5805
 985  1005.783
 986  1011.449
 987  1014.631
 988  940.2546
 989  1001.568
 990  1040.18
 991  1088.439
 992  1058.206
 993  1168.42
 994  1099.613
 995  1058.167
 996  994.5557
 997  818.4201
 998  958.9127
 999  973.8698
1000  1287.752
1001  1217.558
1002  1121.631
1003  1113.867
1004  1012.77
1005  1036.768
1006  1013.658
1007  994.546
1008  956.9191
1009  971.7441
1010  989.1439
1011  937.4131
1012  823.3719
1013  920.2059
1014  1051.582
1015  1197.604
1016  1192.988
1017  1328.952
1018  1167.37
1019  857.3203
1020  744.9352
1021  741.8453
1022  908.8188
1023  1042.969
