# Input file       =  1201102552.109643_cleaned.dat
# Candidate        =  PSR_0332+5434
# Telescope        =  AR
# Epoch_topo       =  58145.650128583831
# Epoch_bary       =  N/A
# T_sample         =  0.002
# Data Folded      =  7340032
# Data Avg         =  0.0881908185827861
# Data StdDev      =  3.77320965332353 
# Profile Bins     =  512
# Profile Avg      =  1264.32776959518 
# Profile StdDev   =  451.777848678551 
# Reduced chi-sqr  =  0.897
# Prob(Noise)      <  0.953   (~0.0 sigma)
# P_topo (ms)      =  714.573966465786  +/- 0.000222
# P'_topo (s/s)    =  -0                +/- 1.17e-10
# P''_topo (s/s^2) =  0                 +/- 5.16e-14
# P_bary (ms)      =  N/A
# P'_bary (s/s)    =  N/A
# P''_bary (s/s^2) =  N/A
# P_orb (s)        =  N/A
# asin(i)/c (s)    =  N/A
# eccentricity     =  N/A
# w (rad)          =  N/A
# T_peri           =  N/A
######################################################
   0  666.9845
   1  899.5245
   2  1107.069
   3  1202.036
   4  1517.223
   5  1545.063
   6  1441.224
   7  1231.795
   8  1375.1
   9  1670.536
  10  1616.737
  11  1504.025
  12  1567.375
  13  1730.951
  14  1785.677
  15  1372.13
  16  1822.309
  17  2317.564
  18  1830.22
  19  1527.551
  20  1459.33
  21  1549.152
  22  1748.848
  23  1767.805
  24  1964.002
  25  1691.639
  26  1225.712
  27  1178.168
  28  1258.417
  29  1135.397
  30  1559.151
  31  1639.865
  32  1810.38
  33  1549.889
  34  1505.885
  35  1463.542
  36  1182.125
  37  1295.309
  38  1612.726
  39  1395.981
  40  1493.598
  41  1368.077
  42  1407.229
  43  1419.182
  44  1594.897
  45  1665.564
  46  1123.977
  47  1155.961
  48  1212.711
  49  1262.08
  50  1532.006
  51  1483.86
  52  1749.502
  53  1238.721
  54  852.4296
  55  1121.915
  56  1106.116
  57  1276.367
  58  1135.134
  59  1368.121
  60  1590.994
  61  1661.778
  62  1577.45
  63  1115.007
  64  913.3492
  65  1156.991
  66  1174.761
  67  1478.005
  68  1143.812
  69  1095.252
  70  1045.368
  71  1184.751
  72  1169.538
  73  1366.73
  74  1266.042
  75  969.8561
  76  993.9482
  77  819.1178
  78  1150.563
  79  1022.807
  80  757.1071
  81  814.8755
  82  584.1469
  83  888.5912
  84  949.4676
  85  955.7297
  86  1542.234
  87  1620.155
  88  1627.618
  89  1525.846
  90  1153.067
  91  1168.01
  92  1229.29
  93  1435.782
  94  1850.309
  95  1642.301
  96  1496.704
  97  656.0047
  98  535.9768
  99  958.1302
 100  1222.412
 101  1255.155
 102  1703.447
 103  1773.631
 104  909.0114
 105  1059.871
 106  1036.471
 107  1029.426
 108  1298.672
 109  839.5449
 110  1203.977
 111  1185.918
 112  1312.274
 113  1208.689
 114  1088.081
 115  1147.708
 116  1451.178
 117  1568.523
 118  1529.518
 119  1543.421
 120  1578.49
 121  979.0934
 122  1022.719
 123  1260.747
 124  1472.104
 125  1518.576
 126  1572.522
 127  1705.593
 128  1595.335
 129  1284.012
 130  1391.403
 131  1577.259
 132  1473.112
 133  1629.249
 134  1650.654
 135  1604.364
 136  1271.104
 137  963.4263
 138  1183.386
 139  1282.32
 140  1364.101
 141  1407.003
 142  1015.733
 143  1220.622
 144  1315.761
 145  1461.153
 146  1584.301
 147  1736.287
 148  1562.536
 149  1485.834
 150  1785.065
 151  1709.998
 152  1189.658
 153  1673.928
 154  1362.933
 155  1381.81
 156  1496.984
 157  1869.186
 158  1691.097
 159  1188.569
 160  1202.778
 161  1576.142
 162  1479.041
 163  1282.071
 164  1276.186
 165  1203.623
 166  1138.705
 167  1104.088
 168  1008.67
 169  1161.592
 170  1348.494
 171  1374.938
 172  1063.909
 173  1129.62
 174  1586.124
 175  1338.363
 176  1467.138
 177  1330.497
 178  935.4133
 179  1118.004
 180  977.2081
 181  864.8444
 182  1045.904
 183  888.5079
 184  1044.835
 185  1150.343
 186  1376.235
 187  1183.157
 188  1101.321
 189  1141.984
 190  1022.774
 191  711.9719
 192  864.4036
 193  1194.046
 194  1353.209
 195  1405.279
 196  1366.28
 197  1223.51
 198  1265.52
 199  1294.845
 200  896.564
 201  1317.966
 202  1331.407
 203  1250.926
 204  1387.168
 205  1310.313
 206  1215.24
 207  1019.525
 208  1099.147
 209  1213.283
 210  1312.201
 211  1205.749
 212  1077.995
 213  1336.73
 214  1355.796
 215  1186.744
 216  885.0786
 217  1492.999
 218  1234.669
 219  1282.265
 220  1364.966
 221  1171.458
 222  879.3653
 223  1189.334
 224  1426.47
 225  1106.707
 226  1180.73
 227  1411.664
 228  948.2998
 229  1156.931
 230  1193.383
 231  1364.338
 232  1273.694
 233  955.8949
 234  1151.745
 235  886.9171
 236  1424.935
 237  1475.457
 238  1372.606
 239  1582.222
 240  1308.696
 241  1156.304
 242  1260.46
 243  1199.385
 244  1432.985
 245  1062.174
 246  1492.26
 247  1325.002
 248  1345.215
 249  1108.091
 250  1228.494
 251  1498.314
 252  1829.48
 253  2188.532
 254  1671.116
 255  1070.837
 256  1335.496
 257  1549.59
 258  1243.29
 259  1157.68
 260  1447.873
 261  1474.263
 262  1066.035
 263  1688.172
 264  2152.354
 265  2432.753
 266  2660.575
 267  2508.666
 268  2526.377
 269  2067.01
 270  1968.26
 271  1670.244
 272  1563.131
 273  1586.068
 274  1532.524
 275  1153.311
 276  1164.349
 277  1153.988
 278  848.3784
 279  1168.931
 280  1640.828
 281  1399.787
 282  1368.018
 283  968.9825
 284  999.4672
 285  1388.034
 286  1171.716
 287  1288.43
 288  1162.627
 289  999.9154
 290  1134.723
 291  1489.846
 292  1594.687
 293  1129.039
 294  1388.419
 295  1305.217
 296  1396.497
 297  1239.661
 298  1090.833
 299  962.8506
 300  1153.597
 301  1572.144
 302  1471.728
 303  1607.11
 304  1533.021
 305  1369.545
 306  823.467
 307  605.5574
 308  1040.787
 309  1391.93
 310  1174.037
 311  1406.762
 312  1484.406
 313  1762.091
 314  1554.17
 315  1908.575
 316  1592.096
 317  1448.863
 318  1747.424
 319  1358.956
 320  1493.854
 321  1394.374
 322  1399.523
 323  1259.05
 324  1085.135
 325  1569.682
 326  1453.015
 327  1099.689
 328  1158.098
 329  1225.713
 330  1018.714
 331  1096.6
 332  1074.927
 333  705.1302
 334  695.3428
 335  933.6515
 336  1030.542
 337  1062.705
 338  948.5317
 339  1188.087
 340  1200.432
 341  941.6437
 342  749.6161
 343  1119.55
 344  1155.729
 345  945.7955
 346  487.7685
 347  917.7516
 348  1080.432
 349  1281.391
 350  1255.74
 351  1013.912
 352  1374.765
 353  1509.285
 354  1174.892
 355  1012.554
 356  1323.652
 357  1151.277
 358  1388.889
 359  1501.881
 360  992.4368
 361  1315.937
 362  1416.658
 363  1469.83
 364  1050.937
 365  1031.099
 366  1158.034
 367  988.024
 368  1258.048
 369  1138.816
 370  1264.737
 371  1180.573
 372  1405.48
 373  1138.875
 374  955.5353
 375  1267.484
 376  1234.683
 377  1186.251
 378  998.8444
 379  1453.644
 380  1215.096
 381  771.7443
 382  967.8008
 383  1088.315
 384  954.2383
 385  750.3353
 386  845.8611
 387  1083.312
 388  907.2672
 389  785.3386
 390  527.6033
 391  1176.738
 392  857.3322
 393  759.3129
 394  1066.817
 395  859.6677
 396  823.4912
 397  756.6967
 398  731.7958
 399  1377.984
 400  1479.339
 401  1417.331
 402  1284.277
 403  1002.147
 404  1139.064
 405  907.7524
 406  972.3283
 407  785.5759
 408  659.9659
 409  844.1472
 410  1081.648
 411  1450.997
 412  1482.726
 413  1409.77
 414  1602.478
 415  1104.318
 416  929.9624
 417  1169.692
 418  1021.384
 419  850.0081
 420  1198.405
 421  1162.347
 422  987.6995
 423  989.3345
 424  844.5587
 425  1011.026
 426  1255.807
 427  928.0056
 428  1344.426
 429  1330.078
 430  957.8317
 431  814.6308
 432  714.1639
 433  1120.243
 434  1285.887
 435  1169.868
 436  1102.304
 437  887.7928
 438  1069.031
 439  1112.063
 440  1145.525
 441  1192.231
 442  1527.072
 443  1543.532
 444  1382.127
 445  1127.504
 446  1144.25
 447  1381.102
 448  1265.816
 449  1588.42
 450  1305.997
 451  1214.613
 452  1378.944
 453  1352.199
 454  1445.526
 455  1450.145
 456  1653.45
 457  1532.562
 458  1577.072
 459  1834.599
 460  1608.808
 461  1445.247
 462  1334.83
 463  1105.921
 464  945.3926
 465  1054.827
 466  1362.567
 467  1347.366
 468  876.4208
 469  1017.728
 470  1210.085
 471  907.0814
 472  207.1724
 473  387.0685
 474  770.0425
 475  1008.017
 476  1126.344
 477  767.5695
 478  966.0855
 479  713.9492
 480  784.1462
 481  842.3741
 482  640.0956
 483  981.2153
 484  1177.925
 485  1415.884
 486  1369.241
 487  1292.778
 488  1709.024
 489  1284.055
 490  919.7311
 491  1161.255
 492  1361.474
 493  1170.852
 494  1327.539
 495  1468.851
 496  1345.984
 497  1352.322
 498  1066.415
 499  1117.833
 500  1084.824
 501  1306.091
 502  1824.729
 503  1927.76
 504  1347.193
 505  1095.675
 506  1013.834
 507  994.4672
 508  1397.447
 509  1621.023
 510  1480.463
 511  1258.443
