# Input file       =  1201188759.107331_cleaned.dat
# Candidate        =  PSR_0332+5434
# Telescope        =  AR
# Epoch_topo       =  58146.647894760776
# Epoch_bary       =  N/A
# T_sample         =  0.002
# Data Folded      =  7340032
# Data Avg         =  0.0830383708484338
# Data StdDev      =  5.77991431257193 
# Profile Bins     =  1024
# Profile Avg      =  595.244454935046 
# Profile StdDev   =  489.350907850502 
# Reduced chi-sqr  =  0.848
# Prob(Noise)      <  1   (~0.0 sigma)
# P_topo (ms)      =  714.574437499655  +/- 1.07e-05
# P'_topo (s/s)    =  -0                +/- 5.67e-12
# P''_topo (s/s^2) =  0                 +/- 2.5e-15
# P_bary (ms)      =  N/A
# P'_bary (s/s)    =  N/A
# P''_bary (s/s^2) =  N/A
# P_orb (s)        =  N/A
# asin(i)/c (s)    =  N/A
# eccentricity     =  N/A
# w (rad)          =  N/A
# T_peri           =  N/A
######################################################
   0  620.5301
   1  223.2804
   2  270.2358
   3  550.0343
   4  587.7239
   5  702.901
   6  795.7008
   7  967.6002
   8  838.3828
   9  886.2639
  10  971.6447
  11  770.8828
  12  588.98
  13  710.5847
  14  812.709
  15  414.2458
  16  347.0588
  17  580.9099
  18  901.4729
  19  940.709
  20  1099.645
  21  1183.62
  22  1064.484
  23  1180.722
  24  1272.584
  25  1128.286
  26  803.1606
  27  892.6147
  28  1069.516
  29  962.8446
  30  760.7702
  31  766.2312
  32  643.1705
  33  484.1762
  34  625.9643
  35  768.7047
  36  586.5273
  37  538.412
  38  803.8428
  39  997.6098
  40  810.9865
  41  777.3168
  42  1101.73
  43  778.0373
  44  632.7074
  45  504.4102
  46  829.7375
  47  487.9796
  48  450.0132
  49  634.8547
  50  711.2297
  51  699.6051
  52  775.1495
  53  1062.581
  54  744.4078
  55  666.56
  56  831.9128
  57  950.2994
  58  596.576
  59  462.8905
  60  454.4192
  61  194.3093
  62  -17.82961
  63  174.7951
  64  402.8008
  65  231.131
  66  212.3043
  67  536.6121
  68  656.4283
  69  554.8149
  70  552.2213
  71  689.789
  72  511.1871
  73  386.0366
  74  408.1481
  75  428.7557
  76  253.021
  77  313.5433
  78  617.7827
  79  506.4907
  80  296.8448
  81  406.2374
  82  659.314
  83  437.3665
  84  468.7231
  85  852.7105
  86  775.4174
  87  476.4062
  88  453.8362
  89  752.8887
  90  397.4145
  91  298.2301
  92  476.1825
  93  496.8831
  94  189.3633
  95  335.4885
  96  742.6076
  97  802.0911
  98  764.4972
  99  918.658
 100  1038.49
 101  621.5029
 102  685.9454
 103  990.4017
 104  1022.342
 105  860.1126
 106  1108.423
 107  1180.288
 108  884.4526
 109  809.3728
 110  1132.526
 111  1257.921
 112  1023.405
 113  780.2858
 114  640.378
 115  243.8172
 116  484.0834
 117  809.2088
 118  1074.238
 119  893.343
 120  871.5656
 121  987.7694
 122  792.6873
 123  810.5158
 124  870.4387
 125  882.7003
 126  520.0512
 127  500.9883
 128  766.5742
 129  666.0978
 130  470.8408
 131  626.2087
 132  832.9504
 133  707.4877
 134  617.6019
 135  965.239
 136  884.6747
 137  423.5685
 138  419.016
 139  801.4751
 140  716.2545
 141  589.8405
 142  583.329
 143  714.8614
 144  620.8857
 145  832.4727
 146  994.5675
 147  845.5453
 148  705.057
 149  1004.753
 150  1182.409
 151  791.7346
 152  553.1209
 153  664.8472
 154  711.3591
 155  575.461
 156  594.9714
 157  704.7903
 158  359.2767
 159  483.9314
 160  978.4948
 161  1247.688
 162  974.8791
 163  918.8745
 164  1032.684
 165  680.6057
 166  353.8179
 167  461.5263
 168  778.2512
 169  589.3857
 170  536.3528
 171  587.1887
 172  520.2648
 173  404.1711
 174  710.0215
 175  873.8236
 176  672.5916
 177  602.6674
 178  837.6887
 179  830.8412
 180  644.8103
 181  808.907
 182  1004.115
 183  827.7728
 184  632.6311
 185  741.8176
 186  776.9869
 187  541.3211
 188  678.1631
 189  943.4913
 190  944.5521
 191  574.9036
 192  631.6379
 193  707.1616
 194  264.399
 195  -112.6236
 196  139.9883
 197  547.7161
 198  626.9042
 199  711.0326
 200  792.3672
 201  547.2681
 202  471.4616
 203  453.9003
 204  532.0833
 205  369.0469
 206  417.6291
 207  490.3834
 208  351.0472
 209  289.9426
 210  512.1636
 211  724.9027
 212  597.7333
 213  584.6921
 214  701.9202
 215  504.4146
 216  348.8558
 217  436.255
 218  600.749
 219  425.4778
 220  355.6577
 221  484.8821
 222  482.7819
 223  296.339
 224  282.5854
 225  429.1892
 226  273.6241
 227  352.9061
 228  708.454
 229  1025.46
 230  839.3572
 231  731.9996
 232  684.1741
 233  354.9973
 234  239.602
 235  428.5863
 236  578.2042
 237  373.8974
 238  285.7873
 239  475.739
 240  321.148
 241  196.7409
 242  242.3651
 243  519.3432
 244  363.8932
 245  388.8184
 246  369.4785
 247  399.8409
 248  47.33383
 249  311.9737
 250  652.3394
 251  465.6049
 252  207.1861
 253  320.6302
 254  330.1975
 255  223.6773
 256  289.9126
 257  663.5945
 258  601.3941
 259  660.6695
 260  816.6248
 261  786.5639
 262  308.2941
 263  120.1978
 264  468.1107
 265  311.6085
 266  26.17934
 267  124.4923
 268  422.6828
 269  393.3466
 270  273.0969
 271  528.8384
 272  743.5809
 273  457.6243
 274  585.0823
 275  827.8527
 276  706.7769
 277  486.954
 278  561.4296
 279  739.6202
 280  587.5125
 281  498.9053
 282  639.0406
 283  643.676
 284  678.4797
 285  914.633
 286  932.2016
 287  693.4442
 288  562.6952
 289  800.3184
 290  570.0311
 291  280.4293
 292  346.1981
 293  670.6644
 294  601.9554
 295  563.3819
 296  710.7827
 297  569.4521
 298  307.7723
 299  301.3713
 300  535.6931
 301  393.1009
 302  317.2115
 303  742.7586
 304  1066.147
 305  908.4471
 306  757.1702
 307  866.9937
 308  654.0741
 309  402.9404
 310  593.4926
 311  837.1822
 312  763.7584
 313  626.6115
 314  838.585
 315  705.3243
 316  340.4445
 317  557.585
 318  717.8506
 319  462.5541
 320  188.9981
 321  288.1246
 322  330.1119
 323  33.77529
 324  111.4648
 325  418.074
 326  492.966
 327  476.2546
 328  660.5233
 329  780.6883
 330  448.8852
 331  437.0022
 332  765.2964
 333  930.7227
 334  660.0281
 335  550.72
 336  548.128
 337  256.1903
 338  244.7319
 339  653.0227
 340  737.5744
 341  466.5832
 342  358.2369
 343  641.3632
 344  670.3486
 345  468.3775
 346  585.5297
 347  669.238
 348  400.2343
 349  209.0316
 350  520.3663
 351  723.2015
 352  621.468
 353  605.5359
 354  810.6592
 355  657.0726
 356  596.4313
 357  706.8316
 358  696.392
 359  490.3649
 360  666.2267
 361  872.6415
 362  643.509
 363  279.5805
 364  466.8007
 365  586.7894
 366  445.3748
 367  491.3199
 368  666.6062
 369  587.1934
 370  433.2152
 371  524.9049
 372  938.9806
 373  802.6746
 374  833.6951
 375  719.7896
 376  535.2615
 377  358.4208
 378  547.9864
 379  755.3676
 380  847.9961
 381  991.6008
 382  1166.03
 383  866.6659
 384  674.0135
 385  672.5098
 386  718.4457
 387  397.4926
 388  325.062
 389  482.672
 390  446.468
 391  373.7179
 392  502.7006
 393  881.5085
 394  699.4359
 395  571.8539
 396  662.6388
 397  875.1487
 398  667.1204
 399  511.4029
 400  780.1723
 401  872.0659
 402  658.2653
 403  540.809
 404  624.0959
 405  432.0499
 406  640.409
 407  714.4791
 408  820.4774
 409  598.7846
 410  661.8962
 411  984.9441
 412  1006.115
 413  1120.172
 414  1249.105
 415  1232.8
 416  843.8807
 417  722.7766
 418  823.7189
 419  662.1088
 420  637.7889
 421  764.9708
 422  984.9555
 423  611.9234
 424  383.2094
 425  804.7036
 426  918.9967
 427  974.7532
 428  960.1212
 429  1122.513
 430  946.2504
 431  868.9089
 432  1013.819
 433  1056.29
 434  833.9832
 435  708.302
 436  727.3314
 437  442.1086
 438  292.3866
 439  617.1351
 440  928.0895
 441  948.3572
 442  979.5891
 443  1193.339
 444  1318.805
 445  1091.017
 446  1214.26
 447  1104.508
 448  870.9731
 449  718.743
 450  930.6805
 451  794.2858
 452  442.6982
 453  548.9758
 454  888.0397
 455  691.697
 456  581.7167
 457  821.7578
 458  943.5609
 459  665.7049
 460  620.4958
 461  909.829
 462  795.385
 463  581.2658
 464  475.7236
 465  597.2245
 466  479.6939
 467  573.1755
 468  931.494
 469  910.8633
 470  886.8393
 471  902.4103
 472  1068.063
 473  920.4676
 474  874.259
 475  1099.759
 476  902.8412
 477  629.215
 478  656.2089
 479  720.5515
 480  353.8152
 481  86.80138
 482  371.4185
 483  512.0892
 484  393.6524
 485  330.3533
 486  716.7338
 487  734.9366
 488  520.7667
 489  717.5042
 490  981.2634
 491  672.6874
 492  375.4543
 493  641.3317
 494  715.6375
 495  318.7896
 496  259.2273
 497  623.7699
 498  618.6511
 499  585.3963
 500  715.644
 501  690.0079
 502  249.5812
 503  408.4997
 504  954.0103
 505  883.2292
 506  439.4594
 507  532.3387
 508  673.9739
 509  448.4092
 510  220.1164
 511  459.9413
 512  526.8979
 513  322.6156
 514  213.2787
 515  516.4194
 516  611.0433
 517  656.7685
 518  693.5375
 519  622.8309
 520  439.8519
 521  441.0539
 522  575.8528
 523  498.2803
 524  310.8246
 525  633.9333
 526  804.4536
 527  618.7006
 528  694.0093
 529  826.0719
 530  843.9339
 531  548.4409
 532  623.5353
 533  588.1989
 534  367.962
 535  340.6291
 536  619.1495
 537  729.954
 538  532.1372
 539  809.1462
 540  994.5035
 541  800.906
 542  672.1296
 543  1040.591
 544  1110.73
 545  718.8628
 546  575.8918
 547  796.4996
 548  633.8187
 549  404.0848
 550  603.9197
 551  888.4486
 552  751.1245
 553  572.7798
 554  653.8845
 555  587.8029
 556  512.6263
 557  686.8752
 558  912.1619
 559  652.407
 560  597.1557
 561  838.1985
 562  790.1334
 563  540.2938
 564  510.843
 565  641.7994
 566  425.8823
 567  6.794333
 568  231.8929
 569  346.515
 570  246.3773
 571  279.2976
 572  588.4334
 573  644.9814
 574  396.7734
 575  580.9343
 576  790.1921
 577  744.9641
 578  679.5499
 579  857.3324
 580  720.4458
 581  401.684
 582  455.2371
 583  547.6025
 584  261.643
 585  142.4737
 586  470.3818
 587  659.2808
 588  503.5534
 589  635.3899
 590  977.0002
 591  910.1168
 592  647.4971
 593  777.2389
 594  828.5784
 595  363.3397
 596  103.8295
 597  293.9032
 598  417.669
 599  245.4461
 600  369.5336
 601  603.8394
 602  507.8587
 603  512.1138
 604  820.276
 605  963.5003
 606  605.8066
 607  731.5443
 608  1042.592
 609  903.6661
 610  658.4495
 611  696.9617
 612  912.403
 613  704.0966
 614  740.9152
 615  1044.42
 616  1117.321
 617  1002.181
 618  1057.352
 619  1194.449
 620  1061.921
 621  811.5012
 622  903.3928
 623  738.7098
 624  527.6301
 625  511.4322
 626  783.4749
 627  626.3246
 628  378.9935
 629  580.4514
 630  682.0962
 631  600.5162
 632  825.1363
 633  932.7024
 634  599.4692
 635  297.4239
 636  465.5115
 637  589.6451
 638  200.0281
 639  215.5627
 640  567.8979
 641  601.9985
 642  461.4906
 643  498.7151
 644  788.4278
 645  592.5139
 646  737.5996
 647  865.7272
 648  745.3138
 649  370.5226
 650  379.1121
 651  594.6161
 652  377.0408
 653  212.3475
 654  484.5192
 655  779.3472
 656  660.3125
 657  685.815
 658  924.5118
 659  714.5375
 660  436.4992
 661  549.6101
 662  571.8206
 663  351.4502
 664  464.947
 665  770.8607
 666  508.7665
 667  252.8712
 668  369.0431
 669  791.5249
 670  887.0385
 671  807.8337
 672  890.4036
 673  838.4971
 674  627.7714
 675  468.8062
 676  681.0342
 677  697.4208
 678  481.4716
 679  648.956
 680  491.9695
 681  217.6658
 682  62.28228
 683  253.952
 684  303.5724
 685  150.1407
 686  379.4547
 687  642.6783
 688  733.8229
 689  863.4887
 690  1074.638
 691  972.021
 692  658.1885
 693  723.6463
 694  753.7347
 695  541.623
 696  137.7631
 697  326.9307
 698  378.5218
 699  361.8247
 700  545.055
 701  902.6959
 702  682.2192
 703  383.5183
 704  494.111
 705  687.0115
 706  542.3095
 707  614.0615
 708  700.4952
 709  564.0689
 710  189.8131
 711  323.9249
 712  577.6431
 713  455.8217
 714  330.753
 715  533.4397
 716  684.3141
 717  449.3369
 718  534.7612
 719  694.6157
 720  645.4332
 721  548.1436
 722  605.6888
 723  578.0438
 724  344.8546
 725  266.1095
 726  394.2104
 727  170.6243
 728  170.037
 729  494.074
 730  741.4489
 731  593.8521
 732  369.5924
 733  580.914
 734  660.3157
 735  622.686
 736  639.4092
 737  501.074
 738  216.1166
 739  33.43514
 740  313.0185
 741  404.9746
 742  426.1496
 743  570.1268
 744  844.927
 745  822.0253
 746  765.6395
 747  763.5549
 748  737.5136
 749  397.9427
 750  442.3909
 751  710.615
 752  623.6574
 753  414.8817
 754  434.6071
 755  557.3576
 756  350.5091
 757  458.5287
 758  647.255
 759  645.178
 760  398.5551
 761  634.0554
 762  843.2172
 763  822.6912
 764  587.6551
 765  468.7306
 766  360.8397
 767  48.07973
 768  43.57302
 769  110.4929
 770  116.485
 771  311.9813
 772  696.7805
 773  721.1616
 774  325.7602
 775  107.9706
 776  423.9289
 777  367.0255
 778  265.3303
 779  197.2225
 780  459.3015
 781  92.52267
 782  -183.3567
 783  -159.4976
 784  -71.06512
 785  9.180013
 786  177.8346
 787  544.056
 788  516.4119
 789  492.1768
 790  725.8779
 791  718.1055
 792  288.8578
 793  161.8177
 794  447.3349
 795  454.2052
 796  228.4484
 797  345.6223
 798  485.2005
 799  344.4549
 800  208.3852
 801  447.1488
 802  450.7848
 803  183.8475
 804  120.4039
 805  473.6987
 806  294.0316
 807  241.292
 808  351.3853
 809  408.3904
 810  134.2299
 811  128.2802
 812  537.6994
 813  561.1262
 814  698.9438
 815  673.3911
 816  797.88
 817  333.7734
 818  251.9212
 819  502.328
 820  308.3669
 821  183.2784
 822  376.4607
 823  648.0164
 824  326.8243
 825  160.4493
 826  444.0894
 827  470.7882
 828  347.5546
 829  487.336
 830  807.9263
 831  566.431
 832  425.0388
 833  640.2641
 834  611.9754
 835  216.8715
 836  342.294
 837  674.5156
 838  692.1463
 839  474.3484
 840  612.8264
 841  739.9092
 842  495.5149
 843  556.0422
 844  764.8785
 845  837.0782
 846  572.6193
 847  563.2083
 848  563.962
 849  493.0435
 850  559.0175
 851  638.0746
 852  456.8964
 853  84.85074
 854  37.8139
 855  325.8897
 856  180.2746
 857  220.2889
 858  360.8922
 859  333.1675
 860  37.92679
 861  122.6861
 862  368.7934
 863  315.1111
 864  64.54827
 865  177.5087
 866  476.5591
 867  310.009
 868  253.7149
 869  278.2762
 870  288.9768
 871  267.9468
 872  489.2511
 873  622.1578
 874  434.3541
 875  410.3375
 876  748.2841
 877  662.3231
 878  383.0153
 879  311.007
 880  497.3078
 881  359.1612
 882  137.9037
 883  296.7329
 884  487.2559
 885  331.5191
 886  389.6478
 887  832.7551
 888  854.1802
 889  722.63
 890  958.4346
 891  1396.036
 892  1039.601
 893  662.7897
 894  738.9357
 895  918.0012
 896  782.6907
 897  876.7432
 898  1201.768
 899  874.4194
 900  833.6402
 901  963.8494
 902  961.1777
 903  461.3139
 904  295.9046
 905  599.9547
 906  755.5524
 907  708.6801
 908  800.0652
 909  629.9794
 910  395.079
 911  242.5506
 912  315.6013
 913  98.2168
 914  25.00916
 915  317.1304
 916  647.7012
 917  481.9344
 918  373.843
 919  633.575
 920  887.0364
 921  704.8043
 922  698.0973
 923  745.1886
 924  387.3875
 925  96.69498
 926  270.3278
 927  545.2947
 928  293.8781
 929  412.6134
 930  739.7687
 931  621.6149
 932  422.1638
 933  480.8381
 934  841.2224
 935  768.2859
 936  692.1212
 937  872.0276
 938  712.3324
 939  438.8753
 940  400.6476
 941  581.6412
 942  507.7963
 943  190.5074
 944  175.1961
 945  379.3707
 946  479.8367
 947  569.1861
 948  533.3892
 949  419.153
 950  328.9947
 951  483.1922
 952  525.2104
 953  473.4139
 954  641.6376
 955  829.0724
 956  769.6278
 957  399.0003
 958  603.6586
 959  674.1201
 960  526.5345
 961  316.9993
 962  610.2085
 963  705.4615
 964  618.9969
 965  419.2081
 966  527.8271
 967  309.4489
 968  333.685
 969  519.5631
 970  667.5429
 971  351.3575
 972  560.0994
 973  914.504
 974  924.6028
 975  540.8452
 976  611.2502
 977  676.1779
 978  531.5898
 979  478.7639
 980  795.2261
 981  753.7493
 982  381.4993
 983  368.1664
 984  653.731
 985  667.3975
 986  462.7203
 987  666.0125
 988  729.8323
 989  660.2435
 990  728.6418
 991  1055.681
 992  1032.548
 993  773.9011
 994  939.6068
 995  741.0864
 996  435.054
 997  386.2199
 998  618.6903
 999  431.1945
1000  214.843
1001  648.5712
1002  956.8594
1003  727.5625
1004  547.0147
1005  782.6826
1006  868.425
1007  417.279
1008  384.1009
1009  642.6872
1010  610.0082
1011  453.2581
1012  541.2291
1013  889.106
1014  630.3712
1015  683.7178
1016  900.8794
1017  925.5027
1018  731.2071
1019  854.9376
1020  886.9003
1021  865.7673
1022  811.3832
1023  869.3703
