# Input file       =  1201087940.12175_cleaned.dat
# Candidate        =  PSR_0332+5434
# Telescope        =  AR
# Epoch_topo       =  58145.481008353592
# Epoch_bary       =  N/A
# T_sample         =  0.002
# Data Folded      =  7143424
# Data Avg         =  0.125644432705478
# Data StdDev      =  4.52686742757727 
# Profile Bins     =  512
# Profile Avg      =  1753.08565454535 
# Profile StdDev   =  534.707172682498 
# Reduced chi-sqr  =  0.598
# Prob(Noise)      <  1   (~0.0 sigma)
# P_topo (ms)      =  714.573869198068  +/- 9.67e-05
# P'_topo (s/s)    =  -0                +/- 5.24e-11
# P''_topo (s/s^2) =  0                 +/- 2.38e-14
# P_bary (ms)      =  N/A
# P'_bary (s/s)    =  N/A
# P''_bary (s/s^2) =  N/A
# P_orb (s)        =  N/A
# asin(i)/c (s)    =  N/A
# eccentricity     =  N/A
# w (rad)          =  N/A
# T_peri           =  N/A
######################################################
   0  1514.737
   1  2111.9
   2  2220.614
   3  2078.892
   4  1513.351
   5  1092.661
   6  1309.992
   7  1914.291
   8  1830.576
   9  1805.092
  10  1845.81
  11  1950.95
  12  2049.41
  13  2194.92
  14  2054.984
  15  2038.109
  16  1650.935
  17  1561.589
  18  1615.642
  19  1668.594
  20  1807.213
  21  1955.517
  22  1966.859
  23  2147.53
  24  1971.046
  25  1829.898
  26  2085.134
  27  2361.815
  28  3215.319
  29  3401.456
  30  3216.708
  31  2781.168
  32  2261.37
  33  2148.454
  34  2190.756
  35  2293.746
  36  1979.556
  37  1768.409
  38  1720.153
  39  1609.37
  40  1675.112
  41  1805.146
  42  2060.901
  43  1791.131
  44  1616.96
  45  1740.641
  46  1587.305
  47  1717.285
  48  1886.227
  49  1643.918
  50  1640.188
  51  1750.973
  52  1782.698
  53  2298.15
  54  1998.193
  55  1771.965
  56  1587.316
  57  1549.783
  58  1389.179
  59  1214.739
  60  1508.575
  61  1414.875
  62  1922.515
  63  2081.119
  64  2107.703
  65  2090.381
  66  1873.467
  67  1892.136
  68  1852.996
  69  1605.413
  70  1423.692
  71  1369.984
  72  1967.356
  73  1894.712
  74  1685.743
  75  1911.095
  76  1649.773
  77  1763.445
  78  1898.962
  79  1548.083
  80  1671.201
  81  1895.184
  82  1613.384
  83  1728.781
  84  1926.89
  85  1879.95
  86  2039.012
  87  1917.151
  88  1616.146
  89  1753.843
  90  1815.807
  91  1476.985
  92  1675.63
  93  1664.211
  94  1943.9
  95  2093.367
  96  2386.01
  97  2665.615
  98  2069.595
  99  1780.339
 100  1951.897
 101  1781.664
 102  1564.367
 103  1452.846
 104  2003.8
 105  2147.567
 106  1565.923
 107  1628.329
 108  1758.516
 109  1564.486
 110  1352.272
 111  1224.893
 112  1685.191
 113  1800.725
 114  1795.21
 115  1645.889
 116  1505.968
 117  1464.389
 118  1736.652
 119  2109.453
 120  1918.166
 121  1698.729
 122  1803.215
 123  1659.371
 124  1476.065
 125  1333.9
 126  1848.014
 127  1991.174
 128  1850.502
 129  2358.672
 130  2560.565
 131  2325.794
 132  1781.229
 133  1297.599
 134  1626.351
 135  1861.625
 136  1777.01
 137  1609.028
 138  1697.283
 139  1587.87
 140  1290.719
 141  1350.731
 142  1323.747
 143  1215.655
 144  1316.908
 145  1821.825
 146  1877.19
 147  1786.008
 148  2003.274
 149  1892.609
 150  1777.498
 151  2230.099
 152  2537.235
 153  2176.432
 154  1480.118
 155  1713.343
 156  1823.106
 157  1510.704
 158  1712.059
 159  1976.964
 160  2020.393
 161  1687.14
 162  1557.857
 163  1797.212
 164  1929.783
 165  1480.326
 166  1719.251
 167  1604.033
 168  1660.318
 169  1653.809
 170  1933.816
 171  2044.286
 172  1573.912
 173  1544.239
 174  1373.806
 175  1441.196
 176  1565.328
 177  1629.61
 178  1802.705
 179  2059.021
 180  1690.755
 181  1893.822
 182  2093.247
 183  1976.336
 184  1761.995
 185  1987.005
 186  1963.05
 187  1725.499
 188  1773.68
 189  1780.87
 190  1622.077
 191  1292.261
 192  1471.02
 193  1826.031
 194  1569.176
 195  1621.842
 196  2076.917
 197  2019.528
 198  1628.203
 199  1621.096
 200  1807.157
 201  1596.013
 202  1492.288
 203  1661.386
 204  1649.509
 205  1555.266
 206  1341.35
 207  1467.121
 208  1416.989
 209  1389.414
 210  1443.485
 211  1649.573
 212  1811.298
 213  2072.511
 214  1979.057
 215  1794.855
 216  1880.63
 217  1827.49
 218  1907.94
 219  1553.57
 220  1381.935
 221  1521.846
 222  1639.016
 223  1714.685
 224  1868.181
 225  1523.443
 226  1429.699
 227  1888.321
 228  1557.765
 229  1927.746
 230  1581.272
 231  1513.181
 232  1897.197
 233  1765.204
 234  1859.56
 235  1728.174
 236  2066.679
 237  2005.361
 238  1834.747
 239  1433.677
 240  1153.732
 241  1340.253
 242  1874.3
 243  2093.884
 244  2164.654
 245  2159.702
 246  1947.124
 247  1880.858
 248  1674.469
 249  1592.335
 250  1789.597
 251  1954.265
 252  1961.46
 253  1834.445
 254  1752.604
 255  1920.563
 256  1616.968
 257  1255.356
 258  1481.462
 259  1784.809
 260  1834.656
 261  2119.684
 262  2107.635
 263  1817.262
 264  1304.036
 265  1587.546
 266  1427.253
 267  1781.295
 268  2019.243
 269  1949.466
 270  1969.818
 271  1718.879
 272  1334.478
 273  1374.058
 274  1204.091
 275  1374.696
 276  1637.787
 277  1880.843
 278  2439.221
 279  2408.043
 280  2130.58
 281  1780.254
 282  1663.965
 283  1940.806
 284  1848.215
 285  1609.109
 286  1625.929
 287  1675.666
 288  1660.391
 289  2075.692
 290  1567.644
 291  1565.11
 292  1899.358
 293  1653.703
 294  1726.709
 295  2061.842
 296  1869.564
 297  1859.991
 298  2154.618
 299  2295.71
 300  2000.503
 301  1863.882
 302  1909.658
 303  1874.521
 304  1428.213
 305  1162.498
 306  881.5827
 307  1689.738
 308  1976.783
 309  1618.544
 310  1686.661
 311  2068.749
 312  1797.343
 313  1711.854
 314  1949.184
 315  1775.972
 316  1278.941
 317  1601.008
 318  2001.34
 319  2046.356
 320  1750.84
 321  1773.714
 322  1385.547
 323  1305.661
 324  1518.679
 325  1709.598
 326  1635.577
 327  2004.963
 328  1884.274
 329  1537.958
 330  1628.459
 331  1731.408
 332  2067.593
 333  2040.151
 334  1760.529
 335  1822.018
 336  1983.581
 337  1913.158
 338  1719.989
 339  1378.279
 340  1589.123
 341  2045.765
 342  1904.438
 343  1924.489
 344  2273.994
 345  1731.682
 346  1241.971
 347  1476.06
 348  1498.923
 349  1649.226
 350  2035.892
 351  2227.704
 352  1848.835
 353  1791.51
 354  1918.104
 355  1460.606
 356  1440.126
 357  1554.659
 358  1594.498
 359  1599.461
 360  1673.59
 361  2062.544
 362  1879.291
 363  1977.136
 364  1797.73
 365  1999.337
 366  2120.244
 367  1702.402
 368  1460.073
 369  1797.939
 370  1760.923
 371  1645.019
 372  1468.513
 373  1727.045
 374  1659.578
 375  1443.307
 376  1487.766
 377  1936.579
 378  1628.121
 379  1498.571
 380  1624.69
 381  1695.331
 382  1778.917
 383  1728.935
 384  1805.209
 385  1954.169
 386  1878.257
 387  1801.281
 388  1448.249
 389  1112.023
 390  1651.649
 391  2141.107
 392  1800.736
 393  1752.794
 394  2131.262
 395  2352.961
 396  2013.922
 397  1859.911
 398  1933.491
 399  2000.474
 400  1940.017
 401  1730.582
 402  1372.677
 403  1457.722
 404  1287.225
 405  1398.687
 406  1634.917
 407  1924.037
 408  1297.417
 409  1649.413
 410  2085.431
 411  1922.859
 412  1639.158
 413  1656.829
 414  1900.219
 415  1747.221
 416  1792.597
 417  2083.156
 418  1746.124
 419  1660.388
 420  1431.011
 421  1287.354
 422  1081.626
 423  1289.587
 424  1478.655
 425  1520.684
 426  1737.872
 427  1825.862
 428  1925.896
 429  1685.088
 430  1391.992
 431  1513.463
 432  1678.577
 433  1644.556
 434  1529.69
 435  1814.106
 436  2091.467
 437  1521.709
 438  1266.828
 439  1660.756
 440  1502.709
 441  1559.838
 442  1666.804
 443  1913.111
 444  1873.671
 445  1844.452
 446  1658.79
 447  1446.62
 448  1087.078
 449  1597.204
 450  1954.558
 451  1741.363
 452  1521.201
 453  1322.001
 454  1243.051
 455  1165.08
 456  1215.41
 457  1506.283
 458  1972.836
 459  2156.975
 460  2131.789
 461  1756.57
 462  1525.113
 463  1665.837
 464  1389.934
 465  1116.613
 466  1775.93
 467  1959.63
 468  1942.24
 469  1915.091
 470  1481.327
 471  1370.021
 472  1429.413
 473  1753.907
 474  1351.011
 475  1352.829
 476  1989.692
 477  2122.919
 478  1654.944
 479  1851.729
 480  2108.728
 481  2275.936
 482  1931.53
 483  1763.261
 484  1654.85
 485  1444.809
 486  1571.788
 487  1534.266
 488  1760.828
 489  1455.946
 490  1793.858
 491  1984.09
 492  1932.944
 493  2455.146
 494  2094.627
 495  1740.547
 496  1301.248
 497  1433.991
 498  1679.597
 499  1608.731
 500  1727.065
 501  2098.218
 502  2060.437
 503  1328.452
 504  1116.558
 505  1314.938
 506  1440.148
 507  1419.202
 508  1868.631
 509  1937.753
 510  1776.941
 511  1271.79
