# Input file       =  1201705856.10787_cleaned.dat
# Candidate        =  PSR_0332+5434
# Telescope        =  AR
# Epoch_topo       =  58152.632813748496
# Epoch_bary       =  N/A
# T_sample         =  0.002
# Data Folded      =  7340032
# Data Avg         =  0.138904454414192
# Data StdDev      =  3.86594441203699 
# Profile Bins     =  1024
# Profile Avg      =  996.669240727002 
# Profile StdDev   =  327.30647989279  
# Reduced chi-sqr  =  0.595
# Prob(Noise)      <  1   (~0.0 sigma)
# P_topo (ms)      =  714.576930947764  +/- 0.000786
# P'_topo (s/s)    =  -0                +/- 4.15e-10
# P''_topo (s/s^2) =  0                 +/- 1.83e-13
# P_bary (ms)      =  N/A
# P'_bary (s/s)    =  N/A
# P''_bary (s/s^2) =  N/A
# P_orb (s)        =  N/A
# asin(i)/c (s)    =  N/A
# eccentricity     =  N/A
# w (rad)          =  N/A
# T_peri           =  N/A
######################################################
   0  1135.63
   1  1098.326
   2  1122.721
   3  1203.943
   4  1258.961
   5  1262.125
   6  1193.977
   7  1119.254
   8  1151.651
   9  1077.022
  10  1040.547
  11  985.1746
  12  939.6462
  13  995.8603
  14  987.6348
  15  940.459
  16  941.7785
  17  1096.544
  18  1262.073
  19  1206.051
  20  1125.935
  21  1017.415
  22  1080.461
  23  1075.202
  24  1105.107
  25  979.5099
  26  929.5458
  27  1018.726
  28  1069.526
  29  969.1487
  30  807.6226
  31  787.5689
  32  817.6578
  33  894.955
  34  989.0117
  35  1060.442
  36  1097.127
  37  998.624
  38  907.05
  39  798.3248
  40  732.1058
  41  756.009
  42  866.2518
  43  985.0052
  44  1011.482
  45  1014.752
  46  895.6627
  47  864.5887
  48  828.0333
  49  972.6444
  50  998.061
  51  1035.151
  52  1045.771
  53  1013.133
  54  893.5624
  55  814.9095
  56  759.5693
  57  772.7893
  58  858.3919
  59  1013.582
  60  1039.89
  61  978.8377
  62  912.2697
  63  909.5829
  64  860.7056
  65  891.4313
  66  847.2352
  67  893.5607
  68  953.7086
  69  937.6761
  70  857.5007
  71  778.6279
  72  802.4156
  73  788.218
  74  740.4847
  75  780.0986
  76  809.8307
  77  971.2033
  78  1133.103
  79  1253.974
  80  1214.904
  81  1145.948
  82  1068.78
  83  986.2204
  84  900.2534
  85  853.4431
  86  892.6192
  87  890.783
  88  887.0124
  89  899.0184
  90  930.7084
  91  1063.665
  92  1118.529
  93  1089.825
  94  1063.695
  95  931.0908
  96  910.9705
  97  818.1099
  98  841.6423
  99  666.3246
 100  703.7518
 101  741.6906
 102  773.9456
 103  756.1505
 104  857.2818
 105  1024.912
 106  1117.792
 107  1097.003
 108  1058.358
 109  937.8816
 110  935.127
 111  943.5282
 112  941.4637
 113  939.8163
 114  915.6205
 115  1042.755
 116  1040.717
 117  962.5081
 118  937.6299
 119  1021.417
 120  1199.874
 121  1216.097
 122  1131.868
 123  974.8931
 124  942.3348
 125  943.8441
 126  913.7627
 127  896.3204
 128  800.8989
 129  811.2498
 130  831.6191
 131  855.6169
 132  891.5445
 133  973.5833
 134  1035.196
 135  966.4911
 136  862.7666
 137  848.4891
 138  977.977
 139  992.3381
 140  922.3345
 141  673.0626
 142  683.0956
 143  791.9577
 144  854.0974
 145  895.4385
 146  907.4995
 147  999.9802
 148  936.2573
 149  859.0372
 150  870.2381
 151  875.2323
 152  937.1819
 153  953.1218
 154  998.074
 155  987.9594
 156  878.8895
 157  901.6733
 158  917.3262
 159  996.36
 160  907.947
 161  920.3371
 162  1022.069
 163  1116.548
 164  1156.673
 165  1121.024
 166  1200.943
 167  1228.483
 168  1223.733
 169  1224.013
 170  1236.523
 171  1165.737
 172  1101.232
 173  1208.999
 174  1112.258
 175  975.7155
 176  755.0316
 177  846.5152
 178  904.8066
 179  887.2988
 180  966.5236
 181  1108.758
 182  1131.841
 183  1082.925
 184  984.6213
 185  976.2687
 186  972.9845
 187  1159.069
 188  1197.038
 189  1180.602
 190  949.8654
 191  1016.208
 192  1146.778
 193  1321.253
 194  1315.433
 195  1268.75
 196  1198.816
 197  1109.19
 198  1127.669
 199  1064.309
 200  1016.815
 201  1028.292
 202  1068.082
 203  1112.228
 204  1016.623
 205  1098.52
 206  1157.109
 207  1180.217
 208  1100.492
 209  1085.604
 210  1086.82
 211  1022.89
 212  932.3254
 213  973.4105
 214  1017.044
 215  1022.547
 216  985.5679
 217  1090.69
 218  1109.405
 219  1082.602
 220  1014.199
 221  1052.834
 222  1141.289
 223  1166.461
 224  1096.715
 225  980.3435
 226  881.267
 227  830.9222
 228  778.3172
 229  804.0745
 230  917.6351
 231  974.4794
 232  879.7171
 233  896.9005
 234  898.7238
 235  989.1787
 236  1093.902
 237  1181.917
 238  1192.13
 239  1114.827
 240  1104.321
 241  1126.891
 242  1059.629
 243  946.5414
 244  943.1467
 245  904.9495
 246  869.5835
 247  805.1168
 248  848.9122
 249  857.55
 250  978.8001
 251  1170.351
 252  1259.792
 253  1163.438
 254  1022.307
 255  965.5754
 256  908.2925
 257  875.3604
 258  832.3578
 259  856.7584
 260  810.9836
 261  952.8475
 262  899.5648
 263  918.8802
 264  945.9919
 265  1036.29
 266  1006.375
 267  967.2096
 268  970.1708
 269  942.4423
 270  1009.761
 271  1083.287
 272  1112.445
 273  1076.78
 274  956.9012
 275  974.1573
 276  1005.424
 277  979.2591
 278  822.0771
 279  774.517
 280  790.4772
 281  855.4179
 282  910.4215
 283  1072.025
 284  1190.188
 285  1125.298
 286  1131.707
 287  973.4647
 288  990.0261
 289  946.8115
 290  999.679
 291  1076.249
 292  978.2787
 293  886.5522
 294  853.9651
 295  1035.271
 296  1052.508
 297  940.0522
 298  1009.045
 299  1023.463
 300  1066.577
 301  1065.546
 302  1042.23
 303  955.6357
 304  857.9037
 305  855.6432
 306  871.8309
 307  860.5606
 308  888.9208
 309  893.5943
 310  927.2319
 311  1063.382
 312  1199.367
 313  1185.428
 314  1018.373
 315  1019.591
 316  1018.121
 317  1004.279
 318  990.5635
 319  941.9174
 320  894.9911
 321  875.3921
 322  886.9989
 323  893.1696
 324  1001.125
 325  1125.537
 326  1185.649
 327  1081.343
 328  951.9375
 329  921.2031
 330  867.3568
 331  932.4868
 332  868.1028
 333  910.2388
 334  903.4099
 335  920.1953
 336  934.7427
 337  962.4408
 338  1019.485
 339  1097.013
 340  1070.606
 341  891.6544
 342  806.1029
 343  767.7985
 344  790.402
 345  883.062
 346  975.3071
 347  1100.689
 348  1154.034
 349  1174.021
 350  1084.077
 351  1100.12
 352  1050.179
 353  1096.46
 354  1016.321
 355  1104.098
 356  1097.476
 357  1038.37
 358  955.7861
 359  989.3588
 360  959.064
 361  842.0828
 362  814.437
 363  940.0497
 364  1013.147
 365  1080.952
 366  1051.534
 367  1031.576
 368  859.3782
 369  814.0816
 370  834.2322
 371  847.7855
 372  872.9892
 373  925.5416
 374  920.9677
 375  927.3289
 376  914.7481
 377  886.2432
 378  973.9048
 379  1064.175
 380  1007.947
 381  850.7688
 382  843.5646
 383  878.0583
 384  921.0441
 385  752.7818
 386  718.9063
 387  706.5841
 388  684.4164
 389  772.3271
 390  805.8648
 391  895.7305
 392  794.3102
 393  867.9931
 394  913.49
 395  879.6762
 396  840.9434
 397  905.2884
 398  873.9856
 399  803.8485
 400  814.8655
 401  917.8944
 402  1020.523
 403  995.4847
 404  1042.562
 405  1025.293
 406  1033.532
 407  995.5746
 408  1067.018
 409  1120.995
 410  1163.17
 411  1030.734
 412  903.508
 413  836.8048
 414  967.3435
 415  1079.47
 416  1142.343
 417  1141.792
 418  1148.322
 419  1113.416
 420  1013.862
 421  964.9807
 422  1065.837
 423  1114.491
 424  1140.349
 425  1028.509
 426  1065.358
 427  1008.923
 428  1052.483
 429  1126.458
 430  1181.797
 431  1170.725
 432  1162.835
 433  1204.318
 434  1294.411
 435  1274.385
 436  1158.724
 437  1005.364
 438  938.7839
 439  956.3908
 440  1026.219
 441  1083.075
 442  1032.015
 443  989.0022
 444  943.4399
 445  957.8288
 446  1039.54
 447  1088.48
 448  1021.64
 449  1093.149
 450  1185.083
 451  1216.014
 452  1231.37
 453  1131.484
 454  1187.72
 455  1084.816
 456  1084.919
 457  910.4124
 458  953.6584
 459  885.7283
 460  938.5377
 461  935.601
 462  1120.423
 463  1135.762
 464  1169.863
 465  1159.647
 466  1094.613
 467  1056.768
 468  963.2225
 469  964.4331
 470  1033.732
 471  1160.648
 472  1160.628
 473  1164.957
 474  1084.959
 475  1141.148
 476  1071.394
 477  1067.163
 478  1033.896
 479  1007.33
 480  1041.668
 481  992.6404
 482  1147.934
 483  1073.315
 484  998.5721
 485  936.9001
 486  942.1411
 487  1040.841
 488  1001.51
 489  1003.522
 490  970.6584
 491  950.3896
 492  896.7311
 493  910.2684
 494  972.0625
 495  1003.055
 496  923.1738
 497  905.5986
 498  901.7484
 499  933.8235
 500  999.2762
 501  1088.049
 502  1086.084
 503  1122.081
 504  1156.956
 505  1139.962
 506  1115.044
 507  1055.052
 508  991.5748
 509  1020.469
 510  990.7938
 511  943.0564
 512  936.1963
 513  1049.934
 514  1097.193
 515  1077.816
 516  1022.852
 517  967.054
 518  1065.501
 519  1057.424
 520  1101.837
 521  1036.476
 522  966.4626
 523  922.7859
 524  936.9488
 525  902.0045
 526  964.5383
 527  981.0967
 528  1027.473
 529  889.5394
 530  842.8691
 531  791.5269
 532  876.6524
 533  894.0718
 534  961.697
 535  955.381
 536  1029.442
 537  1164.503
 538  1256.012
 539  1243.184
 540  1123.968
 541  1059.29
 542  961.0328
 543  918.7233
 544  921.9932
 545  1031.422
 546  1109.361
 547  1136.166
 548  1073.9
 549  1016.113
 550  941.6735
 551  1034.348
 552  995.4188
 553  1059.074
 554  1071.804
 555  1044.747
 556  996.23
 557  1006.061
 558  924.4536
 559  935.3252
 560  986.1804
 561  1032.183
 562  1005.78
 563  1033.891
 564  1096.832
 565  1063.718
 566  1019.922
 567  1071.145
 568  1131.465
 569  1080.88
 570  979.4018
 571  982.8866
 572  959.9617
 573  881.8331
 574  764.4306
 575  907.3801
 576  1005.112
 577  1090.024
 578  1075.865
 579  1175.63
 580  1118.859
 581  1250.392
 582  1201.009
 583  1166.338
 584  1089.749
 585  1083.732
 586  1096.689
 587  1063.145
 588  1072.567
 589  1052.569
 590  997.769
 591  926.9354
 592  889.2448
 593  911.3685
 594  1002.015
 595  980.9036
 596  1088.961
 597  1015.924
 598  1015.965
 599  1011.223
 600  1116.841
 601  981.7512
 602  951.2169
 603  1025.634
 604  1188.052
 605  1237.353
 606  1228.354
 607  1229.825
 608  1267.127
 609  1348.349
 610  1465.129
 611  1590.323
 612  1668.214
 613  1774.246
 614  1839.878
 615  1779.492
 616  1724.521
 617  1567.744
 618  1481.307
 619  1390.345
 620  1367.706
 621  1313.202
 622  1293.26
 623  1296.324
 624  1348.252
 625  1313.934
 626  1113.812
 627  996.4703
 628  1065.806
 629  1267.642
 630  1348.012
 631  1353.943
 632  1265.998
 633  1091.634
 634  1041.512
 635  1018.017
 636  1013.062
 637  1125.732
 638  1157.357
 639  1089.128
 640  984.3799
 641  939.1775
 642  918.7214
 643  977.9431
 644  994.1327
 645  1072.065
 646  1064.887
 647  1121.326
 648  1054.498
 649  1072.209
 650  1028.185
 651  1010.605
 652  934.4014
 653  978.6429
 654  1080.287
 655  1136.25
 656  1113.591
 657  1014.313
 658  1040.535
 659  976.0511
 660  979.7358
 661  1045.624
 662  1057.099
 663  974.6161
 664  868.9616
 665  989.0475
 666  1056.025
 667  987.7783
 668  877.7701
 669  923.2368
 670  881.3776
 671  988.5683
 672  891.6205
 673  917.9588
 674  866.0952
 675  964.4006
 676  1045.467
 677  1058.277
 678  1101.004
 679  1151.474
 680  1085.918
 681  988.3032
 682  979.1639
 683  1102.714
 684  992.8129
 685  952.1108
 686  1013.222
 687  1118.749
 688  1164.881
 689  948.0203
 690  773.5529
 691  710.5417
 692  732.9463
 693  820.2601
 694  827.3408
 695  866.3375
 696  905.1011
 697  986.2111
 698  1114.449
 699  1120.807
 700  1019.04
 701  937.9285
 702  872.561
 703  918.2486
 704  1002.501
 705  916.8165
 706  848.4425
 707  717.3132
 708  666.7048
 709  704.2209
 710  835.2641
 711  1007.298
 712  1010.291
 713  973.691
 714  874.9747
 715  747.9354
 716  690.103
 717  708.9314
 718  804.062
 719  986.8027
 720  1015.605
 721  940.6681
 722  763.6954
 723  680.3941
 724  776.5182
 725  836.6202
 726  854.3924
 727  796.9704
 728  791.0158
 729  760.1322
 730  775.963
 731  970.9059
 732  999.0709
 733  1086.291
 734  979.1538
 735  993.6427
 736  908.9998
 737  820.4191
 738  861.3875
 739  977.6409
 740  950.6384
 741  900.9072
 742  822.2042
 743  901.7253
 744  940.3055
 745  1056.881
 746  1226.702
 747  1223.11
 748  1174.274
 749  1120.299
 750  1067.243
 751  1007.79
 752  990.5916
 753  999.9014
 754  1063.432
 755  1075.272
 756  1026.671
 757  1035.11
 758  919.0021
 759  900.5472
 760  919.6073
 761  988.2822
 762  929.2746
 763  898.0568
 764  952.4224
 765  1022.69
 766  1047.625
 767  1067.34
 768  1007.76
 769  950.6101
 770  954.791
 771  913.6389
 772  890.3693
 773  969.2253
 774  1039.62
 775  1128.92
 776  1102.231
 777  1085.238
 778  1106.095
 779  1045.921
 780  999.6688
 781  962.3137
 782  985.2628
 783  1056.151
 784  1080.213
 785  1050.486
 786  1002.02
 787  931.0273
 788  1024.009
 789  1041.444
 790  1061.387
 791  999.1331
 792  950.8348
 793  982.6868
 794  1097.008
 795  1240.784
 796  1292.254
 797  1242.74
 798  1230.198
 799  1173.484
 800  1198.627
 801  1157.338
 802  1142.433
 803  1031.682
 804  989.9277
 805  988.6014
 806  984.7662
 807  971.7198
 808  950.8076
 809  1025.297
 810  1131.729
 811  1145.749
 812  943.5842
 813  878.0782
 814  870.5497
 815  960.8579
 816  993.608
 817  970.0544
 818  950.5927
 819  897.8443
 820  918.7844
 821  881.9752
 822  883.2703
 823  924.9688
 824  933.2287
 825  965.8812
 826  1014.608
 827  1091.636
 828  1074.413
 829  976.7559
 830  852.2438
 831  861.2634
 832  884.7961
 833  914.4279
 834  936.2965
 835  988.8504
 836  982.3337
 837  951.22
 838  993.2374
 839  1139.361
 840  1230.337
 841  1340.534
 842  1249.491
 843  1185.465
 844  1055.11
 845  1090.401
 846  1016.356
 847  925.9808
 848  818.0549
 849  820.9362
 850  872.5833
 851  846.3818
 852  838.286
 853  888.1229
 854  878.6773
 855  1027.499
 856  1018.436
 857  1061.325
 858  990.1929
 859  1055.611
 860  1065.262
 861  926.5785
 862  807.7736
 863  718.5991
 864  785.7181
 865  823.5417
 866  874.5187
 867  806.1257
 868  783.6243
 869  790.0259
 870  849.5333
 871  922.4183
 872  870.0655
 873  874.1196
 874  827.4089
 875  891.7703
 876  1043.326
 877  1128.399
 878  1043.789
 879  973.0517
 880  902.3182
 881  863.7607
 882  846.6974
 883  892.038
 884  940.5626
 885  884.7303
 886  918.2713
 887  926.1077
 888  972.4979
 889  987.463
 890  965.935
 891  963.3864
 892  980.4118
 893  1096.326
 894  1104.263
 895  1074.835
 896  914.3637
 897  890.5099
 898  979.6443
 899  943.8798
 900  862.7736
 901  789.3512
 902  886.1982
 903  1014.454
 904  1014.772
 905  1026.328
 906  965.6289
 907  1031.316
 908  1000.226
 909  992.8948
 910  1044.125
 911  1128.521
 912  1124.247
 913  953.0995
 914  782.1028
 915  837.926
 916  899.1641
 917  980.1979
 918  1060.409
 919  1117.432
 920  1087.948
 921  1080.575
 922  1066.909
 923  927.3784
 924  916.5479
 925  935.5814
 926  993.8848
 927  1001.005
 928  1057.042
 929  996.0452
 930  933.2477
 931  909.6418
 932  933.63
 933  1002.521
 934  916.8503
 935  869.2143
 936  806.5769
 937  844.5458
 938  962.1171
 939  999.5122
 940  960.1412
 941  887.6581
 942  938.0328
 943  1001.658
 944  1095.835
 945  1117.444
 946  1031.495
 947  880.9676
 948  823.3298
 949  913.2216
 950  1017.43
 951  1082.458
 952  1038.859
 953  983.0038
 954  1122.201
 955  1049.539
 956  928.9208
 957  759.1243
 958  803.4525
 959  917.1785
 960  1026.419
 961  1079.347
 962  1042.51
 963  987.1028
 964  1072.237
 965  1056.03
 966  1130.329
 967  1030.468
 968  1025.241
 969  942.0679
 970  944.3256
 971  898.0557
 972  992.9357
 973  1010.842
 974  1103.085
 975  1081.407
 976  932.3415
 977  815.9948
 978  818.9231
 979  856.403
 980  845.3262
 981  749.7506
 982  618.7149
 983  700.3322
 984  748.1186
 985  789.9027
 986  831.0355
 987  927.0612
 988  966.1463
 989  951.0499
 990  1026.382
 991  974.1879
 992  890.6668
 993  927.3743
 994  939.5115
 995  920.5781
 996  872.5692
 997  837.6096
 998  733.2597
 999  659.114
1000  768.8194
1001  833.5714
1002  974.6548
1003  941.7143
1004  915.0284
1005  821.6541
1006  836.6549
1007  875.8419
1008  984.6755
1009  964.6263
1010  1075.619
1011  1183.213
1012  1207.614
1013  1169.44
1014  1157.36
1015  1201.16
1016  1100.443
1017  1115.544
1018  1134.674
1019  1112.801
1020  921.723
1021  859.429
1022  926.2576
1023  1080.966
