# Input file       =  1201203673.107899_cleaned.dat
# Candidate        =  PSR_0332+5434
# Telescope        =  AR
# Epoch_topo       =  58146.820510508092
# Epoch_bary       =  N/A
# T_sample         =  0.002
# Data Folded      =  7340032
# Data Avg         =  0.0836734935687024
# Data StdDev      =  3.51005309480715 
# Profile Bins     =  512
# Profile Avg      =  1199.74362769016 
# Profile StdDev   =  420.269314884925 
# Reduced chi-sqr  =  0.937
# Prob(Noise)      <  0.842   (~0.0 sigma)
# P_topo (ms)      =  714.574853589575  +/- 0.000484
# P'_topo (s/s)    =  -0                +/- 2.56e-10
# P''_topo (s/s^2) =  0                 +/- 1.13e-13
# P_bary (ms)      =  N/A
# P'_bary (s/s)    =  N/A
# P''_bary (s/s^2) =  N/A
# P_orb (s)        =  N/A
# asin(i)/c (s)    =  N/A
# eccentricity     =  N/A
# w (rad)          =  N/A
# T_peri           =  N/A
######################################################
   0  1282.17
   1  1325.592
   2  1159.633
   3  1150.485
   4  1469.747
   5  1480.492
   6  1190.325
   7  1229.509
   8  1305.722
   9  1260.195
  10  1127.206
  11  1344.874
  12  937.5659
  13  879.088
  14  1133.606
  15  1121.484
  16  1058.298
  17  1154.376
  18  871.3279
  19  1126.193
  20  1207.793
  21  1057.348
  22  1328.404
  23  1321.849
  24  1216.182
  25  1243.263
  26  1288.7
  27  1277.396
  28  1171.679
  29  1225.446
  30  1300.384
  31  1094.442
  32  1184.646
  33  1442.584
  34  1611.154
  35  1767.976
  36  1687.714
  37  1799.19
  38  1624.88
  39  1598.284
  40  1832.403
  41  1866.736
  42  1602.75
  43  1432.84
  44  1517.819
  45  1508.912
  46  1188.063
  47  1473.114
  48  1441.521
  49  1561.012
  50  1504.46
  51  1334.042
  52  1223.625
  53  929.4385
  54  980.5033
  55  1127.711
  56  994.2615
  57  978.2069
  58  1112.083
  59  1229.188
  60  1331.447
  61  1430.424
  62  1213.005
  63  1134.204
  64  1547.549
  65  1329.77
  66  1437.894
  67  1433.211
  68  1545.956
  69  1527.528
  70  1080.529
  71  1038.989
  72  1239.281
  73  1082.971
  74  1139.635
  75  1227.625
  76  1087.782
  77  1160.647
  78  1141.74
  79  1411.044
  80  1111.58
  81  1072.277
  82  1487.587
  83  1525.235
  84  1303.371
  85  1338.933
  86  1334.099
  87  999.0311
  88  1026.623
  89  1207.129
  90  1063.601
  91  1530.925
  92  1586.598
  93  1589.434
  94  1236.49
  95  1192.268
  96  1306.546
  97  1478.439
  98  1201.971
  99  1277.757
 100  1030.974
 101  988.7361
 102  1015.436
 103  1062.332
 104  1089.824
 105  1234.633
 106  1331.202
 107  1276.719
 108  1586.044
 109  1567.955
 110  1481.538
 111  1330.939
 112  1496.536
 113  1534.967
 114  1264.314
 115  1366.547
 116  1116.429
 117  974.6807
 118  998.3798
 119  1416.953
 120  1701.413
 121  1284.425
 122  1235.833
 123  1445.562
 124  1500.458
 125  1428.615
 126  1417.391
 127  1466.449
 128  1566.13
 129  1456.862
 130  1165.473
 131  1297.615
 132  1557.388
 133  1511.463
 134  1677.51
 135  1652.995
 136  1127.563
 137  1213.26
 138  1575.006
 139  1481.592
 140  1778.537
 141  1657.912
 142  1391.098
 143  1484.74
 144  1186.881
 145  973.5322
 146  1018.64
 147  1184.645
 148  1325.43
 149  943.6687
 150  909.17
 151  1093.17
 152  1026.52
 153  1221.598
 154  1358.934
 155  1784.103
 156  1357.641
 157  1207.81
 158  1434.623
 159  1221.265
 160  1052.074
 161  1232.944
 162  1379.522
 163  1480.964
 164  1420.411
 165  1063.695
 166  1250.035
 167  1224.583
 168  1180.891
 169  1615.811
 170  1711.471
 171  1937.975
 172  1965.691
 173  2247.645
 174  2715.992
 175  2902.97
 176  3063.118
 177  2736.984
 178  1961.917
 179  1617.578
 180  1346.204
 181  1204.178
 182  1349.485
 183  1748.774
 184  1540.466
 185  1207.268
 186  1160.743
 187  1252.97
 188  1268.697
 189  999.8416
 190  1198.849
 191  1405.403
 192  1135.895
 193  1269.379
 194  1247.585
 195  1097.705
 196  1384.926
 197  1522.138
 198  1284.697
 199  1175.573
 200  941.2834
 201  1298.532
 202  1328.91
 203  1199.247
 204  1531.063
 205  1163.686
 206  1479.775
 207  1380.684
 208  1470.596
 209  1656.802
 210  1416.135
 211  1273.743
 212  1191.719
 213  1284.257
 214  1187.443
 215  1037.641
 216  1149.555
 217  970.6373
 218  872.0825
 219  848.7303
 220  1171.362
 221  1599.583
 222  1322.748
 223  1524.615
 224  1289.231
 225  1134.116
 226  1146.458
 227  1306.187
 228  1110.846
 229  867.9387
 230  941.5917
 231  943.9484
 232  394.2021
 233  554.4653
 234  749.2574
 235  857.5407
 236  947.6573
 237  1048.312
 238  1127.088
 239  829.1255
 240  880.6199
 241  952.9135
 242  618.6501
 243  745.1993
 244  860.0876
 245  1122.722
 246  928.9058
 247  811.2643
 248  953.0196
 249  826.6689
 250  914.1584
 251  992.1679
 252  1299.684
 253  1147.011
 254  1114.315
 255  1185.33
 256  893.8019
 257  709.6566
 258  787.3973
 259  964.8102
 260  559.9294
 261  559.8402
 262  745.0922
 263  828.7904
 264  929.1672
 265  1121.958
 266  1146.756
 267  1112.739
 268  1050.717
 269  971.035
 270  906.8958
 271  908.4576
 272  900.8181
 273  1031.081
 274  1114.728
 275  1076.948
 276  925.9509
 277  888.3513
 278  1041.981
 279  810.1605
 280  848.2869
 281  786.4295
 282  790.876
 283  1009.575
 284  798.7006
 285  904.7867
 286  1001.731
 287  954.1819
 288  993.2953
 289  1010.354
 290  1189.948
 291  721.6818
 292  1080.967
 293  1249.86
 294  830.4761
 295  1024.225
 296  1267.914
 297  885.14
 298  1335.933
 299  1418.464
 300  1277.356
 301  1284.685
 302  1066.04
 303  1099.056
 304  1093.039
 305  1102.672
 306  797.7686
 307  979.8062
 308  1110.096
 309  1204.832
 310  1144.84
 311  1054.998
 312  1070.503
 313  1061.414
 314  897.4774
 315  1014.155
 316  1315.219
 317  1456.003
 318  1035.608
 319  822.9042
 320  986.8942
 321  1227.839
 322  1011.666
 323  1340.833
 324  1181.255
 325  739.0011
 326  1003.448
 327  1087.536
 328  1279.465
 329  1019.794
 330  1117.285
 331  1007.831
 332  1316.328
 333  1085.561
 334  884.4398
 335  758.8333
 336  1023.727
 337  928.8961
 338  1240.394
 339  997.6005
 340  822.223
 341  849.428
 342  784.6798
 343  873.4873
 344  1070.204
 345  1288.988
 346  1017.417
 347  761.2413
 348  1122.963
 349  1320.521
 350  1071.541
 351  1340.552
 352  1517.11
 353  1218.582
 354  992.5614
 355  1178.368
 356  1532.549
 357  999.5646
 358  857.7718
 359  939.0602
 360  914.8076
 361  1012.995
 362  763.8073
 363  874.9064
 364  1160.806
 365  1281.823
 366  1139.257
 367  980.3698
 368  943.0116
 369  807.8491
 370  744.6829
 371  570.4814
 372  646.1495
 373  994.8438
 374  1181.389
 375  1091.625
 376  1129.583
 377  1036.206
 378  913.6204
 379  803.4682
 380  1083.719
 381  1238.658
 382  849.7228
 383  1164.254
 384  1101.054
 385  925.8161
 386  762.3299
 387  833.1677
 388  930.9413
 389  920.7914
 390  991.7036
 391  803.7048
 392  937.7202
 393  1240.745
 394  1339.585
 395  965.3719
 396  879.4523
 397  928.7025
 398  1197.425
 399  1247.873
 400  1206.106
 401  1150.326
 402  1283.614
 403  906.8881
 404  945.6954
 405  1024.924
 406  974.9238
 407  1000.761
 408  1452.668
 409  1374.554
 410  1364.991
 411  1093.943
 412  1108.546
 413  1065.12
 414  1308.859
 415  1433.141
 416  1409.126
 417  1225.303
 418  1169.964
 419  938.1984
 420  992.1866
 421  965.6127
 422  1069.02
 423  1278.591
 424  1442.433
 425  1258.93
 426  1315.58
 427  1145.977
 428  897.9978
 429  788.5397
 430  1217.115
 431  1586.771
 432  1521.92
 433  1497.307
 434  1372.98
 435  1330.781
 436  1058.348
 437  1282.458
 438  1713.323
 439  1666.691
 440  1410.508
 441  1341.7
 442  1207.341
 443  1309.886
 444  1332.877
 445  1476.897
 446  1470.37
 447  1147.724
 448  1181.798
 449  1410.72
 450  1276.762
 451  1419.953
 452  1365.41
 453  1287.372
 454  1145.45
 455  1259.855
 456  861.6166
 457  879.7552
 458  997.3891
 459  1115.036
 460  1257.19
 461  1179.136
 462  1347.524
 463  1066.635
 464  1016.073
 465  1038.214
 466  1299.492
 467  1516.206
 468  1182.462
 469  1100.451
 470  918.2227
 471  1076.118
 472  1247.007
 473  1158.015
 474  1105.767
 475  870.4235
 476  1045.879
 477  1090.748
 478  1028.509
 479  662.5698
 480  957.0585
 481  1173.104
 482  1396.221
 483  1195.956
 484  1258.173
 485  1310.342
 486  921.1142
 487  916.0499
 488  1294.044
 489  1460.163
 490  1516.847
 491  1598.048
 492  1457.224
 493  1481.607
 494  1396.746
 495  1010.927
 496  1223.958
 497  1526.596
 498  1531.412
 499  1569.528
 500  1210.072
 501  1196.788
 502  830.5856
 503  934.4963
 504  1595.952
 505  1480.837
 506  1495.866
 507  1563.982
 508  1166.356
 509  1164.916
 510  993.6485
 511  1124.992
