# Input file       =  1201017031.099187_cleaned.dat
# Candidate        =  PSR_0332+5434
# Telescope        =  AR
# Epoch_topo       =  58144.660302073920
# Epoch_bary       =  N/A
# T_sample         =  0.002
# Data Folded      =  7340032
# Data Avg         =  0.0851920995160722
# Data StdDev      =  4.25286261382733 
# Profile Bins     =  512
# Profile Avg      =  1221.36507983675 
# Profile StdDev   =  509.208154046776 
# Reduced chi-sqr  =  1.066
# Prob(Noise)      <  0.147   (~1.0 sigma)
# P_topo (ms)      =  714.573493205845  +/- 5.19e-05
# P'_topo (s/s)    =  -0                +/- 2.74e-11
# P''_topo (s/s^2) =  0                 +/- 1.21e-14
# P_bary (ms)      =  N/A
# P'_bary (s/s)    =  N/A
# P''_bary (s/s^2) =  N/A
# P_orb (s)        =  N/A
# asin(i)/c (s)    =  N/A
# eccentricity     =  N/A
# w (rad)          =  N/A
# T_peri           =  N/A
######################################################
   0  1074.632
   1  909.7604
   2  642.6437
   3  938.3556
   4  1262.935
   5  1249.932
   6  1101.448
   7  1235.069
   8  976.1112
   9  995.7674
  10  1004.304
  11  1104.028
  12  1247.834
  13  763.9209
  14  1015.896
  15  1253.059
  16  920.7842
  17  582.9724
  18  758.773
  19  1184.326
  20  1339.665
  21  1018.721
  22  584.7457
  23  920.1348
  24  1183.781
  25  1174.952
  26  1133.639
  27  1471.649
  28  1392.292
  29  1314.008
  30  1418.518
  31  1028.319
  32  1063.482
  33  1261.879
  34  1823.893
  35  1657.55
  36  1465.475
  37  1237.439
  38  1201.094
  39  2081.358
  40  1756.526
  41  1388.012
  42  1402.908
  43  1495.035
  44  1569.57
  45  1187.775
  46  895.7056
  47  1024.416
  48  1570.111
  49  1255.988
  50  1582.876
  51  1246.434
  52  1391.604
  53  1412.579
  54  834.7415
  55  717.6735
  56  806.3068
  57  1341.017
  58  1105.388
  59  1055.968
  60  927.8405
  61  748.6498
  62  997.4689
  63  1597.174
  64  1425.496
  65  931.9554
  66  986.9309
  67  937.4258
  68  1050.285
  69  1074.021
  70  1145.489
  71  1294.867
  72  1355.158
  73  1524.491
  74  933.3735
  75  1089.816
  76  809.0731
  77  1157.96
  78  1678.389
  79  1657.986
  80  1607.445
  81  1634.294
  82  1565.191
  83  1419.143
  84  1451.653
  85  1140.353
  86  1341.18
  87  1365.304
  88  1144.841
  89  1512.085
  90  1771.233
  91  1896.232
  92  1349.457
  93  1208.393
  94  949.6564
  95  1018.73
  96  1317.847
  97  1411.758
  98  1563.707
  99  1197.644
 100  1338.264
 101  1367.268
 102  1191.664
 103  717.0519
 104  907.7372
 105  1246.54
 106  1340.491
 107  1322.439
 108  1065.177
 109  1421.275
 110  1176.055
 111  1447.838
 112  1791.09
 113  1890.454
 114  1773.539
 115  1480.042
 116  1335.779
 117  835.0788
 118  1502.026
 119  1208.58
 120  1258.221
 121  784.111
 122  779.7453
 123  821.7228
 124  805.9066
 125  1099.679
 126  831.9566
 127  723.6019
 128  517.921
 129  755.8894
 130  1300.709
 131  1468.353
 132  1031.98
 133  634.2381
 134  959.3707
 135  938.3934
 136  961.2815
 137  1114.424
 138  1129.695
 139  1304.633
 140  1098.958
 141  1122.866
 142  718.1741
 143  1142.106
 144  1348.396
 145  1050.07
 146  818.8105
 147  567.4241
 148  812.6597
 149  763.3326
 150  681.3732
 151  806.3744
 152  1045.826
 153  1289.693
 154  919.2349
 155  849.3883
 156  578.2106
 157  853.353
 158  873.6337
 159  1035.355
 160  715.4125
 161  994.3928
 162  926.9594
 163  847.8033
 164  843.6882
 165  605.2347
 166  760.9687
 167  838.3403
 168  838.6318
 169  535.0649
 170  614.7814
 171  616.1984
 172  988.9737
 173  1011.654
 174  627.7603
 175  1069.146
 176  941.2474
 177  1140.441
 178  815.7634
 179  893.7711
 180  681.3104
 181  567.2227
 182  744.1256
 183  969.3608
 184  1013.768
 185  849.5444
 186  1496.238
 187  1485.496
 188  1899.77
 189  1302.891
 190  1443.734
 191  1385.789
 192  1164.434
 193  1372.646
 194  1207.677
 195  1357.201
 196  1222.371
 197  1406.837
 198  1057.318
 199  856.8845
 200  666.0547
 201  779.8146
 202  999.6519
 203  738.0481
 204  1302.406
 205  1017.157
 206  1457.647
 207  1223.114
 208  1190.565
 209  1237.667
 210  1093.237
 211  1481.406
 212  1299.837
 213  1324.129
 214  1437.694
 215  1276.384
 216  1224.413
 217  1128.771
 218  1297.923
 219  862.9542
 220  1478.956
 221  1557.808
 222  1445.646
 223  1156.311
 224  947.8121
 225  1070.089
 226  1240.713
 227  1479.794
 228  1481.366
 229  1661.104
 230  1229.169
 231  1505.014
 232  1555.897
 233  1425.197
 234  1321.832
 235  1216.718
 236  1561.388
 237  1450.073
 238  1547.471
 239  1637.396
 240  1771.786
 241  1410.657
 242  1201.854
 243  1770.415
 244  1548.208
 245  1582.104
 246  1682.154
 247  1467.109
 248  1173.505
 249  1596.902
 250  1843.663
 251  1168.809
 252  1302.271
 253  1394.033
 254  1832.019
 255  1663.245
 256  1650.961
 257  1676.455
 258  1667.344
 259  1336.168
 260  1484.45
 261  1781.421
 262  1344.966
 263  1793.927
 264  1455.673
 265  1236.34
 266  1068.058
 267  1003.505
 268  1048.627
 269  1332.807
 270  1577.176
 271  1449.278
 272  1168.201
 273  952.85
 274  1136.392
 275  976.87
 276  633.0288
 277  969.3388
 278  1029.11
 279  1457.956
 280  982.2024
 281  1188.124
 282  1260.75
 283  1686.718
 284  1417.615
 285  1208.901
 286  1797.147
 287  1770.189
 288  1495.796
 289  921.0128
 290  1049.827
 291  967.0441
 292  1485.436
 293  1146.471
 294  1361.523
 295  1748.742
 296  1743.287
 297  1790.264
 298  1501.42
 299  1392.958
 300  1510.069
 301  1618.614
 302  1642.829
 303  1647.739
 304  2147.919
 305  2121.953
 306  2722.74
 307  2688.861
 308  2809.886
 309  2352.794
 310  2056.256
 311  1914.269
 312  1428.715
 313  1702.728
 314  1291.609
 315  1397.286
 316  1227.711
 317  1278.281
 318  1546.103
 319  1442.986
 320  1660.11
 321  1289.914
 322  1567.5
 323  1198.696
 324  1773.764
 325  2265.634
 326  2166.939
 327  2075.059
 328  1190.024
 329  1390.847
 330  1329.591
 331  1421.416
 332  1465.551
 333  1435.782
 334  1280.287
 335  1262.63
 336  1660.361
 337  1410.8
 338  1710.354
 339  1262.608
 340  1572.728
 341  1078.109
 342  1229.239
 343  796.2166
 344  853.8564
 345  1123.766
 346  1067.932
 347  906.2901
 348  459.9554
 349  1068.472
 350  1104.762
 351  957.6627
 352  862.4468
 353  1117.558
 354  1523.587
 355  1221.822
 356  931.3784
 357  459.4808
 358  829.1495
 359  567.4456
 360  573.2861
 361  708.5212
 362  961.5248
 363  800.2099
 364  698.4519
 365  1169.755
 366  1032.285
 367  1072.548
 368  1467.344
 369  1448.421
 370  1456.756
 371  1330.761
 372  1769.578
 373  1641.363
 374  1720.721
 375  1529.507
 376  1579.695
 377  1864.804
 378  1896.821
 379  2084.203
 380  2024.927
 381  2110.398
 382  1661.02
 383  1520.532
 384  1485.644
 385  1334.03
 386  1437.143
 387  1617.645
 388  1572.934
 389  1450.567
 390  1325.09
 391  1048.883
 392  1243.013
 393  1089.094
 394  872.9489
 395  733.2238
 396  778.1263
 397  1138.828
 398  923.4342
 399  567.3885
 400  520.5573
 401  920.6894
 402  1171.779
 403  1522.78
 404  1374.505
 405  629.7375
 406  1197.903
 407  1205.021
 408  1677.895
 409  2005.262
 410  1835.684
 411  1285.256
 412  1368.232
 413  1322.096
 414  819.8292
 415  1518.776
 416  1998.16
 417  1959.674
 418  1752.42
 419  1887.402
 420  1418.527
 421  1093.844
 422  1356.715
 423  1519.96
 424  1584.358
 425  1232.279
 426  1357.833
 427  1166.499
 428  1058.328
 429  1039.92
 430  877.329
 431  1099.877
 432  932.8345
 433  1035.637
 434  750.1472
 435  915.5612
 436  1137.9
 437  1006.739
 438  1192.187
 439  1088.384
 440  1045.631
 441  1040.54
 442  993.2354
 443  770.2953
 444  1263.477
 445  1568.799
 446  1563.166
 447  1484.051
 448  1261.466
 449  1668.026
 450  1319.853
 451  1240.497
 452  1179.4
 453  1117.542
 454  834.0372
 455  1260.237
 456  1359.541
 457  1259.994
 458  1667.325
 459  1617.371
 460  1580.008
 461  1525.926
 462  1300.008
 463  1011.758
 464  1174.593
 465  1657.939
 466  1403.73
 467  1483.266
 468  1570.347
 469  1586.528
 470  1176.384
 471  694.5784
 472  646.6465
 473  1092.994
 474  1374.312
 475  1319.109
 476  1116.978
 477  832.0187
 478  792.1783
 479  849.3351
 480  877.6625
 481  704.0084
 482  798.3179
 483  1126.429
 484  1108.481
 485  1095.94
 486  1098.543
 487  977.3767
 488  892.285
 489  889.7393
 490  772.577
 491  550.2496
 492  907.324
 493  971.9879
 494  1191.858
 495  873.602
 496  508.5275
 497  534.2477
 498  467.3708
 499  554.0836
 500  313.5467
 501  856.8621
 502  700.6662
 503  569.5759
 504  503.0794
 505  374.035
 506  332.1708
 507  464.7093
 508  756.637
 509  755.3694
 510  807.2594
 511  766.4833
