# Input file       =  1201949674.108761_cleaned.dat
# Candidate        =  PSR_0332+5434
# Telescope        =  AR
# Epoch_topo       =  58155.454781351400
# Epoch_bary       =  N/A
# T_sample         =  0.002
# Data Folded      =  7143424
# Data Avg         =  0.130234106492952
# Data StdDev      =  5.25400293670018 
# Profile Bins     =  1024
# Profile Avg      =  908.516200119871 
# Profile StdDev   =  438.827208462928 
# Reduced chi-sqr  =  4.920
# Prob(Noise)      <  0   (~0.0 sigma)
# P_topo (ms)      =  714.5778882894    +/- 1.09e-05
# P'_topo (s/s)    =  -0                +/- 5.89e-12
# P''_topo (s/s^2) =  0                 +/- 2.67e-15
# P_bary (ms)      =  N/A
# P'_bary (s/s)    =  N/A
# P''_bary (s/s^2) =  N/A
# P_orb (s)        =  N/A
# asin(i)/c (s)    =  N/A
# eccentricity     =  N/A
# w (rad)          =  N/A
# T_peri           =  N/A
######################################################
   0  600.8519
   1  811.4037
   2  1226.232
   3  1277.266
   4  1218.072
   5  1165.426
   6  958.4037
   7  1008.038
   8  680.0724
   9  566.7161
  10  396.4752
  11  320.5245
  12  336.119
  13  345.1503
  14  412.9336
  15  613.9616
  16  759.819
  17  1182.517
  18  1534.67
  19  1794.758
  20  2044.686
  21  1955.036
  22  1849.53
  23  1369.652
  24  1148.647
  25  946.7307
  26  826.5286
  27  729.0392
  28  545.6409
  29  417.3511
  30  362.1521
  31  347.7975
  32  577.0562
  33  644.2532
  34  878.8414
  35  1141.345
  36  1133.489
  37  1250.725
  38  1109.927
  39  1045.373
  40  916.7189
  41  604.5069
  42  435.4817
  43  334.9236
  44  291.1077
  45  298.2246
  46  177.9292
  47  444.2806
  48  640.6081
  49  1060.773
  50  1353.921
  51  1564.318
  52  1749.199
  53  1853.714
  54  1893.975
  55  1945.667
  56  1652.086
  57  1464.163
  58  1161.558
  59  876.0303
  60  598.8901
  61  324.6855
  62  326.9323
  63  168.1434
  64  222.656
  65  207.1552
  66  434.9578
  67  789.0582
  68  1182.771
  69  1282.637
  70  1254.325
  71  954.4094
  72  824.3065
  73  632.2756
  74  713.7062
  75  698.9426
  76  576.5137
  77  474.1034
  78  286.0429
  79  227.7159
  80  253.6793
  81  397.4386
  82  854.9547
  83  1337.31
  84  1608.768
  85  1957.947
  86  2068.66
  87  2172.171
  88  1822.081
  89  1519.901
  90  1331.435
  91  1123.406
  92  917.9014
  93  784.0564
  94  498.9173
  95  371.407
  96  145.2267
  97  325.6602
  98  465.499
  99  633.7745
 100  798.7779
 101  983.4883
 102  1236.248
 103  1352.306
 104  1100.399
 105  978.9796
 106  723.223
 107  820.9576
 108  757.976
 109  628.3487
 110  451.267
 111  301.1265
 112  265.4959
 113  372.5949
 114  640.2107
 115  1059.006
 116  1297.983
 117  1703.13
 118  2045.726
 119  2124.512
 120  2122.371
 121  1783.83
 122  1575.444
 123  1249.511
 124  970.7794
 125  868.8304
 126  763.278
 127  822.7573
 128  510.2714
 129  207.2774
 130  62.99289
 131  193.1762
 132  478.5815
 133  765.2314
 134  847.8947
 135  1145.274
 136  1144.415
 137  1214.988
 138  949.8511
 139  664.6915
 140  579.826
 141  491.337
 142  583.7283
 143  488.0091
 144  159.3752
 145  200.6305
 146  180.9324
 147  497.3549
 148  653.8798
 149  1066.419
 150  1685.38
 151  2032.256
 152  2124.62
 153  1945.953
 154  1826.721
 155  1728.635
 156  1366.743
 157  1129.298
 158  858.2936
 159  641.9605
 160  565.36
 161  459.7443
 162  505.6622
 163  381.4164
 164  449.825
 165  654.6002
 166  592.2224
 167  810.2567
 168  1013.484
 169  1138.944
 170  1199.352
 171  814.6497
 172  601.2357
 173  383.1979
 174  463.7583
 175  526.321
 176  437.2061
 177  307.3798
 178  250.7121
 179  291.3311
 180  407.875
 181  593.6798
 182  1065.978
 183  1480.359
 184  1827.317
 185  1978.226
 186  2000.635
 187  1780.656
 188  1473.066
 189  1217.953
 190  1178.761
 191  932.6642
 192  769.0161
 193  434.9952
 194  314.4236
 195  368.3026
 196  340.1974
 197  420.5793
 198  554.2698
 199  878.7878
 200  1257.986
 201  1361.121
 202  1360.805
 203  1173.164
 204  943.0479
 205  746.2156
 206  484.4497
 207  412.967
 208  419.9326
 209  272.5336
 210  258.2526
 211  149.4888
 212  375.7406
 213  552.9912
 214  798.3672
 215  1127.122
 216  1391.941
 217  1734.749
 218  1950.992
 219  1948.329
 220  1797
 221  1454.325
 222  1322.787
 223  1246.44
 224  1073.946
 225  838.0213
 226  738.7358
 227  637.9914
 228  446.0605
 229  253.3506
 230  323.135
 231  378.667
 232  733.6428
 233  1026.678
 234  1249.204
 235  1244.443
 236  1147.14
 237  929.8929
 238  792.4667
 239  637.2397
 240  632.7433
 241  511.1348
 242  371.2423
 243  204.9377
 244  -17.51188
 245  165.7341
 246  581.7672
 247  1136.981
 248  1615.066
 249  1787.614
 250  2035.758
 251  2015.485
 252  2069.999
 253  1882.719
 254  1625.408
 255  1383.162
 256  1217.807
 257  1065.913
 258  949.4373
 259  734.7805
 260  670.7311
 261  560.9504
 262  612.1289
 263  590.5699
 264  727.6794
 265  1071.855
 266  1259.42
 267  1342.327
 268  1327.267
 269  1161.261
 270  1178.653
 271  960.3935
 272  810.6891
 273  518.559
 274  366.7805
 275  390.8831
 276  301.2641
 277  309.1884
 278  480.33
 279  851.3976
 280  1274.341
 281  1458.282
 282  1668.345
 283  1915.989
 284  2179.615
 285  2383.236
 286  2165.444
 287  1973.953
 288  1557.076
 289  1151.857
 290  844.7249
 291  722.2947
 292  742.2167
 293  560.7768
 294  297.074
 295  196.6043
 296  113.7172
 297  383.8355
 298  690.0745
 299  896.5112
 300  1206.753
 301  1176.76
 302  1131.941
 303  1041.836
 304  792.6654
 305  610.304
 306  402.5953
 307  386.8886
 308  473.39
 309  371.438
 310  305.6697
 311  193.1267
 312  312.2531
 313  785.2883
 314  1123.251
 315  1682.681
 316  2004.68
 317  2228.175
 318  2179.155
 319  1951.63
 320  1760.95
 321  1379.558
 322  1080.275
 323  833.4073
 324  735.7716
 325  657.5034
 326  582.7432
 327  520.6122
 328  492.4619
 329  444.118
 330  621.6381
 331  778.9911
 332  952.4144
 333  1131.258
 334  1229.788
 335  1200.565
 336  909.2535
 337  713.2162
 338  692.2401
 339  544.6252
 340  442.3651
 341  321.8146
 342  243.597
 343  296.2761
 344  326.5502
 345  523.4336
 346  790.7854
 347  1171.785
 348  1589.397
 349  1900.77
 350  2049.986
 351  1964.449
 352  1699.03
 353  1514.448
 354  1250.786
 355  1267.046
 356  1104.297
 357  995.6888
 358  658.66
 359  611.3203
 360  635.4141
 361  593.9104
 362  635.8171
 363  671.5931
 364  817.6781
 365  1076.71
 366  1252.245
 367  1345.947
 368  1329.286
 369  1141.091
 370  1062.526
 371  861.4224
 372  727.0394
 373  474.5006
 374  324.0168
 375  303.3665
 376  280.73
 377  390.4006
 378  632.081
 379  824.0483
 380  1102.654
 381  1377.846
 382  1578.126
 383  1862.42
 384  1856.535
 385  1849.091
 386  1647.016
 387  1448.672
 388  1237.804
 389  942.1901
 390  790.4095
 391  661.7078
 392  600.4515
 393  548.5869
 394  489.5081
 395  449.0887
 396  535.2896
 397  672.7985
 398  1031.39
 399  1251.878
 400  1436.017
 401  1309.601
 402  1008.638
 403  831.476
 404  632.7729
 405  726.2245
 406  557.0745
 407  466.1531
 408  403.4866
 409  368.0463
 410  504.1174
 411  642.032
 412  995.5512
 413  1442.327
 414  1780.567
 415  2056.66
 416  2068.262
 417  2013.403
 418  2113.398
 419  1872.964
 420  1671.114
 421  1255.582
 422  987.4506
 423  921.0379
 424  726.8275
 425  730.2069
 426  411.7011
 427  425.1171
 428  434.2691
 429  529.5477
 430  841.9951
 431  1020.909
 432  1345.395
 433  1452.507
 434  1235.984
 435  916.7625
 436  709.8488
 437  635.537
 438  682.4438
 439  465.9012
 440  312.8636
 441  103.6408
 442  125.8976
 443  370.2904
 444  492.0109
 445  783.2588
 446  1200.447
 447  1485.851
 448  1795.563
 449  1660.066
 450  1923.59
 451  1822.261
 452  1822.305
 453  1503.01
 454  1127.41
 455  1033.518
 456  927.1221
 457  855.5203
 458  689.0264
 459  426.9555
 460  398.9348
 461  277.2161
 462  373.2278
 463  642.5913
 464  802.1582
 465  1184.624
 466  1233.452
 467  1257.401
 468  1313.012
 469  1010.582
 470  889.1381
 471  594.3673
 472  490.7396
 473  395.8428
 474  295.0903
 475  285.9727
 476  229.0096
 477  424.3642
 478  806.4236
 479  1096.862
 480  1442.459
 481  1758.921
 482  2086.707
 483  2256.003
 484  1928.846
 485  1548.042
 486  1224.318
 487  1024.729
 488  986.25
 489  770.2618
 490  759.7683
 491  498.3341
 492  428.1639
 493  351.5759
 494  248.4965
 495  330.3731
 496  577.6853
 497  859.7231
 498  1019.731
 499  988.0278
 500  1052.145
 501  967.2126
 502  768.7349
 503  642.7301
 504  301.3456
 505  211.6255
 506  150.1114
 507  159.0692
 508  102.3285
 509  78.32661
 510  181.4005
 511  639.7968
 512  1096.22
 513  1614.665
 514  1700.515
 515  1922.516
 516  1974.309
 517  1827.171
 518  1616.729
 519  1260.871
 520  1161.395
 521  925.8988
 522  790.95
 523  568.8445
 524  410.2362
 525  445.942
 526  379.8055
 527  367.1416
 528  449.1572
 529  562.054
 530  869.2243
 531  1178.475
 532  1237.798
 533  1292.105
 534  1130.182
 535  1035.879
 536  918.5482
 537  632.2791
 538  586.1277
 539  376.4324
 540  300.5229
 541  181.1091
 542  179.3244
 543  363.8209
 544  611.3684
 545  1038.715
 546  1503.052
 547  1810.445
 548  2064.343
 549  1923.812
 550  1832.17
 551  1696.183
 552  1431.109
 553  1189.334
 554  896.6915
 555  830.4611
 556  707.7393
 557  523.5849
 558  343.3965
 559  176.2011
 560  387.5414
 561  628.4918
 562  788.0369
 563  1098.423
 564  1181.369
 565  1158.754
 566  1054.689
 567  789.986
 568  639.0281
 569  289.6331
 570  350.7096
 571  456.3389
 572  455.0023
 573  249.2983
 574  28.03449
 575  124.9632
 576  563.2577
 577  881.1075
 578  1243.309
 579  1459.84
 580  1742.901
 581  1938.199
 582  1812.21
 583  1814.562
 584  1452.535
 585  1425.043
 586  1141.115
 587  871.5777
 588  778.6127
 589  544.3814
 590  535.2153
 591  366.9887
 592  437.669
 593  447.8412
 594  455.2138
 595  772.2645
 596  1113.475
 597  1335.233
 598  1569.28
 599  1327.77
 600  1014.118
 601  832.0762
 602  686.9412
 603  799.2379
 604  592.6279
 605  492.48
 606  388.9637
 607  415.0129
 608  795.5269
 609  1070.377
 610  1544.598
 611  1996.799
 612  2150.708
 613  2339.681
 614  2386.611
 615  2504.783
 616  2528.416
 617  2101.931
 618  1728.017
 619  1215.371
 620  1063.371
 621  889.8406
 622  773.6589
 623  592.1013
 624  333.4745
 625  353.2918
 626  392.9347
 627  485.697
 628  727.1161
 629  909.335
 630  1092.319
 631  1132.227
 632  1014.591
 633  982.3896
 634  756.9342
 635  784.3375
 636  721.6374
 637  490.3625
 638  413.9994
 639  265.2922
 640  237.9735
 641  160.4756
 642  304.0321
 643  706.9962
 644  1249.33
 645  1614.386
 646  1860.461
 647  1772.79
 648  2003.737
 649  1998.583
 650  1975.951
 651  1586.606
 652  1230.563
 653  1017.119
 654  730.7241
 655  735.6463
 656  527.1519
 657  431.5576
 658  245.3649
 659  195.4107
 660  378.1816
 661  547.5486
 662  758.1027
 663  981.5746
 664  1094.006
 665  1146.912
 666  1142.369
 667  906.3606
 668  727.8718
 669  556.3542
 670  476.8347
 671  357.7717
 672  124.635
 673  26.50567
 674  19.58972
 675  229.4017
 676  598.0392
 677  856.0121
 678  1277.74
 679  1594.88
 680  1818.621
 681  2000.725
 682  1855.377
 683  1816.282
 684  1509.713
 685  1327.992
 686  1036.134
 687  814.8849
 688  675.9937
 689  459.7733
 690  422.796
 691  353.9186
 692  216.885
 693  236.3488
 694  407.3816
 695  759.7885
 696  1054.974
 697  1123.483
 698  1222.986
 699  1061.377
 700  841.7013
 701  613.166
 702  418.1513
 703  534.3271
 704  510.4845
 705  383.0211
 706  315.4585
 707  260.9431
 708  406.3636
 709  609.6344
 710  1062.656
 711  1553.977
 712  1823.951
 713  2146.076
 714  2115.731
 715  1845.226
 716  1550.032
 717  1197.047
 718  1154.213
 719  920.6685
 720  749.2435
 721  648.3476
 722  423.4166
 723  450.5671
 724  276.4279
 725  426.9575
 726  552.2624
 727  601.2813
 728  932.9578
 729  1117.34
 730  1236.907
 731  1199.309
 732  980.848
 733  921.1479
 734  664.3494
 735  476.5944
 736  421.1246
 737  261.3322
 738  233.8747
 739  78.21708
 740  205.0492
 741  527.7123
 742  670.6193
 743  1049.556
 744  1326.268
 745  1674.307
 746  1970.892
 747  1778.501
 748  1772.784
 749  1490.381
 750  1340.783
 751  1027.6
 752  743.5443
 753  728.3259
 754  665.8414
 755  673.008
 756  532.0229
 757  343.7558
 758  349.3521
 759  439.7772
 760  720.0185
 761  1013.462
 762  1178.358
 763  1422.57
 764  1222.154
 765  1074.521
 766  911.4882
 767  690.9505
 768  677.8217
 769  408.237
 770  315.232
 771  168.0457
 772  205.6172
 773  261.5927
 774  324.8108
 775  555.8187
 776  1029.2
 777  1439.761
 778  1868.019
 779  2070.241
 780  2022.288
 781  1957.629
 782  1508.435
 783  1186.879
 784  741.373
 785  631.47
 786  632.246
 787  466.7999
 788  547.8472
 789  357.2527
 790  433.7784
 791  370.5564
 792  390.8301
 793  708.178
 794  998.2018
 795  1282.64
 796  1288.311
 797  999.8343
 798  865.9135
 799  728.4518
 800  575.017
 801  480.472
 802  353.0571
 803  402.5777
 804  489.7271
 805  464.411
 806  429.2881
 807  253.3725
 808  532.7791
 809  926.4231
 810  1363.204
 811  1625.267
 812  1706.805
 813  1783.128
 814  1766.925
 815  1589.886
 816  1425.588
 817  1087.739
 818  901.4641
 819  730.022
 820  672.9974
 821  614.7578
 822  398.5369
 823  365.0569
 824  262.9041
 825  228.7117
 826  380.2169
 827  637.8689
 828  1105.484
 829  1275.401
 830  1290.599
 831  1193.88
 832  894.6337
 833  750.3721
 834  635.1133
 835  463.6537
 836  315.394
 837  292.9093
 838  338.1817
 839  383.327
 840  323.0541
 841  635.989
 842  880.1974
 843  1262.724
 844  1645.619
 845  1735.542
 846  1913.6
 847  1684.081
 848  1671.455
 849  1371.327
 850  1006.084
 851  864.2166
 852  728.1591
 853  819.3818
 854  566.4927
 855  331.4177
 856  316.4132
 857  243.9383
 858  476.3639
 859  716.0526
 860  885.3235
 861  992.6776
 862  959.9744
 863  1139.224
 864  1182.861
 865  808.4461
 866  626.597
 867  348.0745
 868  379.8112
 869  373.4034
 870  276.4587
 871  278.181
 872  132.9197
 873  358.2801
 874  615.8005
 875  873.1342
 876  1212.178
 877  1358.87
 878  1700.777
 879  1815.423
 880  1688.573
 881  1585.375
 882  1259.534
 883  1164.829
 884  986.4688
 885  782.6988
 886  558.6414
 887  339.4566
 888  416.7301
 889  313.1777
 890  138.5923
 891  264.7596
 892  432.4752
 893  840.1546
 894  1039.571
 895  1204.547
 896  1370.216
 897  1146.749
 898  949.5654
 899  639.0127
 900  346.1735
 901  224.4104
 902  26.07854
 903  76.13486
 904  61.27436
 905  253.4759
 906  516.7664
 907  674.83
 908  979.8325
 909  1212.23
 910  1448.314
 911  1709.506
 912  1662.131
 913  1636.451
 914  1368.941
 915  1238.781
 916  1119.47
 917  931.4401
 918  841.2197
 919  740.343
 920  505.8485
 921  470.4806
 922  253.0794
 923  486.9754
 924  505.8692
 925  640.5623
 926  888.0447
 927  983.1273
 928  1023.954
 929  882.8953
 930  818.3733
 931  830.0875
 932  594.7578
 933  422.1226
 934  261.0893
 935  235.5852
 936  250.7787
 937  84.5093
 938  8.178467
 939  122.5923
 940  385.7222
 941  826.3712
 942  1218.844
 943  1557.952
 944  1689.006
 945  1704.73
 946  1766.19
 947  1567.02
 948  1196.954
 949  962.6249
 950  742.993
 951  713.3752
 952  495.0287
 953  497.1116
 954  304.8655
 955  217.785
 956  267.0454
 957  329.6582
 958  539.2008
 959  703.7409
 960  907.2383
 961  1286.272
 962  1244.667
 963  1054.836
 964  794.6205
 965  620.4378
 966  697.812
 967  583.8427
 968  470.5313
 969  273.2947
 970  119.6013
 971  308.1952
 972  415.2914
 973  655.9838
 974  1022.904
 975  1386.507
 976  1804.743
 977  1926.788
 978  1959.938
 979  1823.552
 980  1597.539
 981  1295.919
 982  976.346
 983  820.876
 984  762.7384
 985  714.5464
 986  709.6999
 987  499.4004
 988  348.1565
 989  272.7345
 990  312.8387
 991  535.4741
 992  761.0176
 993  960.3214
 994  1149.047
 995  1000.475
 996  1144.499
 997  942.445
 998  853.1705
 999  591.3204
1000  342.14
1001  296.2489
1002  319.281
1003  347.2548
1004  398.4802
1005  323.9418
1006  545.5161
1007  846.0078
1008  1317.351
1009  1647.052
1010  1799.702
1011  2030.814
1012  2052.148
1013  1889.445
1014  1635.14
1015  1250.659
1016  983.0533
1017  740.7756
1018  662.8738
1019  563.1528
1020  570.5099
1021  558.1804
1022  449.5109
1023  403.7929
