# Input file       =  1201447310.101719_cleaned.dat
# Candidate        =  PSR_0332+5434
# Telescope        =  AR
# Epoch_topo       =  58149.640383121747
# Epoch_bary       =  N/A
# T_sample         =  0.002
# Data Folded      =  7340032
# Data Avg         =  0.135853961690113
# Data StdDev      =  6.77708762482525 
# Profile Bins     =  1024
# Profile Avg      =  973.774392628173 
# Profile StdDev   =  573.775630994592 
# Reduced chi-sqr  =  0.770
# Prob(Noise)      <  1   (~0.0 sigma)
# P_topo (ms)      =  714.575754298186  +/- 0.000516
# P'_topo (s/s)    =  -0                +/- 2.72e-10
# P''_topo (s/s^2) =  0                 +/- 1.2e-13
# P_bary (ms)      =  N/A
# P'_bary (s/s)    =  N/A
# P''_bary (s/s^2) =  N/A
# P_orb (s)        =  N/A
# asin(i)/c (s)    =  N/A
# eccentricity     =  N/A
# w (rad)          =  N/A
# T_peri           =  N/A
######################################################
   0  985.7577
   1  775.3547
   2  600.1523
   3  707.657
   4  872.1249
   5  966.0035
   6  871.9886
   7  753.3091
   8  839.9706
   9  848.3701
  10  831.3249
  11  958.6467
  12  1142.584
  13  1158.551
  14  1121.958
  15  1024.018
  16  994.7092
  17  957.8181
  18  1008.452
  19  1253.266
  20  1182.595
  21  1206.321
  22  1191.848
  23  1148.473
  24  1335.454
  25  1460.005
  26  1343.295
  27  1103.458
  28  961.1723
  29  952.688
  30  1055.813
  31  950.2722
  32  1286.352
  33  1401.873
  34  1211.286
  35  1081.694
  36  1203.265
  37  1371.576
  38  1407.712
  39  1367.128
  40  1315.654
  41  1156.151
  42  1005.024
  43  1025.564
  44  1042.985
  45  936.6417
  46  1122.648
  47  1094.654
  48  1261.37
  49  1629.466
  50  1649.677
  51  1524.792
  52  1284.062
  53  1247.53
  54  1300.055
  55  1011.363
  56  948.5242
  57  1106.804
  58  1151.494
  59  1189.363
  60  879.1642
  61  951.2886
  62  927.3831
  63  903.8381
  64  924.0561
  65  1101.419
  66  1218.313
  67  1222.801
  68  1212.363
  69  1410.497
  70  1597.472
  71  1440.617
  72  966.7234
  73  939.2109
  74  873.3226
  75  963.6218
  76  980.1441
  77  996.6478
  78  1403.368
  79  1513.683
  80  1475.813
  81  1403.843
  82  1479.473
  83  1416.442
  84  1253.106
  85  1150.186
  86  1233.957
  87  1100.438
  88  1077.53
  89  1181.017
  90  1181.965
  91  1239.547
  92  999.1656
  93  870.0999
  94  1036.55
  95  1256.01
  96  1212.073
  97  1202.672
  98  1314.578
  99  1323.534
 100  1147.424
 101  887.2791
 102  823.6226
 103  806.6371
 104  670.0427
 105  748.5682
 106  831.9283
 107  872.1185
 108  809.0515
 109  842.6349
 110  1081.515
 111  1214.092
 112  1091.635
 113  1062.863
 114  1029.915
 115  1144.501
 116  943.931
 117  794.4941
 118  777.7488
 119  820.9254
 120  634.8473
 121  580.1861
 122  626.2373
 123  877.9238
 124  960.6403
 125  1044.127
 126  1131.994
 127  1038.202
 128  783.3499
 129  565.6865
 130  517.0637
 131  529.3394
 132  660.827
 133  692.8842
 134  771.1133
 135  652.8329
 136  670.5242
 137  645.1613
 138  832.7793
 139  1034.153
 140  1253.118
 141  1207.327
 142  1211.413
 143  1233.212
 144  1050.814
 145  1033.265
 146  1091.591
 147  1094.696
 148  1185.667
 149  989.4752
 150  960.034
 151  1008.398
 152  950.7861
 153  902.0651
 154  1035.3
 155  1248.841
 156  1282.704
 157  1255.624
 158  1211.508
 159  1481.644
 160  1387.675
 161  1254.475
 162  1149.766
 163  1113.265
 164  1239.485
 165  1002.667
 166  1003.272
 167  1113
 168  1118.471
 169  1093.924
 170  1173.579
 171  1072.127
 172  1129.08
 173  704.502
 174  443.3559
 175  282.5299
 176  514.1485
 177  674.7916
 178  540.2656
 179  396.8179
 180  546.4869
 181  491.0381
 182  472.3819
 183  511.1865
 184  654.6701
 185  755.6222
 186  695.4226
 187  546.8707
 188  724.7083
 189  659.4512
 190  563.2621
 191  736.3032
 192  733.7821
 193  665.7224
 194  442.6576
 195  662.6691
 196  965.3538
 197  1116.231
 198  1047.127
 199  1088.007
 200  773.7123
 201  656.3774
 202  689.6638
 203  771.9711
 204  912.6873
 205  1060.156
 206  1186.246
 207  1226.878
 208  1105.531
 209  1133.812
 210  1068.789
 211  759.8767
 212  966.644
 213  1128.813
 214  1048.705
 215  848.2147
 216  920.8925
 217  1066.77
 218  1040.11
 219  825.9827
 220  765.9391
 221  834.0281
 222  749.3403
 223  914.6259
 224  927.4991
 225  818.2774
 226  737.1405
 227  695.0702
 228  809.2855
 229  727.752
 230  476.8668
 231  580.2979
 232  827.2417
 233  920.0338
 234  979.2647
 235  912.0624
 236  766.3894
 237  663.2021
 238  514.2054
 239  611.6975
 240  674.483
 241  773.0863
 242  906.1777
 243  880.5422
 244  753.0168
 245  721.4944
 246  731.5857
 247  765.0089
 248  805.8595
 249  712.3192
 250  764.8716
 251  612.342
 252  726.0402
 253  842.938
 254  707.0149
 255  670.0792
 256  834.1942
 257  919.1157
 258  1089.112
 259  755.492
 260  687.5436
 261  738.4924
 262  983.5698
 263  1127.995
 264  1065.171
 265  911.9705
 266  807.2348
 267  817.6093
 268  759.6715
 269  973.3295
 270  1039.52
 271  994.0844
 272  1118.012
 273  1071.995
 274  1256.327
 275  961.1954
 276  878.4882
 277  842.3832
 278  856.2141
 279  936.4229
 280  958.405
 281  961.611
 282  940.2071
 283  790.3129
 284  680.8716
 285  775.3356
 286  949.3205
 287  1080.781
 288  1095.186
 289  970.9358
 290  1201.793
 291  1351.005
 292  1146.922
 293  745.8624
 294  560.2476
 295  543.8168
 296  661.0673
 297  685.0029
 298  904.3124
 299  960.7039
 300  995.1902
 301  1074.844
 302  1156.37
 303  1090.86
 304  1095.827
 305  977.7859
 306  857.5219
 307  577.8743
 308  388.8177
 309  611.4203
 310  665.8924
 311  904.2744
 312  1213.382
 313  1367.5
 314  1338.398
 315  1037.274
 316  925.0447
 317  739.9733
 318  766.0076
 319  814.7695
 320  1083.215
 321  989.0371
 322  732.4554
 323  683.962
 324  674.7772
 325  606.965
 326  690.8483
 327  779.0408
 328  862.3359
 329  870.4502
 330  986.5827
 331  1195.956
 332  1142.105
 333  957.7507
 334  861.2525
 335  862.2566
 336  1027.368
 337  730.5946
 338  642.1613
 339  574.0751
 340  762.5169
 341  889.081
 342  1057.675
 343  979.8929
 344  1198.925
 345  1324.287
 346  1331.024
 347  1352.092
 348  1222.547
 349  1032.913
 350  972.6949
 351  898.8538
 352  899.05
 353  717.7119
 354  692.3393
 355  921.8873
 356  970.3057
 357  963.4382
 358  724.7974
 359  770.6476
 360  1107.263
 361  1251.969
 362  1154.862
 363  994.3473
 364  936.4271
 365  966.6515
 366  682.0469
 367  388.7242
 368  428.5652
 369  582.1305
 370  649.7971
 371  799.4387
 372  718.2562
 373  669.9881
 374  707.5115
 375  800.6536
 376  870.4988
 377  832.4958
 378  679.9362
 379  537.1486
 380  383.2575
 381  656.5821
 382  679.9814
 383  764.3969
 384  986.2179
 385  1220.01
 386  1164.694
 387  992.9163
 388  946.9843
 389  869.3743
 390  825.3344
 391  778.8026
 392  831.6546
 393  877.2231
 394  649.8864
 395  576.1593
 396  767.6219
 397  847.2046
 398  895.4336
 399  767.666
 400  832.9066
 401  827.1101
 402  766.5091
 403  572.2008
 404  557.0178
 405  639.4939
 406  889.318
 407  771.046
 408  546.617
 409  497.995
 410  504.9961
 411  559.8415
 412  704.6725
 413  866.3278
 414  1121.565
 415  975.6353
 416  893.7178
 417  958.7641
 418  879.4866
 419  1013.158
 420  1115.105
 421  1069.303
 422  1049.893
 423  700.5507
 424  695.7582
 425  802.6205
 426  901.0629
 427  1040.22
 428  1152.011
 429  1150.474
 430  1038.311
 431  960.1752
 432  916.5761
 433  1184.204
 434  1205.104
 435  1182.906
 436  926.23
 437  766.5936
 438  931.1377
 439  1036.811
 440  747.3016
 441  683.7205
 442  810.3268
 443  963.798
 444  783.8387
 445  476.0849
 446  620.4274
 447  718.8986
 448  790.5733
 449  740.7744
 450  618.6622
 451  471.0703
 452  433.0275
 453  445.3804
 454  491.1271
 455  552.7827
 456  600.6434
 457  687.8544
 458  588.1557
 459  460.2922
 460  281.441
 461  258.2379
 462  448.9218
 463  686.8502
 464  644.8779
 465  344.2787
 466  373.4247
 467  460.1624
 468  862.8919
 469  896.4539
 470  1023.657
 471  1108.297
 472  945.538
 473  927.5323
 474  858.5732
 475  889.0277
 476  1042.446
 477  1035.935
 478  1246.515
 479  1132.354
 480  825.5447
 481  692.8256
 482  879.9417
 483  966.7635
 484  857.1262
 485  856.503
 486  1071.267
 487  1134.601
 488  1011.886
 489  905.9918
 490  945.2697
 491  874.4418
 492  1000.304
 493  915.543
 494  915.1683
 495  972.944
 496  815.5598
 497  915.3145
 498  769.8351
 499  841.1877
 500  840.0583
 501  742.5093
 502  647.6899
 503  794.1697
 504  959.1065
 505  1115.109
 506  1218.758
 507  1145.224
 508  907.3069
 509  525.6124
 510  344.6977
 511  625.4261
 512  618.3962
 513  629.7932
 514  614.6277
 515  700.9161
 516  853.0963
 517  968.2437
 518  1131.251
 519  1176.797
 520  869.6499
 521  738.2734
 522  819.8256
 523  920.4119
 524  1000.417
 525  973.2986
 526  928.9975
 527  865.8425
 528  888.3702
 529  878.6935
 530  855.2753
 531  570.7451
 532  610.0048
 533  856.2236
 534  871.7264
 535  768.301
 536  632.5465
 537  709.1682
 538  790.3751
 539  837.45
 540  852.7539
 541  784.0758
 542  428.0341
 543  502.8701
 544  456.5142
 545  557.1924
 546  650.3141
 547  720.3361
 548  934.9036
 549  980.3028
 550  964.8092
 551  949.6794
 552  876.1285
 553  795.5983
 554  794.1772
 555  998.5201
 556  1088.093
 557  1098.943
 558  1072.033
 559  1131.283
 560  1248.273
 561  1274.854
 562  1342.931
 563  1105.957
 564  1162.894
 565  1089.634
 566  1052.756
 567  1011.512
 568  860.9688
 569  923.7438
 570  1020.895
 571  917.7172
 572  880.7292
 573  838.5706
 574  1030.503
 575  937.6721
 576  987.5331
 577  1177.256
 578  1461.693
 579  1360.121
 580  1134.449
 581  1168.834
 582  1169.312
 583  1007.496
 584  1105.012
 585  896.7231
 586  1007.951
 587  779.2265
 588  896.1388
 589  877.2778
 590  823.28
 591  1000.378
 592  953.6584
 593  946.1578
 594  914.0906
 595  861.7839
 596  672.836
 597  660.613
 598  665.34
 599  1026.92
 600  1303.868
 601  1314.586
 602  1230.149
 603  1167.591
 604  1010.253
 605  978.0812
 606  938.6365
 607  926.9625
 608  740.5209
 609  626.9636
 610  1056.408
 611  1264.167
 612  1221.739
 613  1440.301
 614  1603.998
 615  1733.837
 616  1693.033
 617  1588.052
 618  1900.29
 619  1696.29
 620  1657.2
 621  1551.644
 622  1177.086
 623  984.5884
 624  765.833
 625  890.1003
 626  668.7272
 627  691.1316
 628  612.8365
 629  807.554
 630  839.0708
 631  897.9285
 632  768.4362
 633  642.8995
 634  797.1478
 635  933.0076
 636  711.812
 637  559.0432
 638  567.2453
 639  991.1758
 640  1095.362
 641  912.1692
 642  957.5534
 643  907.5792
 644  747.7604
 645  472.3326
 646  445.2394
 647  507.6754
 648  495.6922
 649  483.9939
 650  429.6094
 651  376.0981
 652  412.5648
 653  582.7064
 654  695.017
 655  714.9194
 656  771.0701
 657  752.4785
 658  653.3022
 659  756.3383
 660  737.3383
 661  655.5096
 662  288.2645
 663  238.7463
 664  603.2179
 665  685.1548
 666  803.8344
 667  854.2244
 668  924.8543
 669  995.4316
 670  951.1127
 671  1012.483
 672  876.0903
 673  640.5938
 674  594.3797
 675  740.1895
 676  654.2202
 677  575.0901
 678  579.7294
 679  484.8073
 680  509.8121
 681  436.4605
 682  468.62
 683  582.6635
 684  601.9324
 685  624.9266
 686  445.795
 687  281.6687
 688  464.4341
 689  391.0131
 690  338.5931
 691  442.4582
 692  441.402
 693  415.0189
 694  443.8827
 695  612.1416
 696  897.9147
 697  876.3654
 698  679.4097
 699  820.6847
 700  744.7885
 701  996.2194
 702  1097.515
 703  1169.34
 704  1104.363
 705  1021.675
 706  683.2516
 707  704.2989
 708  461.1142
 709  645.0657
 710  677.757
 711  717.6776
 712  849.6447
 713  907.884
 714  802.7234
 715  597.915
 716  687.1163
 717  783.2557
 718  885.392
 719  548.066
 720  625.8491
 721  562.7034
 722  641.2104
 723  564.056
 724  609.818
 725  821.2758
 726  969.0004
 727  945.1898
 728  931.5195
 729  1052.457
 730  981.0155
 731  1015.37
 732  1036.964
 733  1010.878
 734  872.3873
 735  789.4998
 736  819.4606
 737  1000.493
 738  1016.999
 739  1161.952
 740  1147.825
 741  1327.99
 742  1437.936
 743  1332.785
 744  1035.453
 745  1113.742
 746  1062.172
 747  900.6393
 748  747.7499
 749  818.2042
 750  1339.609
 751  1317.578
 752  1308.444
 753  1479.531
 754  1439.741
 755  1471.411
 756  1289.073
 757  1363.986
 758  1234.672
 759  1040.426
 760  972.5197
 761  1028.679
 762  962.8126
 763  963.922
 764  1018.262
 765  1168.115
 766  1018.853
 767  994.649
 768  987.8009
 769  1256.964
 770  1344.546
 771  1423.401
 772  1467.793
 773  1248.061
 774  1339.963
 775  1277.591
 776  1240.466
 777  1197.365
 778  979.0555
 779  810.5154
 780  602.5422
 781  532.8898
 782  830.5231
 783  1157.966
 784  1296.702
 785  1514.916
 786  1506.403
 787  1646.752
 788  1554.36
 789  1366.172
 790  1168.824
 791  1115.788
 792  946.1381
 793  1012.108
 794  1040.999
 795  1106.046
 796  1071.2
 797  1035.381
 798  1282.017
 799  1541.689
 800  1606.435
 801  1519.341
 802  1435.433
 803  1510.095
 804  1459.709
 805  1327.571
 806  1304.969
 807  1425.489
 808  1282.382
 809  1076.122
 810  1049.446
 811  1101.152
 812  1227.31
 813  1196.599
 814  1298.757
 815  1197.748
 816  918.6238
 817  936.4114
 818  1067.801
 819  1139.651
 820  1265.931
 821  1094.545
 822  988.0666
 823  979.1904
 824  819.3375
 825  650.6985
 826  631.8463
 827  944.6187
 828  1144.908
 829  1048.825
 830  896.0018
 831  952.2148
 832  925.7394
 833  805.8092
 834  983.2313
 835  997.3311
 836  1113.581
 837  982.3295
 838  1079.047
 839  1177.113
 840  1046.129
 841  1089.885
 842  1052.9
 843  1105.483
 844  1131.557
 845  1122.232
 846  1087.124
 847  1102.445
 848  1251.475
 849  1355.084
 850  1252.98
 851  1074.043
 852  1272.44
 853  1350.368
 854  1223.119
 855  1407.065
 856  1519.114
 857  1474.388
 858  1170.984
 859  1120.154
 860  1411.984
 861  1507.248
 862  1451.699
 863  1513.116
 864  1499.394
 865  1525.521
 866  1286.24
 867  1141.401
 868  1295.088
 869  1569.396
 870  1719.735
 871  1638.541
 872  1535.094
 873  1608.642
 874  1449.936
 875  1187.584
 876  1301.063
 877  1290.284
 878  1285.095
 879  1163.512
 880  1351.966
 881  1337.02
 882  1160.635
 883  1019.755
 884  1244.022
 885  1639.168
 886  1377.627
 887  1347.744
 888  1257.153
 889  1444.68
 890  1375.51
 891  1255.977
 892  1344.714
 893  1446.211
 894  1371.954
 895  1157.103
 896  842.9481
 897  724.9404
 898  820.3645
 899  961.4844
 900  1082.785
 901  1051.97
 902  913.8284
 903  991.0262
 904  1172.968
 905  1330.197
 906  1598.484
 907  1540.209
 908  1369.959
 909  1293.844
 910  1277.697
 911  1128.999
 912  1081.781
 913  1068.046
 914  1311.144
 915  1295.321
 916  951.4762
 917  1046.107
 918  975.7869
 919  1117.339
 920  1098.902
 921  956.0039
 922  861.9324
 923  743.1473
 924  1073.647
 925  1281.466
 926  1176.019
 927  1066.791
 928  1253.576
 929  1239.687
 930  1395.109
 931  1137.193
 932  1050.749
 933  906.9786
 934  1055.313
 935  1385.309
 936  1413.984
 937  1237.911
 938  1139.641
 939  1219.98
 940  1190.172
 941  1339.017
 942  1249.753
 943  1229.864
 944  1127.393
 945  1138.831
 946  1154.488
 947  1048.438
 948  915.8589
 949  1121.976
 950  1437.964
 951  1587.675
 952  1484.077
 953  1247.275
 954  1164.298
 955  1267.996
 956  1221.901
 957  1305.494
 958  1050.523
 959  1078.891
 960  918.5455
 961  1027.392
 962  988.0524
 963  1092.217
 964  1113.615
 965  1204.403
 966  1220.987
 967  1210.118
 968  1196.38
 969  1034.508
 970  999.0363
 971  1249.653
 972  1239.16
 973  1021.443
 974  941.361
 975  1113.942
 976  1274.157
 977  1097.368
 978  1433.849
 979  1486.92
 980  1471.863
 981  1363.699
 982  1342.593
 983  1334.956
 984  1408.857
 985  1331.735
 986  989.776
 987  751.5214
 988  674.9941
 989  776.4443
 990  870.5109
 991  1134.634
 992  1150.649
 993  1180.152
 994  1350.559
 995  1518.227
 996  1349.064
 997  1217.339
 998  1118.858
 999  1300.237
1000  1173.78
1001  1021.137
1002  994.1893
1003  1136.461
1004  1197.421
1005  1332.783
1006  1348.692
1007  1157.217
1008  1031.377
1009  1075.051
1010  1034.049
1011  1338.649
1012  1145.481
1013  1403.826
1014  1283.842
1015  1168.475
1016  965.1362
1017  774.3605
1018  743.9231
1019  868.7806
1020  806.7749
1021  839.562
1022  808.1281
1023  919.4876
