# Input file       =  1201174118.105377_cleaned.dat
# Candidate        =  PSR_0332+5434
# Telescope        =  AR
# Epoch_topo       =  58146.478438719641
# Epoch_bary       =  N/A
# T_sample         =  0.002
# Data Folded      =  7208960
# Data Avg         =  0.0955189894546166
# Data StdDev      =  3.85085851437391 
# Profile Bins     =  512
# Profile Avg      =  1344.71150474487 
# Profile StdDev   =  456.939697413108 
# Reduced chi-sqr  =  1.055
# Prob(Noise)      <  0.187   (~0.9 sigma)
# P_topo (ms)      =  714.574342160702  +/- 3.32e-05
# P'_topo (s/s)    =  -0                +/- 1.79e-11
# P''_topo (s/s^2) =  0                 +/- 8.03e-15
# P_bary (ms)      =  N/A
# P'_bary (s/s)    =  N/A
# P''_bary (s/s^2) =  N/A
# P_orb (s)        =  N/A
# asin(i)/c (s)    =  N/A
# eccentricity     =  N/A
# w (rad)          =  N/A
# T_peri           =  N/A
######################################################
   0  845.9432
   1  1327.041
   2  1121.647
   3  1350.476
   4  1766.385
   5  1354.617
   6  676.3044
   7  1075.78
   8  1615.621
   9  1535.568
  10  1281.717
  11  1348.835
  12  1450.494
  13  1147.716
  14  750.0101
  15  496.7729
  16  1097.44
  17  770.6197
  18  768.2984
  19  1438.94
  20  1822.124
  21  1465.594
  22  1515.909
  23  1104.477
  24  997.8383
  25  807.994
  26  1082.924
  27  1367.281
  28  1540.018
  29  1716.617
  30  1524.3
  31  1013.835
  32  848.5088
  33  799.9281
  34  1050.653
  35  1268.867
  36  1606.162
  37  1756.67
  38  1453.128
  39  1184.598
  40  1217.74
  41  1457.512
  42  1635.979
  43  1310.031
  44  1313.667
  45  1441.464
  46  1341.36
  47  1381.169
  48  1100.88
  49  1008.947
  50  1258.75
  51  1622.632
  52  1436.987
  53  1778.028
  54  1803.284
  55  1593.229
  56  1401.689
  57  1191.234
  58  1417.81
  59  1280.247
  60  1356.566
  61  1475.175
  62  1232.666
  63  921.9987
  64  972.6735
  65  877.588
  66  911.6154
  67  1478.348
  68  1259.255
  69  1375.581
  70  1270.973
  71  1318.338
  72  1185.651
  73  1180.352
  74  1436.111
  75  1345.845
  76  1673.968
  77  1654.379
  78  1408.9
  79  1273.831
  80  969.96
  81  854.8685
  82  816.7258
  83  1150.162
  84  1449.862
  85  1662.536
  86  1733.639
  87  1768.03
  88  1489.712
  89  1262.672
  90  1278.541
  91  1272.777
  92  1318.922
  93  1809.526
  94  1734.064
  95  1766.39
  96  1375.73
  97  1067.209
  98  767.2006
  99  1079.694
 100  1265.655
 101  1140.042
 102  1414.361
 103  1614.909
 104  1615.238
 105  1536.272
 106  1363.583
 107  1643.009
 108  1481.338
 109  1392.4
 110  1161.195
 111  1502.986
 112  1515.485
 113  1481.482
 114  1179.975
 115  1073.696
 116  906.4288
 117  1083.016
 118  1753.62
 119  1866.25
 120  1500.889
 121  1506.86
 122  1176.291
 123  1227.481
 124  1002.979
 125  1491.276
 126  1369.395
 127  1177.408
 128  1284.337
 129  1516.855
 130  1190.055
 131  698.0016
 132  1040.647
 133  1304.524
 134  1334.071
 135  1502.223
 136  1643.706
 137  1214.543
 138  1218.357
 139  1074.132
 140  1602.281
 141  1690.16
 142  1355.173
 143  1442.217
 144  1153.794
 145  1047.439
 146  1016.182
 147  1063.041
 148  1251.795
 149  1430.906
 150  1857.807
 151  1782.42
 152  1773.133
 153  1151.904
 154  881.4087
 155  1063.57
 156  1344.322
 157  1584.509
 158  1871.39
 159  1870.779
 160  1532.758
 161  1051.97
 162  822.3464
 163  824.9827
 164  967.9677
 165  1069.75
 166  1309.49
 167  1696.586
 168  1673.769
 169  1793.643
 170  1550.39
 171  1310.757
 172  1271.19
 173  1352.08
 174  1386.671
 175  1403.005
 176  1532.249
 177  1707.224
 178  1508.969
 179  985.1865
 180  870.876
 181  936.442
 182  1238.816
 183  1463.667
 184  1185.429
 185  1523.093
 186  1818.05
 187  1499.11
 188  1051.084
 189  1064.179
 190  1179.557
 191  1415.209
 192  1735.948
 193  1570.691
 194  1265.227
 195  1115.255
 196  1127.731
 197  912.799
 198  1147.53
 199  1578.155
 200  1380.474
 201  1461.253
 202  1478.819
 203  1541.572
 204  1546.201
 205  1165.757
 206  1053.121
 207  1197.082
 208  1392.531
 209  1563.931
 210  1520.965
 211  1548.3
 212  1394.19
 213  897.7056
 214  1086.619
 215  1167.166
 216  1366.7
 217  1612.189
 218  1665.105
 219  1642.239
 220  1393.507
 221  1206.489
 222  1376.932
 223  1756.043
 224  1784.576
 225  1938.394
 226  2001.542
 227  1627.943
 228  1311.149
 229  939.2743
 230  816.3643
 231  916.329
 232  982.0814
 233  1385.978
 234  1714.26
 235  1856.59
 236  1675.515
 237  1560.916
 238  1227.064
 239  1074.827
 240  1330.413
 241  1624.376
 242  1748.942
 243  1747.914
 244  1537.746
 245  1517.272
 246  1094.987
 247  713.0724
 248  798.4988
 249  1141.028
 250  1359.589
 251  1685.709
 252  1670.832
 253  1480.942
 254  1451.8
 255  1207.725
 256  1314.336
 257  1646.34
 258  1627.621
 259  1485.209
 260  1314.966
 261  1250.238
 262  1060.238
 263  729.7432
 264  730.662
 265  1424.931
 266  1709.479
 267  1444.737
 268  1478.384
 269  1588.339
 270  1200.436
 271  1045.445
 272  1108.553
 273  1365.913
 274  1414.872
 275  1560.368
 276  1502.242
 277  1202.486
 278  730.1404
 279  946.2821
 280  601.239
 281  542.6665
 282  894.5911
 283  1315.635
 284  1446.034
 285  1817.34
 286  1408.848
 287  1561.96
 288  1469.73
 289  1363.745
 290  1309.207
 291  1175.092
 292  1220.583
 293  1200.887
 294  1291.842
 295  1497.518
 296  899.9436
 297  746.8359
 298  1308.775
 299  1753.465
 300  2000.555
 301  2045.797
 302  1927.577
 303  1538.436
 304  1492.058
 305  1974.467
 306  2400.883
 307  2885.25
 308  3173.194
 309  2847.533
 310  2310.984
 311  1503.734
 312  837.8864
 313  793.0022
 314  1036.241
 315  1444.739
 316  1576.513
 317  1816.113
 318  1886.568
 319  1666.322
 320  1337.904
 321  1397.678
 322  1320.615
 323  1366.948
 324  1463.944
 325  1649.503
 326  1493.322
 327  1312.843
 328  1261.813
 329  947.9324
 330  949.9947
 331  967.4783
 332  1462.165
 333  1621.325
 334  1454.73
 335  1302.462
 336  872.3942
 337  906.0601
 338  1071.742
 339  1260.189
 340  1562.066
 341  1782.284
 342  1679.385
 343  1435.676
 344  1119.365
 345  712.7473
 346  515.095
 347  772.0165
 348  1203.019
 349  1689.941
 350  1748.641
 351  1791.381
 352  1269.836
 353  1358.209
 354  1450.392
 355  1544.396
 356  905.1556
 357  1110.51
 358  1511.688
 359  1447.499
 360  1341.979
 361  787.2185
 362  843.5153
 363  856.035
 364  829.9613
 365  1195.031
 366  1477.049
 367  1392.834
 368  1455.611
 369  1366.312
 370  949.5837
 371  945.9103
 372  1424.722
 373  1174.245
 374  1412.985
 375  1247.218
 376  1167.673
 377  1332.111
 378  834.6461
 379  689.4494
 380  986.235
 381  1199.035
 382  1633.599
 383  1661.306
 384  1841.365
 385  1596.01
 386  1202.762
 387  1311.888
 388  1354.2
 389  1247.239
 390  1307.42
 391  1345.27
 392  1401.263
 393  1331.285
 394  1343.47
 395  1129.791
 396  913.8962
 397  1681.844
 398  1837.807
 399  1622.343
 400  1442.204
 401  1462.15
 402  1437.008
 403  1190.901
 404  1218.21
 405  1611.226
 406  1719.326
 407  1468.131
 408  1278.813
 409  1072.777
 410  1091.019
 411  1105.481
 412  730.8273
 413  1059.019
 414  1494.026
 415  1622.82
 416  2169.961
 417  1820.694
 418  1406.648
 419  996.0094
 420  739.4001
 421  963.3151
 422  1096.145
 423  1583.257
 424  1805.162
 425  1429.958
 426  1282.781
 427  1104
 428  934.3477
 429  930.8993
 430  1292.65
 431  1545.255
 432  1805.706
 433  1721.253
 434  1337.553
 435  1049.265
 436  1079.618
 437  1431.554
 438  1608.787
 439  1330.502
 440  1439.182
 441  1464.602
 442  1512.853
 443  1220.219
 444  996.5259
 445  673.9754
 446  1060.069
 447  1155.69
 448  1913.615
 449  1523.443
 450  1749.587
 451  1508.986
 452  1307.205
 453  1091.621
 454  1106.772
 455  1173.698
 456  1514.767
 457  1914.477
 458  2060.603
 459  1837.936
 460  1363.772
 461  1081.741
 462  1316.629
 463  816.3538
 464  1146.591
 465  1771.819
 466  2223.238
 467  1804.535
 468  1791.21
 469  1189.902
 470  930.5971
 471  1183.226
 472  1487.779
 473  1716.432
 474  1563.243
 475  1522.546
 476  1389.856
 477  1000.206
 478  1042.16
 479  1393.669
 480  1756.644
 481  1564.95
 482  1453.514
 483  1646.148
 484  1505.818
 485  1343.166
 486  994.446
 487  1143.186
 488  1493.516
 489  1585.644
 490  1642.441
 491  1268.865
 492  1103.232
 493  1131.606
 494  871.5668
 495  598.9916
 496  1091.33
 497  1139.557
 498  1482.423
 499  1811.46
 500  1885.3
 501  1506.244
 502  931.544
 503  749.5186
 504  1212.676
 505  1442.227
 506  1523.774
 507  1723
 508  1477.373
 509  1099.666
 510  789.8535
 511  658.5072
