# Input file       =  1201619709.104547_cleaned.dat
# Candidate        =  PSR_0332+5434
# Telescope        =  AR
# Epoch_topo       =  58151.635741950777
# Epoch_bary       =  N/A
# T_sample         =  0.002
# Data Folded      =  7340032
# Data Avg         =  0.112395450183872
# Data StdDev      =  4.1663733703196  
# Profile Bins     =  512
# Profile Avg      =  1611.34852793827 
# Profile StdDev   =  498.852534307666 
# Reduced chi-sqr  =  0.734
# Prob(Noise)      <  1   (~0.0 sigma)
# P_topo (ms)      =  714.576554952924  +/- 0.00022
# P'_topo (s/s)    =  -0                +/- 1.16e-10
# P''_topo (s/s^2) =  0                 +/- 5.12e-14
# P_bary (ms)      =  N/A
# P'_bary (s/s)    =  N/A
# P''_bary (s/s^2) =  N/A
# P_orb (s)        =  N/A
# asin(i)/c (s)    =  N/A
# eccentricity     =  N/A
# w (rad)          =  N/A
# T_peri           =  N/A
######################################################
   0  1349.032
   1  1691.854
   2  1337.303
   3  1132.569
   4  1470.162
   5  1730.665
   6  1754.387
   7  1661.812
   8  1656.018
   9  1479.965
  10  1475.713
  11  1622.4
  12  1549.178
  13  1744.882
  14  1889.743
  15  2168.056
  16  2086.689
  17  1621.312
  18  1708.248
  19  1398.206
  20  1658.077
  21  1854.328
  22  1770.416
  23  1518.427
  24  1773.586
  25  1448.286
  26  1199.717
  27  1571.23
  28  1914.464
  29  2123.316
  30  2507.632
  31  2245.333
  32  1996.346
  33  2033.456
  34  2345.944
  35  2276.629
  36  2282.439
  37  2111.171
  38  1987.797
  39  1919.093
  40  2341.179
  41  2218.214
  42  2061.983
  43  1785.375
  44  1537.019
  45  1646.295
  46  1767.794
  47  1682.977
  48  1646.658
  49  1936.854
  50  1724.576
  51  1817.206
  52  1434.284
  53  1173.511
  54  1383.653
  55  1648.94
  56  2003.834
  57  1651.274
  58  1811.652
  59  1818.189
  60  1519.591
  61  1622.52
  62  1449.59
  63  1611.624
  64  1445.672
  65  1266.474
  66  1279.109
  67  1003.587
  68  1159.537
  69  1584.861
  70  1515.235
  71  1514.168
  72  1755.63
  73  1759.878
  74  1348.253
  75  1088.217
  76  1563.357
  77  1429.016
  78  1456.068
  79  1739.629
  80  1828.963
  81  1833.99
  82  1788.019
  83  1963.554
  84  1479.639
  85  1263.595
  86  1710.086
  87  1636.079
  88  1366.184
  89  1249.85
  90  1496.661
  91  1750.912
  92  1647.943
  93  1765.16
  94  1962.993
  95  1720.29
  96  1710.358
  97  1734.914
  98  2073.813
  99  2150.112
 100  2097.392
 101  2029.129
 102  1847.734
 103  1255.2
 104  1522.465
 105  1728.165
 106  1734.369
 107  1508.88
 108  1671.486
 109  1397.896
 110  1477.331
 111  1348.192
 112  1437.508
 113  1669.746
 114  1581.517
 115  1263.712
 116  880.7681
 117  1079.517
 118  1052.366
 119  1395.65
 120  1370.607
 121  1518.735
 122  1811.145
 123  1638.089
 124  1170.583
 125  1264.914
 126  1739.354
 127  1733.333
 128  1156.297
 129  1392.772
 130  1356.93
 131  1318.296
 132  1416.453
 133  1496.671
 134  1351.551
 135  1164.942
 136  1312.024
 137  1339.514
 138  1241.823
 139  1202.339
 140  1184.537
 141  1256.676
 142  1349.228
 143  1090.362
 144  1576.045
 145  1746.573
 146  1315.401
 147  1306.796
 148  1025.219
 149  1111.99
 150  1263.86
 151  1771.921
 152  1660.807
 153  1515.197
 154  1335.099
 155  1405.696
 156  1412.651
 157  1891.596
 158  1686.913
 159  1896.669
 160  1471.997
 161  1625.616
 162  1561.307
 163  1419.931
 164  1726.931
 165  2113.24
 166  1987.286
 167  1767.139
 168  1158.645
 169  1482.021
 170  1564.027
 171  1294.265
 172  1090.177
 173  1504.13
 174  1646.868
 175  1557.73
 176  1449.848
 177  1389.307
 178  1544.482
 179  1556.795
 180  2078.976
 181  1923.507
 182  1386.932
 183  1665.864
 184  1730.201
 185  1342.968
 186  1587.979
 187  1757.32
 188  1490.056
 189  1298.222
 190  1548.38
 191  1805.36
 192  1537.124
 193  1473.744
 194  1600.37
 195  1405.999
 196  1531.858
 197  1591.584
 198  1660.406
 199  1550.224
 200  1464.081
 201  1691.393
 202  1802.235
 203  1739.134
 204  1279.257
 205  1210.942
 206  1594.957
 207  1656.72
 208  1607.245
 209  1548.985
 210  1638.724
 211  1251.244
 212  1304.35
 213  1118.843
 214  1037.447
 215  1469.888
 216  1598.776
 217  1755.689
 218  1587.302
 219  1217.084
 220  1369.16
 221  1480.731
 222  1364.69
 223  1427.458
 224  1448.828
 225  1642.648
 226  1795.573
 227  1552.896
 228  1357.018
 229  1700.49
 230  1732.907
 231  1395.187
 232  1317.665
 233  1786.126
 234  1399.455
 235  1231.971
 236  1502.674
 237  1620.655
 238  1595.257
 239  1933.939
 240  2065.176
 241  1970.436
 242  1546.151
 243  1638.496
 244  1635.793
 245  1912.465
 246  2180.558
 247  2100.703
 248  1954.048
 249  1963.453
 250  1579.552
 251  1885.061
 252  2110.339
 253  2100.772
 254  2215.755
 255  1755.325
 256  1763.444
 257  1640.41
 258  1718.565
 259  1903.581
 260  1944.784
 261  1983.781
 262  1587.907
 263  1490.423
 264  2027.551
 265  2125.167
 266  2164.32
 267  1722.402
 268  1615.262
 269  1659.434
 270  1288.742
 271  1053.092
 272  1298.031
 273  1440.78
 274  1592.71
 275  1391.687
 276  1541.971
 277  1477.081
 278  1464.684
 279  1144.635
 280  1507.095
 281  1763.609
 282  1818.519
 283  1835.442
 284  1276.652
 285  1432.559
 286  1001.783
 287  1453.057
 288  1661.293
 289  1710.237
 290  1801.627
 291  1622.544
 292  1502.725
 293  1502.993
 294  2039.82
 295  2033.427
 296  2066.263
 297  2149.753
 298  1939.032
 299  1622.951
 300  1526.921
 301  1939.783
 302  2191.325
 303  2239.977
 304  2337.494
 305  2375.354
 306  2724.504
 307  2762.731
 308  2844.967
 309  2968.053
 310  2473.083
 311  1851.066
 312  1643.252
 313  1564.113
 314  1756.195
 315  1733.942
 316  1756.7
 317  1967.112
 318  1386.748
 319  1383.885
 320  1512.636
 321  1661.328
 322  1540.181
 323  1830.927
 324  1747.329
 325  1168.13
 326  1321.37
 327  1663.253
 328  1654.242
 329  1529.42
 330  1395.897
 331  1477.962
 332  1032.735
 333  1023.44
 334  831.8859
 335  930.8693
 336  1566.334
 337  1748.041
 338  1557.638
 339  1339.524
 340  1179.054
 341  1274.827
 342  1563.812
 343  1497.051
 344  984.6276
 345  879.49
 346  1297.136
 347  1408.715
 348  1590.482
 349  1429.237
 350  1542.34
 351  1544.155
 352  1264.367
 353  1464.058
 354  1598.824
 355  1735.16
 356  1837.199
 357  1667.206
 358  1825.852
 359  1569.865
 360  1496
 361  1961.383
 362  2119.719
 363  2230.714
 364  1996.2
 365  1837.536
 366  1957.482
 367  2027.657
 368  1891.548
 369  1720.751
 370  1617.725
 371  1747.105
 372  1546.291
 373  1740.18
 374  1562.411
 375  1854.702
 376  2002.11
 377  1598.466
 378  1761.635
 379  1349.66
 380  1431.769
 381  1528.988
 382  1967.271
 383  1771.317
 384  1430.951
 385  1376.765
 386  1498.777
 387  1679.774
 388  1686.805
 389  1538.17
 390  1199.378
 391  1046.694
 392  1467.826
 393  1505.967
 394  1570.485
 395  1715.732
 396  1981.652
 397  1769.844
 398  1946.041
 399  1855.833
 400  1826.943
 401  1919.674
 402  1642.942
 403  1434.15
 404  2137.176
 405  2402.882
 406  2112.147
 407  2046.42
 408  1736.329
 409  1807.511
 410  2020.18
 411  1737.798
 412  1820.289
 413  1943.201
 414  1899.341
 415  1576.228
 416  1449.961
 417  1136.89
 418  1175.116
 419  1356.453
 420  1907.756
 421  1746.333
 422  1612.117
 423  1535.282
 424  1134.645
 425  1224.059
 426  1464.852
 427  1483.421
 428  1356.91
 429  1168.349
 430  1497.013
 431  1762.35
 432  1892.201
 433  1660.177
 434  1538.671
 435  1455.287
 436  1098.088
 437  1060.378
 438  1551.195
 439  1564.645
 440  1574.903
 441  1408.57
 442  1096.64
 443  1035.631
 444  1241.607
 445  1373.169
 446  1240.888
 447  1613.932
 448  1895.603
 449  1860.944
 450  1726.654
 451  1588.708
 452  1764.564
 453  2227.715
 454  1784.396
 455  1715.444
 456  1513.133
 457  1246.046
 458  1435.701
 459  1529.991
 460  1712.088
 461  1405.58
 462  1493.373
 463  1972.78
 464  1788.684
 465  1681.416
 466  1384.642
 467  1700.43
 468  1740.388
 469  1327.754
 470  1518.205
 471  1594.777
 472  1337.711
 473  1650.118
 474  1818.255
 475  1369.473
 476  1187.339
 477  1710.747
 478  1615.592
 479  1505.418
 480  1624.546
 481  1452.509
 482  1496.634
 483  1312.925
 484  1350.125
 485  1502.456
 486  1492.885
 487  1104.251
 488  1221.515
 489  1806.222
 490  1305.702
 491  1796.878
 492  1685.379
 493  1442.253
 494  1441.265
 495  1181.438
 496  1378.289
 497  1708.755
 498  1773.033
 499  1469.124
 500  1311.936
 501  1448.984
 502  1700.109
 503  1681.252
 504  1988.663
 505  1449.937
 506  1386.099
 507  1156.321
 508  1376.436
 509  1626.32
 510  1759.196
 511  1506.072
