# Input file       =  1201979202.113353_cleaned.dat
# Candidate        =  PSR_0332+5434
# Telescope        =  AR
# Epoch_topo       =  58155.796540663810
# Epoch_bary       =  N/A
# T_sample         =  0.002
# Data Folded      =  7340032
# Data Avg         =  0.118442377896697
# Data StdDev      =  3.89600899543078 
# Profile Bins     =  1024
# Profile Avg      =  849.084879272683 
# Profile StdDev   =  329.851869042574 
# Reduced chi-sqr  =  0.827
# Prob(Noise)      <  1   (~0.0 sigma)
# P_topo (ms)      =  714.578352797686  +/- 0.000191
# P'_topo (s/s)    =  -0                +/- 1.01e-10
# P''_topo (s/s^2) =  0                 +/- 4.45e-14
# P_bary (ms)      =  N/A
# P'_bary (s/s)    =  N/A
# P''_bary (s/s^2) =  N/A
# P_orb (s)        =  N/A
# asin(i)/c (s)    =  N/A
# eccentricity     =  N/A
# w (rad)          =  N/A
# T_peri           =  N/A
######################################################
   0  880.5704
   1  999.4886
   2  1042.729
   3  1048.47
   4  865.3863
   5  811.2319
   6  798.6567
   7  876.1188
   8  860.3473
   9  875.8306
  10  768.3615
  11  828.5685
  12  656.7772
  13  583.7758
  14  561.4742
  15  661.5171
  16  826.3521
  17  880.2009
  18  943.8896
  19  871.2983
  20  745.2571
  21  715.1767
  22  760.1577
  23  719.5092
  24  484.1619
  25  544.175
  26  713.2315
  27  839.283
  28  807.1812
  29  713.1592
  30  738.1168
  31  713.0842
  32  694.6484
  33  719.9568
  34  756.4023
  35  843.7991
  36  808.8878
  37  854.771
  38  854.7818
  39  876.2819
  40  856.7214
  41  847.9304
  42  740.639
  43  636.9659
  44  611.6276
  45  631.8807
  46  695.3938
  47  662.0679
  48  695.1251
  49  679.9288
  50  769.7722
  51  770.6858
  52  777.4114
  53  695.3289
  54  709.0342
  55  806.4132
  56  798.8044
  57  854.399
  58  781.8278
  59  804.9656
  60  719.9194
  61  609.4134
  62  542.6604
  63  635.7969
  64  727.4791
  65  871.5229
  66  968.4012
  67  1093.783
  68  987.2349
  69  800.0592
  70  638.472
  71  613.6953
  72  626.9884
  73  721.241
  74  869.1876
  75  960.3021
  76  894.3919
  77  828.2289
  78  894.9317
  79  1027.995
  80  967.6952
  81  820.893
  82  804.0886
  83  835.3844
  84  915.4034
  85  900.14
  86  836.3885
  87  784.1958
  88  767.8469
  89  746.1472
  90  742.9009
  91  743.1071
  92  832.0352
  93  810.5464
  94  823.311
  95  959.5684
  96  941.6279
  97  993.6659
  98  929.2717
  99  940.8288
 100  793.6459
 101  786.2277
 102  736.9645
 103  903.7521
 104  876.7484
 105  978.5422
 106  785.1092
 107  697.9376
 108  600.6922
 109  633.798
 110  616.9216
 111  633.6304
 112  698.8365
 113  850.3301
 114  859.658
 115  768.7139
 116  724.1387
 117  840.5961
 118  917.7188
 119  843.4822
 120  798.7104
 121  759.788
 122  756.3825
 123  804.674
 124  751.5378
 125  764.7402
 126  848.7309
 127  1028.726
 128  1017.823
 129  856.6972
 130  658.3524
 131  623.1721
 132  597.6068
 133  676.4565
 134  658.194
 135  693.3192
 136  716.0837
 137  786.8395
 138  864.2933
 139  930.3517
 140  940.4095
 141  975.3872
 142  897.9224
 143  766.1094
 144  786.4607
 145  948.3696
 146  1135.591
 147  973.382
 148  840.092
 149  818.8326
 150  945.7842
 151  949.6146
 152  953.5974
 153  805.2609
 154  877.6842
 155  789.0105
 156  727.5374
 157  676.8049
 158  649.7974
 159  749.0906
 160  728.6072
 161  791.2158
 162  789.0182
 163  671.3226
 164  606.9333
 165  629.9651
 166  762.6534
 167  861.2457
 168  823.5521
 169  810.5502
 170  774.3929
 171  776.0155
 172  827.8521
 173  772.4187
 174  858.2991
 175  793.1492
 176  855.284
 177  775.0905
 178  773.8077
 179  783.2544
 180  814.8776
 181  916.3146
 182  801.2484
 183  683.6234
 184  636.881
 185  650.629
 186  681.9498
 187  535.8066
 188  580.9208
 189  758.1168
 190  855.1905
 191  790.6678
 192  731.4148
 193  848.2861
 194  787.9796
 195  673.9503
 196  622.42
 197  703.9432
 198  766.4644
 199  745.6809
 200  691.2026
 201  776.9096
 202  773.2958
 203  660.9891
 204  510.518
 205  503.1535
 206  571.5471
 207  685.5999
 208  704.7584
 209  699.6145
 210  547.1527
 211  695.6129
 212  786.9337
 213  809.9576
 214  755.5757
 215  682.5825
 216  715.071
 217  814.9831
 218  919.5693
 219  844.7928
 220  697.6051
 221  710.2789
 222  779.6976
 223  729.8525
 224  736.6661
 225  694.4644
 226  859.1721
 227  876.4822
 228  863.3096
 229  794.2195
 230  826.7685
 231  817.6904
 232  799.7217
 233  786.6886
 234  858.111
 235  847.7717
 236  801.4105
 237  744.5122
 238  825.5762
 239  873.8741
 240  780.6941
 241  711.5245
 242  733.088
 243  898.3549
 244  924.1252
 245  869.3101
 246  792.092
 247  723.8228
 248  642.4599
 249  636.7305
 250  701.6483
 251  717.244
 252  669.8262
 253  630.7092
 254  709.8611
 255  720.0957
 256  808.0289
 257  783.5989
 258  800.1741
 259  794.7401
 260  782.3711
 261  801.5312
 262  753.213
 263  656.453
 264  514.0372
 265  448.8117
 266  454.5764
 267  587.9564
 268  662.7304
 269  644.6196
 270  624.4091
 271  633.3195
 272  548.7159
 273  598.353
 274  726.2443
 275  940.4319
 276  850.7402
 277  848.6173
 278  719.7361
 279  614.3069
 280  571.7695
 281  586.1523
 282  706.5558
 283  788.7514
 284  875.5038
 285  857.2655
 286  848.1445
 287  906.2246
 288  853.0563
 289  821.3
 290  637.3829
 291  620.5851
 292  572.0201
 293  645.6043
 294  759.7751
 295  802.0178
 296  723.1826
 297  588.8165
 298  574.4353
 299  771.9021
 300  931.9913
 301  965.008
 302  953.0914
 303  900.5648
 304  852.4428
 305  740.1332
 306  676.0612
 307  534.6177
 308  583.6468
 309  580.003
 310  751.5438
 311  803.3941
 312  846.0162
 313  836.1958
 314  784.3157
 315  698.7294
 316  592.7136
 317  509.419
 318  531.629
 319  463.3575
 320  399.5913
 321  336.7703
 322  377.3914
 323  474.6866
 324  658.6854
 325  687.2164
 326  620.7005
 327  649.061
 328  595.0018
 329  641.2939
 330  595.6534
 331  633.5427
 332  611.619
 333  676.2449
 334  703.2174
 335  660.6503
 336  666.5968
 337  810.6837
 338  794.0121
 339  721.9929
 340  637.6118
 341  681.9233
 342  742.8069
 343  751.0157
 344  781.2695
 345  791.8682
 346  753.9371
 347  703.0238
 348  614.0532
 349  588.7302
 350  565.0308
 351  618.4542
 352  599.6342
 353  659.327
 354  659.9205
 355  724.7526
 356  753.2848
 357  751.5317
 358  702.2486
 359  761.5391
 360  856.7399
 361  816.9017
 362  811.344
 363  883.2279
 364  851.5868
 365  756.3222
 366  687.0111
 367  787.5111
 368  722.0321
 369  796.7919
 370  881.1901
 371  952.0032
 372  852.5172
 373  857.1059
 374  921.582
 375  892.6102
 376  803.1368
 377  849.2947
 378  989.2897
 379  999.6028
 380  966.5223
 381  920.5051
 382  996.0616
 383  1022.186
 384  949.5747
 385  738.0115
 386  740.5111
 387  868.8128
 388  988.2669
 389  885.8737
 390  859.2062
 391  934.4296
 392  994.4799
 393  860.6093
 394  799.5016
 395  773.345
 396  866.0913
 397  865.5076
 398  800.2948
 399  840.442
 400  953.9827
 401  1073.693
 402  1027.933
 403  924.4358
 404  865.4937
 405  896.0199
 406  805.9084
 407  763.6881
 408  766.8827
 409  824.1379
 410  826.3326
 411  752.2618
 412  784.8438
 413  766.5459
 414  802.1812
 415  808.1132
 416  857.2285
 417  852.9662
 418  824.4908
 419  794.5046
 420  854.5933
 421  803.6332
 422  694.6431
 423  795.6113
 424  978.329
 425  1111.78
 426  1027.77
 427  850.162
 428  828.9575
 429  861.3171
 430  780.4124
 431  769.4031
 432  698.7789
 433  830.9677
 434  869.7391
 435  1067.378
 436  1087.141
 437  1028.279
 438  869.6546
 439  862.814
 440  816.2664
 441  851.0869
 442  787.3908
 443  788.7046
 444  738.8589
 445  781.4969
 446  786.6741
 447  877.0515
 448  790.914
 449  797.0594
 450  765.6808
 451  880.5093
 452  971.0459
 453  932.9832
 454  716.7507
 455  548.1302
 456  590.0502
 457  753.5694
 458  858.3378
 459  894.6749
 460  888.6845
 461  927.7649
 462  953.8682
 463  934.1134
 464  837.3828
 465  834.3315
 466  963.6274
 467  1076.24
 468  1194.12
 469  1034.704
 470  918.8433
 471  814.0134
 472  833.4569
 473  843.3723
 474  785.829
 475  825.6981
 476  897.452
 477  1001.38
 478  967.6832
 479  940.6465
 480  871.9348
 481  959.4874
 482  965.5541
 483  929.5999
 484  846.7139
 485  944.4327
 486  986.8284
 487  937.576
 488  896.9391
 489  861.1522
 490  919.0184
 491  986.4568
 492  967.8908
 493  908.7399
 494  831.822
 495  871.8625
 496  891.2157
 497  839.0427
 498  851.3295
 499  994.2917
 500  1009.037
 501  959.4019
 502  772.7896
 503  825.5458
 504  823.3636
 505  714.8894
 506  771.673
 507  863.0013
 508  936.5292
 509  854.2958
 510  774.2803
 511  806.2517
 512  931.4572
 513  1009.237
 514  1025.764
 515  877.6074
 516  870.1724
 517  892.1168
 518  1030.878
 519  1010.586
 520  815.0646
 521  617.0638
 522  545.55
 523  661.1788
 524  661.5552
 525  789.4119
 526  765.5418
 527  804.3234
 528  867.9315
 529  870.0471
 530  859.1124
 531  896.0735
 532  860.2527
 533  817.8868
 534  786.3869
 535  813.8204
 536  754.7151
 537  737.9448
 538  782.916
 539  783.1729
 540  807.0279
 541  865.6523
 542  847.0287
 543  820.8408
 544  773.6736
 545  809.9685
 546  935.5791
 547  1035.753
 548  976.2869
 549  814.1289
 550  709.1664
 551  645.5012
 552  715.2063
 553  808.3063
 554  809.2162
 555  761.7723
 556  833.7203
 557  767.8295
 558  792.9794
 559  787.0875
 560  924.5178
 561  781.0182
 562  724.8273
 563  741.3668
 564  756.419
 565  748.088
 566  875.7671
 567  994.7653
 568  959.4818
 569  882.7502
 570  845.8846
 571  926.2574
 572  912.2094
 573  1071.382
 574  1005.045
 575  992.0236
 576  907.3522
 577  979.8686
 578  982.7953
 579  851.5457
 580  716.8664
 581  738.6408
 582  858.3972
 583  845.5345
 584  891.11
 585  1032.37
 586  1209.18
 587  1252.495
 588  1236.497
 589  1160.393
 590  1003.212
 591  906.0591
 592  781.1887
 593  755.7845
 594  784.7822
 595  910.3451
 596  1039.115
 597  1215.418
 598  1290.535
 599  1296.873
 600  1342.435
 601  1187.868
 602  1174.157
 603  1087.475
 604  1135.749
 605  979.916
 606  943.2319
 607  953.2695
 608  1159.208
 609  1366.256
 610  1592.132
 611  1682.228
 612  1691.45
 613  1749.873
 614  1897.29
 615  1778.768
 616  1549.043
 617  1429.599
 618  1419.536
 619  1420.725
 620  1113.401
 621  885.2928
 622  746.1962
 623  794.4036
 624  830.532
 625  935.2578
 626  1007.62
 627  1029.239
 628  1036.635
 629  927.495
 630  919.2548
 631  876.2698
 632  958.0239
 633  1020.326
 634  1016.635
 635  989.7347
 636  930.9301
 637  879.8639
 638  955.6559
 639  1029.717
 640  1036.886
 641  1099.147
 642  1151.953
 643  1225.378
 644  1052.604
 645  982.2421
 646  934.7494
 647  998.024
 648  970.7332
 649  861.5032
 650  851.7451
 651  983.3782
 652  964.7764
 653  909.0056
 654  806.4072
 655  893.4025
 656  1026.845
 657  1190.813
 658  1130.972
 659  1095.431
 660  1099.995
 661  1056.004
 662  1016.367
 663  949.8917
 664  1016.557
 665  906.5325
 666  865.0678
 667  964.3607
 668  1178.898
 669  1250.775
 670  1112.865
 671  1015.87
 672  876.8268
 673  856.553
 674  857.046
 675  910.8182
 676  896.5592
 677  891.8452
 678  941.1781
 679  868.8494
 680  780.9463
 681  730.6974
 682  833.7728
 683  848.6058
 684  792.8818
 685  747.7386
 686  717.1038
 687  725.9805
 688  753.1669
 689  836.9263
 690  873.1459
 691  937.7088
 692  1030.76
 693  967.7042
 694  820.4401
 695  765.9551
 696  861.3893
 697  969.2893
 698  915.8044
 699  926.6678
 700  925.8961
 701  919.2211
 702  814.0288
 703  697.6864
 704  738.7339
 705  708.4539
 706  807.1451
 707  800.71
 708  982.8014
 709  986.0757
 710  1040.169
 711  969.7687
 712  928.8724
 713  949.6885
 714  914.7396
 715  932.2664
 716  872.1771
 717  894.5702
 718  898.8921
 719  931.7952
 720  1013.827
 721  1105.204
 722  1131.412
 723  965.316
 724  976.3068
 725  970.1941
 726  977.8274
 727  838.8197
 728  790.3695
 729  973.9247
 730  1010.171
 731  1089.751
 732  1132.417
 733  1193.967
 734  1203.099
 735  1136.299
 736  1198.515
 737  1139.501
 738  1097.939
 739  1013.61
 740  1008.403
 741  996.423
 742  940.0647
 743  1027.813
 744  974.2733
 745  1103.028
 746  975.6246
 747  972.304
 748  912.1298
 749  968.9764
 750  1036.337
 751  1025.229
 752  1058.857
 753  920.5266
 754  962.3515
 755  1022.979
 756  1110.576
 757  1104.525
 758  1097.824
 759  1039.125
 760  1076.455
 761  1113.172
 762  1081.256
 763  953.4653
 764  843.0586
 765  834.5503
 766  808.1221
 767  810.4903
 768  880.6585
 769  949.6078
 770  969.2001
 771  949.7178
 772  901.0229
 773  892.0419
 774  897.4885
 775  941.3257
 776  953.4838
 777  968.367
 778  837.2847
 779  664.8767
 780  589.4273
 781  622.0838
 782  740.7145
 783  798.0532
 784  772.9674
 785  688.7902
 786  709.669
 787  791.5546
 788  842.7695
 789  863.8704
 790  921.5165
 791  889.4824
 792  810.7939
 793  727.6249
 794  734.4404
 795  734.3341
 796  755.8174
 797  757.9434
 798  893.3641
 799  931.5815
 800  1006.124
 801  998.7898
 802  1018.411
 803  939.9405
 804  926.6865
 805  921.8719
 806  883.4191
 807  851.0167
 808  925.7637
 809  840.0433
 810  825.4236
 811  716.0407
 812  812.8109
 813  879.1164
 814  958.0616
 815  929.8022
 816  915.8788
 817  917.7534
 818  900.6093
 819  904.9748
 820  782.6972
 821  841.6774
 822  880.3168
 823  877.5231
 824  777.1223
 825  851.2915
 826  1037.237
 827  1047.595
 828  885.795
 829  804.4417
 830  768.6798
 831  802.9319
 832  801.4155
 833  860.1107
 834  867.578
 835  748.9404
 836  822.8505
 837  940.1926
 838  1064.95
 839  1033.141
 840  1016.591
 841  954.1339
 842  867.5519
 843  846.3807
 844  859.3469
 845  953.075
 846  955.4332
 847  1024.865
 848  961.2603
 849  780.7872
 850  603.4857
 851  586.8735
 852  621.0128
 853  714.7746
 854  741.81
 855  746.6581
 856  784.9401
 857  745.055
 858  801.2455
 859  706.2579
 860  783.2466
 861  944.3317
 862  1029.477
 863  784.1946
 864  733.1689
 865  709.7141
 866  795.0039
 867  742.945
 868  807.1406
 869  897.487
 870  955.2559
 871  910.5042
 872  816.7571
 873  674.5786
 874  636.015
 875  728.9511
 876  784.6486
 877  904.9317
 878  888.3952
 879  902.38
 880  897.8585
 881  983.1721
 882  940.292
 883  860.1537
 884  809.2227
 885  823.772
 886  742.8639
 887  660.2035
 888  736.1885
 889  895.1422
 890  1001.529
 891  999.1583
 892  837.27
 893  693.2786
 894  559.738
 895  649.5941
 896  739.8753
 897  850.2663
 898  822.5786
 899  856.601
 900  871.2338
 901  960.1473
 902  922.5364
 903  882.0215
 904  906.4755
 905  908.5954
 906  720.122
 907  669.0457
 908  614.4186
 909  818.5744
 910  961.8971
 911  1160.492
 912  1011.208
 913  940.2669
 914  967.8053
 915  1221.391
 916  1243.294
 917  1199.972
 918  1069.776
 919  958.9659
 920  974.2523
 921  999.2443
 922  943.3032
 923  873.5967
 924  951.6024
 925  1107.244
 926  1156.693
 927  1117.874
 928  1180.677
 929  1208.198
 930  1280.957
 931  1274.109
 932  1224.693
 933  1072.971
 934  1031.19
 935  941.3245
 936  936.3569
 937  938.3341
 938  845.8785
 939  831.8907
 940  777.5084
 941  773.7673
 942  730.6024
 943  925.7785
 944  1182.202
 945  1208.729
 946  1119.165
 947  945.2267
 948  847.084
 949  911.745
 950  1005.159
 951  1010.578
 952  934.0616
 953  955.4635
 954  975.665
 955  1038.311
 956  966.0974
 957  889.9115
 958  853.1236
 959  867.1599
 960  805.4542
 961  688.2169
 962  605.2155
 963  579.8451
 964  679.2811
 965  828.3549
 966  887.2039
 967  901.9953
 968  835.1981
 969  847.9749
 970  853.446
 971  818.1949
 972  778.828
 973  703.8309
 974  812.2959
 975  902.5497
 976  943.9253
 977  911.1635
 978  819.8248
 979  794.6041
 980  778.8951
 981  856.7656
 982  879.8859
 983  912.6063
 984  847.2149
 985  839.3585
 986  754.1177
 987  714.1132
 988  617.7236
 989  614.1327
 990  672.5394
 991  753.9281
 992  870.7629
 993  818.6721
 994  783.4614
 995  715.0811
 996  889.568
 997  866.1091
 998  820.5434
 999  678.1565
1000  661.794
1001  565.6879
1002  572.1086
1003  636.2575
1004  735.8044
1005  767.9955
1006  752.3429
1007  683.6964
1008  742.6859
1009  727.8892
1010  649.1998
1011  560.7161
1012  634.0593
1013  846.518
1014  902.2017
1015  953.1066
1016  928.5227
1017  807.676
1018  752.8668
1019  624.4446
1020  688.9789
1021  707.2966
1022  832.809
1023  886.2144
