# Input file       =  1201878730.107112_cleaned.dat
# Candidate        =  PSR_0332+5434
# Telescope        =  AR
# Epoch_topo       =  58154.633670221199
# Epoch_bary       =  N/A
# T_sample         =  0.002
# Data Folded      =  7340032
# Data Avg         =  0.121998362719231
# Data StdDev      =  4.45613222664484 
# Profile Bins     =  512
# Profile Avg      =  1749.01102931233 
# Profile StdDev   =  533.546241992546 
# Reduced chi-sqr  =  0.877
# Prob(Noise)      <  0.979   (~0.0 sigma)
# P_topo (ms)      =  714.577645263037  +/- 0.000635
# P'_topo (s/s)    =  -0                +/- 3.35e-10
# P''_topo (s/s^2) =  0                 +/- 1.48e-13
# P_bary (ms)      =  N/A
# P'_bary (s/s)    =  N/A
# P''_bary (s/s^2) =  N/A
# P_orb (s)        =  N/A
# asin(i)/c (s)    =  N/A
# eccentricity     =  N/A
# w (rad)          =  N/A
# T_peri           =  N/A
######################################################
   0  1360.494
   1  1689.247
   2  1867.437
   3  1401.365
   4  1729.691
   5  1890.041
   6  1738.302
   7  1296.669
   8  1815.142
   9  1862.372
  10  1442.556
  11  1491.322
  12  1487.52
  13  1385.453
  14  1096.495
  15  898.6189
  16  1238.076
  17  1299.867
  18  1421.008
  19  1593.696
  20  1415.919
  21  1100.323
  22  1164.143
  23  1441.216
  24  1435.205
  25  978.3123
  26  849.1519
  27  1486.959
  28  1588.287
  29  1467.022
  30  1415.515
  31  1673.269
  32  1502.579
  33  1578.411
  34  1651.572
  35  1882.059
  36  2458.365
  37  2721.306
  38  2844.318
  39  2715.762
  40  2887.57
  41  3357.922
  42  2951.033
  43  1839.782
  44  1624.198
  45  1644.387
  46  1892.63
  47  1875.488
  48  1945.677
  49  1690.441
  50  1404.53
  51  1498.974
  52  1417.715
  53  1740.411
  54  1928.287
  55  1826.222
  56  1634.35
  57  1284.826
  58  1472.953
  59  1639.961
  60  1983.416
  61  2209.022
  62  2247.97
  63  2105.189
  64  2102.693
  65  1990.612
  66  1816.154
  67  1912.898
  68  2124.968
  69  1497.139
  70  1389.025
  71  1433.102
  72  1471.244
  73  1624.867
  74  1695.841
  75  1850.321
  76  1889.376
  77  1597.942
  78  1575.302
  79  1346.612
  80  1856.482
  81  2069.232
  82  2117.115
  83  2107.332
  84  1607.652
  85  1892.455
  86  1956.558
  87  2179.425
  88  2335.174
  89  2097.488
  90  2121.051
  91  2047.27
  92  2017.425
  93  2066.154
  94  2166.338
  95  1978.634
  96  1964.932
  97  1949.924
  98  2000.255
  99  1895.246
 100  1779.157
 101  1858.757
 102  2251.483
 103  2278.467
 104  2066.975
 105  1475.747
 106  1853.045
 107  1649.108
 108  1920.895
 109  1966.241
 110  1931.385
 111  2127.73
 112  2001.065
 113  2005.697
 114  1723.718
 115  1878.639
 116  2221.005
 117  2645.408
 118  2432.957
 119  1814.223
 120  1692.35
 121  1806.092
 122  1798.473
 123  1947.606
 124  2037.078
 125  2026.994
 126  1723.278
 127  1983.154
 128  2032.794
 129  2403.589
 130  2253.126
 131  1942.65
 132  1774.185
 133  1859.808
 134  2182.227
 135  2194.473
 136  2126.175
 137  2415.159
 138  2264.574
 139  1745.898
 140  1862.215
 141  2117.506
 142  1981.596
 143  1808.063
 144  1789.87
 145  2222.137
 146  2070.487
 147  1817.219
 148  1640.375
 149  1707.833
 150  1864.067
 151  2025.255
 152  1993.083
 153  1730.106
 154  1671.396
 155  1791.329
 156  1848.795
 157  1388.851
 158  1510.461
 159  1837.676
 160  1914.351
 161  2069.655
 162  2146.756
 163  2018.099
 164  1986.676
 165  1731.783
 166  2239.68
 167  2250.503
 168  2117.138
 169  2022.166
 170  1853.548
 171  1821.654
 172  2171.149
 173  2005.131
 174  2028.545
 175  1792.436
 176  2157.073
 177  2381.109
 178  2391.105
 179  2313.281
 180  2031.037
 181  2080.462
 182  2220.884
 183  2450.459
 184  2370.317
 185  2361.4
 186  2292.963
 187  2116.895
 188  1987.915
 189  2107.823
 190  2143.879
 191  1974.307
 192  1902.872
 193  2124.962
 194  2008.181
 195  1645.918
 196  2039.706
 197  2329.351
 198  2227.856
 199  2247.679
 200  1850.147
 201  2186.214
 202  2207.252
 203  2361.889
 204  2276.805
 205  1899.482
 206  1896.154
 207  1569.326
 208  1339.514
 209  1679.972
 210  1394.187
 211  1096.193
 212  1172.278
 213  1489.257
 214  1514.863
 215  1692.426
 216  1994.827
 217  2015.434
 218  1686.141
 219  1369.273
 220  1621.594
 221  1439.134
 222  1894.668
 223  1785.529
 224  1696.907
 225  1569.5
 226  1148.667
 227  1078.922
 228  1074.319
 229  1145.969
 230  1233.051
 231  1578.426
 232  1273.448
 233  1395.605
 234  1516.769
 235  1884.212
 236  1853.824
 237  1674.274
 238  1698.056
 239  2055.2
 240  1913.072
 241  2023.917
 242  2149.623
 243  2008.961
 244  1786.121
 245  1538.312
 246  1682.734
 247  1778.346
 248  1833.295
 249  1887.378
 250  1712.802
 251  1502.392
 252  1572.049
 253  1826.623
 254  1772.434
 255  1921.613
 256  1909.647
 257  1502.727
 258  1398.648
 259  1364.6
 260  1544.406
 261  1801.235
 262  2032.914
 263  2148.267
 264  2035.766
 265  2189.995
 266  2020.388
 267  1858.912
 268  1348.24
 269  1459.155
 270  1454.603
 271  1539.589
 272  1754.468
 273  1767.295
 274  1647.756
 275  1731.583
 276  1767.995
 277  1648.662
 278  1447.241
 279  1138.869
 280  1663.404
 281  1494.007
 282  1533.661
 283  1748.746
 284  1367.066
 285  1423.616
 286  1099.101
 287  1162.97
 288  1693.705
 289  1409.436
 290  1128.154
 291  1190.641
 292  1323.771
 293  1235.113
 294  1158.634
 295  1361.535
 296  1581.012
 297  1349.143
 298  1254.105
 299  1171.59
 300  802.6738
 301  1344.694
 302  1306.936
 303  1172.194
 304  944.6125
 305  1090.227
 306  1241.861
 307  1336.486
 308  1538.079
 309  1449.858
 310  567.5219
 311  806.8696
 312  1303.512
 313  1299.78
 314  1249.054
 315  1167.389
 316  1115.993
 317  1178.585
 318  1082.312
 319  1287.188
 320  1520.277
 321  1629.155
 322  1902.255
 323  1878.978
 324  1745.333
 325  1639.678
 326  1767.248
 327  1980.364
 328  2069.13
 329  1654.402
 330  1774.327
 331  1936.395
 332  1717.373
 333  1993.106
 334  1805.747
 335  1719.835
 336  1536.349
 337  1659.857
 338  2043.066
 339  1910.801
 340  1687.005
 341  1734.483
 342  1909.883
 343  1735
 344  2049.545
 345  1985.236
 346  1728.741
 347  1263.646
 348  1384.475
 349  1687.191
 350  1254.721
 351  1661.781
 352  1858.597
 353  1817.192
 354  1759.825
 355  1718.935
 356  1814.514
 357  1789.178
 358  1725.19
 359  1992.394
 360  2371.455
 361  2156.878
 362  1885.198
 363  1816.067
 364  1510.466
 365  1340.782
 366  1371.311
 367  2527.104
 368  2268.36
 369  1834.479
 370  1910.522
 371  1887.495
 372  1787.15
 373  1856.196
 374  2301.258
 375  2350.603
 376  2232.071
 377  2011.99
 378  2129.241
 379  2008.65
 380  2079.499
 381  2185.739
 382  2136.055
 383  1875.414
 384  1798.851
 385  1681.403
 386  1502.862
 387  1745.203
 388  2131.96
 389  1465.471
 390  1181.641
 391  1571.584
 392  2147.234
 393  1432.595
 394  1575.376
 395  1174.272
 396  1165.419
 397  1202.094
 398  1812.482
 399  2025.203
 400  1540.727
 401  1254.491
 402  1541.428
 403  1929.877
 404  1741.366
 405  1689.411
 406  1929.241
 407  1768.798
 408  1620.643
 409  1581.328
 410  1707.541
 411  1713.149
 412  1377.964
 413  1330.044
 414  1437.861
 415  1624.091
 416  1758.165
 417  1481.05
 418  1145.325
 419  1250.444
 420  1215.545
 421  1125.775
 422  817.8632
 423  1323.271
 424  1511.627
 425  1471.055
 426  1262.503
 427  1332.745
 428  1920.244
 429  1347.567
 430  1176.272
 431  1637.553
 432  1815.93
 433  1747.014
 434  1758.876
 435  1855.956
 436  1766.534
 437  1734.117
 438  2144.265
 439  2073.521
 440  1690.504
 441  1598.612
 442  2321.881
 443  2328.921
 444  2229.22
 445  2322.873
 446  2216.628
 447  2025.141
 448  1962.283
 449  1911.731
 450  1757.755
 451  1704.777
 452  1684.716
 453  1611.221
 454  1523.062
 455  1695.252
 456  1775.742
 457  1867.999
 458  1306.08
 459  1362.27
 460  1544.964
 461  1570.623
 462  1773.34
 463  1830.845
 464  1693.288
 465  2027.341
 466  1825.402
 467  1854.382
 468  2107.291
 469  2076.043
 470  1532.847
 471  1292.014
 472  1349.378
 473  1497.472
 474  1942.422
 475  2073.598
 476  1728.071
 477  1815.254
 478  1890.889
 479  1578.205
 480  1457.548
 481  1511.284
 482  1377.571
 483  1363.662
 484  2151.822
 485  2238.468
 486  1654.764
 487  2073.215
 488  1844.317
 489  1997.489
 490  1665.616
 491  1826.917
 492  1792.409
 493  1286.877
 494  1854.879
 495  1859.115
 496  1403.019
 497  1066.151
 498  1559.777
 499  1696.417
 500  1442.817
 501  1143.368
 502  1644.084
 503  2126.064
 504  2066.116
 505  1797.707
 506  1705.91
 507  1610.353
 508  1769.216
 509  1904.846
 510  1476.228
 511  1439.012
