# Input file       =  1201260330.103407_cleaned.dat
# Candidate        =  PSR_0332+5434
# Telescope        =  AR
# Epoch_topo       =  58147.476262770913
# Epoch_bary       =  N/A
# T_sample         =  0.002
# Data Folded      =  7143424
# Data Avg         =  0.122741093633722
# Data StdDev      =  3.72635815136273 
# Profile Bins     =  1024
# Profile Avg      =  856.206909869798 
# Profile StdDev   =  311.234570097634 
# Reduced chi-sqr  =  2.392
# Prob(Noise)      <  4.04e-118   (~23.1 sigma)
# P_topo (ms)      =  714.574798757518  +/- 1.64e-05
# P'_topo (s/s)    =  -0                +/- 8.91e-12
# P''_topo (s/s^2) =  0                 +/- 4.04e-15
# P_bary (ms)      =  N/A
# P'_bary (s/s)    =  N/A
# P''_bary (s/s^2) =  N/A
# P_orb (s)        =  N/A
# asin(i)/c (s)    =  N/A
# eccentricity     =  N/A
# w (rad)          =  N/A
# T_peri           =  N/A
######################################################
   0  1138.548
   1  1066.588
   2  853.295
   3  693.3826
   4  614.0964
   5  569.1275
   6  600.2292
   7  554.1782
   8  486.3371
   9  533.0418
  10  563.5073
  11  695.7162
  12  721.9419
  13  892.6135
  14  1116.147
  15  1263.312
  16  1188.598
  17  1123.236
  18  983.8698
  19  888.074
  20  773.2551
  21  611.0405
  22  564.9628
  23  516.8333
  24  716.7382
  25  753.7387
  26  703.8828
  27  638.1222
  28  506.6696
  29  791.0551
  30  977.4302
  31  1069.962
  32  998.1717
  33  965.6463
  34  961.6614
  35  834.5156
  36  766.8865
  37  666.4275
  38  642.8085
  39  567.6797
  40  543.1381
  41  503.4942
  42  474.4531
  43  551.8143
  44  751.2693
  45  869.0767
  46  923.5115
  47  1142.908
  48  1320.174
  49  1333.797
  50  1325.822
  51  1171.522
  52  1098.981
  53  799.8059
  54  612.9049
  55  494.7402
  56  487.2002
  57  746.2458
  58  929.6588
  59  1092.584
  60  903.791
  61  721.921
  62  738.4503
  63  734.3373
  64  854.4611
  65  986.803
  66  861.4982
  67  849.1038
  68  864.7833
  69  900.0971
  70  831.855
  71  564.662
  72  532.6485
  73  436.5168
  74  562.6277
  75  580.8439
  76  586.6479
  77  653.0085
  78  796.5551
  79  1030.375
  80  1192.515
  81  1157.621
  82  1244.248
  83  1288.32
  84  1159.058
  85  1146.067
  86  960.9339
  87  860.5864
  88  598.8128
  89  540.2802
  90  626.379
  91  611.8879
  92  818.5981
  93  750.1005
  94  859.4952
  95  720.3329
  96  704.9929
  97  964.3467
  98  1195.874
  99  1255.247
 100  1177.194
 101  976.7479
 102  931.8369
 103  761.6543
 104  626.9617
 105  511.6457
 106  411.0495
 107  493.3217
 108  463.5111
 109  486.3781
 110  473.4776
 111  515.6274
 112  748.0283
 113  991.093
 114  1313.884
 115  1510.061
 116  1490.113
 117  1400.752
 118  1263.381
 119  1002.678
 120  680.2425
 121  495.57
 122  645.4697
 123  764.3763
 124  823.8877
 125  678.8294
 126  578.2213
 127  591.5601
 128  540.9323
 129  752.997
 130  919.1295
 131  984.8815
 132  976.7721
 133  848.9802
 134  701.4846
 135  665.0516
 136  555.527
 137  531.1268
 138  411.0294
 139  505.506
 140  480.4197
 141  606.9776
 142  786.953
 143  918.4722
 144  936.2361
 145  906.3533
 146  1054.258
 147  1289.47
 148  1386.09
 149  1320.289
 150  1256.953
 151  1008.979
 152  745.0419
 153  646.4525
 154  738.8167
 155  814.4122
 156  916.4956
 157  1020.789
 158  997.7077
 159  1009.664
 160  950.3387
 161  886.2538
 162  912.0878
 163  905.7044
 164  1124.844
 165  1089.624
 166  1069.815
 167  893.7445
 168  840.7023
 169  771.9594
 170  707.1404
 171  662.7762
 172  634.3588
 173  699.9185
 174  737.0074
 175  715.7221
 176  705.4672
 177  887.0628
 178  964.4996
 179  958.0505
 180  1104.34
 181  1251.035
 182  1422.809
 183  1243.333
 184  1080.431
 185  933.3293
 186  809.0643
 187  685.6883
 188  593.877
 189  568.0091
 190  591.3859
 191  570.9023
 192  628.1974
 193  590.2655
 194  604.1116
 195  722.2921
 196  893.8915
 197  1123.087
 198  1243.556
 199  1151.639
 200  1130.086
 201  972.2063
 202  797.3072
 203  559.2388
 204  367.2558
 205  319.7593
 206  290.3605
 207  314.7684
 208  381.8532
 209  589.9858
 210  789.9091
 211  784.3349
 212  959.3674
 213  1130.964
 214  1256.031
 215  1327.977
 216  1232.861
 217  1100.278
 218  972.1752
 219  795.2979
 220  618.1191
 221  435.9938
 222  483.0196
 223  582.3463
 224  654.182
 225  682.8489
 226  625.5365
 227  754.319
 228  807.8381
 229  830.3172
 230  1088.247
 231  1073.395
 232  1098.446
 233  976.7863
 234  730.3011
 235  517.0558
 236  333.9659
 237  388.1766
 238  399.5512
 239  463.2017
 240  655.5436
 241  674.6169
 242  673.9991
 243  684.1475
 244  758.2557
 245  1029.919
 246  1177.455
 247  1269.081
 248  1169.538
 249  909.8306
 250  850.2988
 251  702.1281
 252  618.5884
 253  544.2849
 254  681.2261
 255  777.5004
 256  716.5319
 257  588.7483
 258  602.222
 259  711.6743
 260  919.6945
 261  946.6504
 262  1044.011
 263  1050.721
 264  1145.639
 265  1123.781
 266  920.9614
 267  674.0452
 268  590.97
 269  674.3524
 270  641.7355
 271  504.3524
 272  438.632
 273  478.8736
 274  598.31
 275  747.9019
 276  819.1008
 277  921.2111
 278  947.8206
 279  1057.008
 280  1262.216
 281  1266.539
 282  1257.519
 283  1191.508
 284  1119.775
 285  800.8103
 286  788.4555
 287  827.1869
 288  855.5861
 289  790.5815
 290  698.5379
 291  777.1562
 292  831.5729
 293  871.9512
 294  810.9646
 295  912.0545
 296  984.4286
 297  1106.74
 298  1158.999
 299  1013.911
 300  867.9289
 301  678.9463
 302  562.0886
 303  473.8153
 304  493.9256
 305  641.8882
 306  734.8137
 307  844.5273
 308  824.7634
 309  887.3564
 310  1045.717
 311  1150.372
 312  1197.715
 313  1201.892
 314  1136.425
 315  1167.951
 316  1039.91
 317  875.7556
 318  742.3176
 319  453.5025
 320  482.1716
 321  500.7096
 322  753.1067
 323  706.6729
 324  791.1312
 325  800.861
 326  852.1045
 327  794.2599
 328  879.5787
 329  1002.593
 330  1155.769
 331  1151.609
 332  943.5506
 333  771.7978
 334  547.833
 335  491.0654
 336  558.6329
 337  542.1708
 338  530.1846
 339  468.1534
 340  659.2604
 341  609.9686
 342  796.4125
 343  964.2737
 344  1085.94
 345  1164.769
 346  1131.002
 347  1133.671
 348  1210.71
 349  1160.788
 350  1211.665
 351  985.8973
 352  902.6568
 353  751.0148
 354  746.9575
 355  754.9853
 356  712.8063
 357  626.174
 358  588.4151
 359  611.2678
 360  845.7689
 361  929.8256
 362  1089.937
 363  1127.346
 364  975.0825
 365  964.2605
 366  885.9587
 367  751.883
 368  519.5524
 369  462.2674
 370  714.1599
 371  798.9669
 372  820.2522
 373  807.3559
 374  787.6816
 375  738.6931
 376  740.3262
 377  1081.31
 378  1353.929
 379  1427.818
 380  1422.002
 381  1371.018
 382  1178.585
 383  966.7668
 384  867.4034
 385  858.1414
 386  693.0696
 387  642.4269
 388  676.9935
 389  828.57
 390  807.0223
 391  733.0398
 392  688.4269
 393  696.9139
 394  756.7182
 395  1101.155
 396  1192.642
 397  1045.027
 398  1052.796
 399  1035.686
 400  954.7692
 401  709.2878
 402  480.938
 403  489.4389
 404  450.7379
 405  656.6244
 406  689.0791
 407  686.2179
 408  570.4507
 409  621.3855
 410  836.3755
 411  1024.711
 412  1167.707
 413  1329.007
 414  1213.234
 415  1001.773
 416  908.7836
 417  801.1136
 418  710.9214
 419  605.7928
 420  687.1566
 421  730.4423
 422  684.6468
 423  803.325
 424  875.5148
 425  921.8324
 426  832.9607
 427  937.7147
 428  1084.119
 429  1007.902
 430  1010.321
 431  931.4497
 432  734.8938
 433  617.0516
 434  647.0187
 435  620.381
 436  539.6896
 437  523.5261
 438  633.3402
 439  854.2545
 440  874.8463
 441  951.1214
 442  934.4754
 443  1129.572
 444  1219.511
 445  1342.166
 446  1380.378
 447  1312.462
 448  1254.074
 449  1032.309
 450  871.9639
 451  819.2001
 452  802.2666
 453  724.21
 454  657.6165
 455  605.7905
 456  509.8929
 457  566.6063
 458  707.9529
 459  951.2347
 460  1060.596
 461  1047.352
 462  1029.324
 463  1157.249
 464  1009.934
 465  751.5578
 466  616.6279
 467  537.4225
 468  626.7681
 469  574.5853
 470  620.2716
 471  489.6709
 472  455.039
 473  498.2047
 474  675.9323
 475  968.3078
 476  1183.307
 477  1336.062
 478  1473.54
 479  1506.365
 480  1370.62
 481  1166.484
 482  903.0963
 483  822.7353
 484  782.7111
 485  730.9857
 486  606.529
 487  498.1563
 488  760.0134
 489  959.3148
 490  1007.264
 491  754.6536
 492  701.7565
 493  772.4727
 494  909.3129
 495  964.6808
 496  1008.822
 497  834.4081
 498  722.0833
 499  604.5369
 500  582.7759
 501  540.0184
 502  479.2213
 503  670.1946
 504  783.0252
 505  815.8139
 506  775.116
 507  876.8438
 508  1041.724
 509  1035.771
 510  1124.514
 511  1102.779
 512  984.79
 513  1011.885
 514  986.6079
 515  915.7912
 516  704.3354
 517  567.0328
 518  606.9312
 519  695.0062
 520  752.387
 521  702.8451
 522  658.1773
 523  606.2376
 524  600.3989
 525  773.1264
 526  961.8329
 527  999.34
 528  1143.034
 529  991.9736
 530  841.9538
 531  649.4437
 532  531.5565
 533  572.0472
 534  472.5593
 535  473.2966
 536  549.0928
 537  564.9536
 538  603.9627
 539  550.2288
 540  702.5208
 541  890.8328
 542  1161.896
 543  1409.049
 544  1405.551
 545  1295.454
 546  1316.183
 547  1171.154
 548  1097.543
 549  778.3135
 550  731.3995
 551  612.2588
 552  654.6897
 553  675.4774
 554  786.7578
 555  827.7601
 556  687.1381
 557  682.2263
 558  751.0732
 559  955.742
 560  1028.181
 561  1153.736
 562  1234.488
 563  1138.669
 564  990.5976
 565  621.4924
 566  573.7892
 567  508.3432
 568  475.7716
 569  475.6197
 570  443.3597
 571  548.7437
 572  695.5024
 573  906.7815
 574  1084.492
 575  1249.656
 576  1404.585
 577  1489.965
 578  1532.03
 579  1405.549
 580  1275.011
 581  1107.498
 582  886.2882
 583  786.2974
 584  835.5161
 585  981.7803
 586  900.2665
 587  1074.974
 588  983.0311
 589  895.2198
 590  813.058
 591  879.7551
 592  945.4241
 593  977.9319
 594  1027.001
 595  1012.335
 596  1050.009
 597  951.0652
 598  898.1614
 599  705.2219
 600  535.6138
 601  571.1219
 602  671.3059
 603  654.237
 604  634.7739
 605  599.1774
 606  824.3834
 607  1118.054
 608  1418.732
 609  1584.937
 610  1648.924
 611  1847.048
 612  1867.833
 613  1839.785
 614  1743.089
 615  1639.271
 616  1673.445
 617  1602.843
 618  1581.326
 619  1500.039
 620  1460.718
 621  1235.984
 622  1104.877
 623  814.1339
 624  715.8123
 625  638.144
 626  841.5081
 627  1033.602
 628  1161.54
 629  1184.464
 630  1056.905
 631  1010.971
 632  847.8588
 633  645.4794
 634  526.0848
 635  488.7155
 636  526.1288
 637  585.238
 638  622.9031
 639  742.6396
 640  797.5522
 641  1030.343
 642  1094.061
 643  1270.485
 644  1343.395
 645  1320.628
 646  1235.397
 647  1007.956
 648  849.9064
 649  745.2681
 650  717.3903
 651  641.4829
 652  631.4162
 653  708.2914
 654  812.1255
 655  883.6108
 656  849.1263
 657  837.6411
 658  928.5616
 659  976.0963
 660  978.7223
 661  1079.987
 662  845.7814
 663  717.8024
 664  542.4111
 665  576.5579
 666  612.9591
 667  620.4476
 668  703.6193
 669  832.5254
 670  900.6234
 671  960.527
 672  1025.71
 673  1101.446
 674  1083.193
 675  1096.284
 676  1201.957
 677  1148.778
 678  1082.401
 679  1046.441
 680  965.0013
 681  839.0737
 682  626.3011
 683  464.9647
 684  455.8477
 685  696.465
 686  860.8389
 687  1015.151
 688  1007.691
 689  936.7627
 690  939.9312
 691  931.186
 692  1039.824
 693  1053.125
 694  1070.899
 695  925.8721
 696  803.6456
 697  627.0665
 698  448.631
 699  412.6021
 700  442.3626
 701  464.445
 702  645.1644
 703  697.3121
 704  757.3261
 705  813.8784
 706  928.8772
 707  1112.015
 708  1184.301
 709  1232.559
 710  1270.489
 711  1307.36
 712  1333.275
 713  1103.96
 714  910.113
 715  672.8676
 716  527.6841
 717  554.4974
 718  562.2593
 719  605.3395
 720  736.4863
 721  803.3182
 722  843.0705
 723  816.0726
 724  851.7238
 725  973.9659
 726  1092.13
 727  959.0922
 728  874.7271
 729  769.0157
 730  744.9317
 731  660.5922
 732  603.876
 733  459.8179
 734  359.3754
 735  463.5471
 736  620.3137
 737  758.3546
 738  815.5369
 739  919.7429
 740  1050.2
 741  1179.304
 742  1188.833
 743  1196.776
 744  1334.144
 745  1258.495
 746  1097.611
 747  883.1082
 748  895.3671
 749  895.2103
 750  846.8436
 751  774.2299
 752  873.2167
 753  908.7932
 754  815.0463
 755  716.7715
 756  664.1293
 757  687.1192
 758  752.2437
 759  776.0963
 760  880.4904
 761  872.0875
 762  753.3941
 763  612.5476
 764  583.5283
 765  468.7199
 766  325.7411
 767  450.4365
 768  528.6353
 769  638.9584
 770  596.6396
 771  656.885
 772  811.0536
 773  1087.758
 774  1262.578
 775  1261.257
 776  1346.278
 777  1373.743
 778  1287.41
 779  1065.005
 780  994.6127
 781  905.9114
 782  740.2634
 783  644.9531
 784  589.6018
 785  698.3339
 786  506.2416
 787  436.5369
 788  531.9949
 789  608.41
 790  756.4041
 791  875.0578
 792  1058.913
 793  1150.944
 794  1199.122
 795  1111.157
 796  842.5931
 797  556.9046
 798  572.7554
 799  659.1149
 800  642.5998
 801  576.9543
 802  583.869
 803  586.043
 804  529.9826
 805  751.9708
 806  948.8254
 807  1029.061
 808  1216.455
 809  1295.975
 810  1228.954
 811  984.7758
 812  927.9672
 813  808.5358
 814  649.7784
 815  556.9904
 816  734.4246
 817  809.6289
 818  894.2628
 819  877.869
 820  1034.061
 821  923.1248
 822  838.2531
 823  938.8365
 824  1081.818
 825  1234.044
 826  1264.8
 827  1247.9
 828  930.6912
 829  720.887
 830  531.5065
 831  626.3809
 832  650.3072
 833  762.3525
 834  710.7964
 835  782.984
 836  659.1178
 837  707.723
 838  740.1984
 839  873.428
 840  1033.473
 841  1225.07
 842  1317.09
 843  1341.361
 844  1312.472
 845  1195.59
 846  1002.786
 847  874.8327
 848  794.5186
 849  784.3043
 850  817.0346
 851  829.4172
 852  764.9187
 853  706.4191
 854  588.4949
 855  691.2808
 856  864.6683
 857  972.6028
 858  1138.872
 859  1196.398
 860  1111.749
 861  850.322
 862  582.6886
 863  530.5629
 864  549.296
 865  631.8481
 866  535.8837
 867  433.1974
 868  442.1796
 869  556.3994
 870  784.3662
 871  858.3494
 872  975.8675
 873  1216.566
 874  1367.604
 875  1404.615
 876  1360.024
 877  1199.963
 878  1037.761
 879  940.1375
 880  847.4488
 881  659.9095
 882  513.3559
 883  502.6896
 884  500.427
 885  703.852
 886  767.6478
 887  849.6225
 888  803.0717
 889  841.6893
 890  1052.702
 891  1216.844
 892  1204.764
 893  983.826
 894  923.4384
 895  819.1324
 896  704.1794
 897  535.8313
 898  491.7959
 899  494.7677
 900  646.5511
 901  658.299
 902  772.9572
 903  802.1089
 904  840.0062
 905  985.6993
 906  1156.13
 907  1308.53
 908  1337.537
 909  1252.627
 910  1186.201
 911  1029.779
 912  902.2521
 913  763.6962
 914  691.4365
 915  672.9138
 916  684.7438
 917  666.0063
 918  822.5805
 919  736.6734
 920  761.0583
 921  679.6758
 922  798.3707
 923  1009.952
 924  1099.055
 925  960.8272
 926  901.361
 927  849.7528
 928  810.3887
 929  660.9042
 930  482.3126
 931  398.0736
 932  383.8478
 933  471.5651
 934  523.2521
 935  676.6677
 936  765.7108
 937  802.538
 938  989.3182
 939  1173.181
 940  1155.164
 941  1319.651
 942  1277.953
 943  1300.264
 944  1037.243
 945  938.1937
 946  886.3517
 947  774.9868
 948  701.8712
 949  629.0837
 950  715.5826
 951  649.4956
 952  591.3427
 953  712.047
 954  862.4252
 955  982.6197
 956  1121.142
 957  1118.747
 958  1127.841
 959  1190.488
 960  1111.658
 961  930.1135
 962  655.0942
 963  494.1467
 964  401.0034
 965  380.9567
 966  398.7353
 967  452.0974
 968  673.3092
 969  773.8415
 970  886.7831
 971  999.4302
 972  1189.69
 973  1350.275
 974  1443.441
 975  1335.494
 976  1283.092
 977  1095.188
 978  987.9847
 979  815.0798
 980  771.383
 981  698.8884
 982  502.011
 983  615.0063
 984  636.2367
 985  730.7686
 986  666.2574
 987  726.2731
 988  986.1223
 989  1140.17
 990  1209.509
 991  1187.389
 992  1086.444
 993  908.0162
 994  839.4485
 995  756.9399
 996  643.735
 997  509.2847
 998  499.8081
 999  448.9276
1000  427.4751
1001  432.8138
1002  568.6545
1003  811.8898
1004  972.7293
1005  1109.535
1006  1261.615
1007  1158.674
1008  1124.213
1009  1026.854
1010  1040.177
1011  805.7785
1012  624.9454
1013  543.9084
1014  562.5466
1015  664.4614
1016  754.2603
1017  804.215
1018  829.0308
1019  747.1743
1020  834.9033
1021  951.6989
1022  1014.66
1023  1107.898
