# Input file       =  1201017031.099187_cleaned.dat
# Candidate        =  PSR_0332+5434
# Telescope        =  AR
# Epoch_topo       =  58144.660302073920
# Epoch_bary       =  N/A
# T_sample         =  0.002
# Data Folded      =  7340032
# Data Avg         =  0.0851920995160722
# Data StdDev      =  4.25286261382733 
# Profile Bins     =  512
# Profile Avg      =  1221.3650798109  
# Profile StdDev   =  509.208154046776 
# Reduced chi-sqr  =  1.064
# Prob(Noise)      <  0.152   (~1.0 sigma)
# P_topo (ms)      =  714.573493193576  +/- 5.46e-05
# P'_topo (s/s)    =  -0                +/- 2.88e-11
# P''_topo (s/s^2) =  0                 +/- 1.27e-14
# P_bary (ms)      =  N/A
# P'_bary (s/s)    =  N/A
# P''_bary (s/s^2) =  N/A
# P_orb (s)        =  N/A
# asin(i)/c (s)    =  N/A
# eccentricity     =  N/A
# w (rad)          =  N/A
# T_peri           =  N/A
######################################################
   0  462.4852
   1  542.817
   2  330.9533
   3  857.2888
   4  720.843
   5  521.7363
   6  533.2485
   7  329.687
   8  378.0705
   9  444.1682
  10  799.0601
  11  750.8055
  12  792.9223
  13  791.5052
  14  1056.946
  15  915.4855
  16  619.6644
  17  1010.01
  18  1237.614
  19  1237.913
  20  1122.758
  21  1210.599
  22  997.0838
  23  968.755
  24  1036.723
  25  1088.332
  26  1261.129
  27  726.5339
  28  1048.807
  29  1251.064
  30  859.8384
  31  621.9415
  32  745.601
  33  1251.515
  34  1296.432
  35  998.3992
  36  571.9315
  37  958.4612
  38  1209.733
  39  1137.939
  40  1170.251
  41  1456.979
  42  1396.278
  43  1321.262
  44  1415.923
  45  999.22
  46  1083.124
  47  1310.311
  48  1797.757
  49  1658.951
  50  1437.527
  51  1236.309
  52  1235.424
  53  2113.852
  54  1708.011
  55  1381.617
  56  1438.637
  57  1467.358
  58  1588.943
  59  1135.348
  60  885.6686
  61  1066.226
  62  1559.983
  63  1277.351
  64  1572.235
  65  1241.211
  66  1400.688
  67  1394.768
  68  791.8363
  69  724.2538
  70  842.4075
  71  1346.107
  72  1099.552
  73  1034.757
  74  932.1076
  75  724.6869
  76  1065.226
  77  1606.919
  78  1384.594
  79  931.6187
  80  953.071
  81  987.9601
  82  1015.826
  83  1119.225
  84  1100.271
  85  1338.658
  86  1352.066
  87  1496.672
  88  924.623
  89  1079.424
  90  843.5664
  91  1162.307
  92  1729.45
  93  1606.655
  94  1636.758
  95  1617.335
  96  1553.157
  97  1438.988
  98  1393.147
  99  1184.656
 100  1316.834
 101  1380.489
 102  1138.729
 103  1551.696
 104  1780.563
 105  1867.126
 106  1343.45
 107  1188.24
 108  948.2068
 109  1011.457
 110  1354.144
 111  1410.276
 112  1567.072
 113  1176.337
 114  1335.239
 115  1392.551
 116  1119.535
 117  751.8813
 118  898.4326
 119  1296.658
 120  1312.763
 121  1318.486
 122  1066.152
 123  1425.51
 124  1206.589
 125  1438.565
 126  1837.712
 127  1855.405
 128  1784.947
 129  1453.221
 130  1287.16
 131  881.1596
 132  1497.803
 133  1220.401
 134  1204.437
 135  782.3138
 136  773.6019
 137  829.7563
 138  798.8237
 139  1111.855
 140  808.5223
 141  706.1413
 142  550.4067
 143  755.7608
 144  1369.791
 145  1424.248
 146  1005.718
 147  625.5695
 148  978.692
 149  954.5383
 150  943.573
 151  1156.064
 152  1105.69
 153  1320.173
 154  1078.626
 155  1117.422
 156  702.9872
 157  1195.822
 158  1342.752
 159  1000.229
 160  814.7343
 161  555.0988
 162  838.3017
 163  753.9847
 164  674.0685
 165  825.6178
 166  1069.846
 167  1295.05
 168  875.7775
 169  857.9933
 170  542.7274
 171  896.2756
 172  870.0215
 173  1030.429
 174  711.3693
 175  1009.488
 176  927.1259
 177  827.2174
 178  855.5502
 179  576.1796
 180  795.4064
 181  824.2703
 182  821.9003
 183  541.5519
 184  614.2574
 185  646.7336
 186  989.0385
 187  993.9854
 188  627.8618
 189  1091.347
 190  935.3273
 191  1115.665
 192  838.4067
 193  861.4947
 194  710.8478
 195  524.3381
 196  790.3503
 197  972.2174
 198  992.8065
 199  898.2327
 200  1494.215
 201  1537.045
 202  1859.878
 203  1307.696
 204  1422.101
 205  1398.836
 206  1145.337
 207  1379.25
 208  1202.086
 209  1352.817
 210  1248.353
 211  1387.504
 212  1049.654
 213  820.0183
 214  667.2065
 215  805.1447
 216  970.5526
 217  787.503
 218  1285.731
 219  1044.794
 220  1452.275
 221  1194.989
 222  1212.416
 223  1223.804
 224  1099.058
 225  1490.809
 226  1322.699
 227  1297.588
 228  1476.08
 229  1214.323
 230  1258.76
 231  1101.792
 232  1298.369
 233  867.3923
 234  1495.812
 235  1589.746
 236  1407.114
 237  1168.566
 238  913.5533
 239  1100.184
 240  1243.017
 241  1494.815
 242  1495.263
 243  1619.546
 244  1260.544
 245  1486.475
 246  1569.263
 247  1404.105
 248  1327.874
 249  1228.408
 250  1559.036
 251  1460.498
 252  1535.949
 253  1689.957
 254  1718.287
 255  1399.901
 256  1211.216
 257  1795.409
 258  1524.016
 259  1593.209
 260  1705.477
 261  1396.848
 262  1228.915
 263  1594.059
 264  1840.698
 265  1130.269
 266  1320.108
 267  1422.394
 268  1823.914
 269  1678.686
 270  1612.856
 271  1744.487
 272  1599.542
 273  1349.934
 274  1503.713
 275  1746.642
 276  1365.065
 277  1785.437
 278  1472.716
 279  1183.113
 280  1098.58
 281  965.1213
 282  1078.504
 283  1361.017
 284  1570.4
 285  1445.953
 286  1108.568
 287  1010.076
 288  1084.601
 289  999.902
 290  586.4252
 291  1022.211
 292  1036.387
 293  1455.855
 294  973.1891
 295  1186.391
 296  1320.104
 297  1660.196
 298  1401.716
 299  1221.456
 300  1827.529
 301  1757.846
 302  1440.306
 303  941.2281
 304  1004.998
 305  1042.322
 306  1441.485
 307  1154.404
 308  1381.064
 309  1774.132
 310  1758.338
 311  1755.808
 312  1504.528
 313  1348.452
 314  1577.999
 315  1594.99
 316  1650.42
 317  1661.483
 318  2165.882
 319  2162.256
 320  2708.745
 321  2737.875
 322  2769.045
 323  2336.708
 324  2041.682
 325  1877.12
 326  1430.461
 327  1695.101
 328  1277.144
 329  1396.435
 330  1234.207
 331  1274.264
 332  1557.003
 333  1451.148
 334  1656.932
 335  1285.662
 336  1546.801
 337  1223.275
 338  1793.221
 339  2334.83
 340  2116.839
 341  2053.828
 342  1144.417
 343  1415.417
 344  1333.164
 345  1399.33
 346  1495.78
 347  1390.799
 348  1308.116
 349  1235.222
 350  1698.362
 351  1388.227
 352  1730.459
 353  1255.114
 354  1553.406
 355  1067.785
 356  1197.869
 357  806.3859
 358  870.2939
 359  1140.663
 360  1048.066
 361  870.3298
 362  480.1109
 363  1085.832
 364  1136.046
 365  915.6018
 366  884.436
 367  1126.933
 368  1525.772
 369  1208.289
 370  889.3935
 371  480.9593
 372  813.8307
 373  574.6513
 374  549.3669
 375  745.7731
 376  966.5718
 377  771.9374
 378  746.4362
 379  1154.378
 380  1039.258
 381  1065.937
 382  1532.883
 383  1397.385
 384  1481.305
 385  1319.096
 386  1797.602
 387  1633.02
 388  1721.946
 389  1520.894
 390  1590.232
 391  1888.569
 392  1871.604
 393  2114.414
 394  2019.874
 395  2100.775
 396  1633.771
 397  1491.622
 398  1521.161
 399  1273.493
 400  1509.125
 401  1579.036
 402  1597.033
 403  1428.51
 404  1304.456
 405  1058.998
 406  1240.284
 407  1100.372
 408  814.5187
 409  763.5502
 410  776.146
 411  1168.292
 412  884.5118
 413  540.5778
 414  561.6719
 415  920.2982
 416  1227.954
 417  1502.068
 418  1335.061
 419  628.5161
 420  1229.956
 421  1229.286
 422  1700.947
 423  2032.61
 424  1770.148
 425  1299.133
 426  1348.703
 427  1298.684
 428  827.2803
 429  1580.134
 430  2004.93
 431  1929.024
 432  1788.333
 433  1865.41
 434  1388.298
 435  1062.293
 436  1381.773
 437  1535.253
 438  1573.581
 439  1227.942
 440  1341.628
 441  1165.216
 442  1049.366
 443  1055.972
 444  865.1505
 445  1088.651
 446  933.3863
 447  1025.291
 448  766.342
 449  908.4836
 450  1173.722
 451  969.4476
 452  1244.355
 453  1051.526
 454  1045.455
 455  1052.897
 456  949.097
 457  819.2475
 458  1262.99
 459  1630.693
 460  1518.602
 461  1485.851
 462  1257.345
 463  1677.995
 464  1302.6
 465  1220.07
 466  1194.296
 467  1074.072
 468  880.3409
 469  1247.375
 470  1367.423
 471  1283.258
 472  1665.153
 473  1643.881
 474  1533.177
 475  1556.766
 476  1239.023
 477  1034.431
 478  1199.362
 479  1659.218
 480  1403.969
 481  1458.965
 482  1609.112
 483  1539.632
 484  1188.503
 485  619.4988
 486  699.9065
 487  1096.032
 488  1402.924
 489  1314.617
 490  1088.337
 491  834.3344
 492  759.8032
 493  894.4485
 494  829.056
 495  732.8619
 496  788.6234
 497  1163.921
 498  1097.097
 499  1094.965
 500  1102.272
 501  942.7766
 502  932.4187
 503  864.6902
 504  766.1371
 505  549.1205
 506  921.3669
 507  997.2396
 508  1167.404
 509  867.6365
 510  456.3796
 511  560.408
