# Input file       =  1201174118.105377_cleaned.dat
# Candidate        =  PSR_0332+5434
# Telescope        =  AR
# Epoch_topo       =  58146.478438719641
# Epoch_bary       =  N/A
# T_sample         =  0.002
# Data Folded      =  7208960
# Data Avg         =  0.0955189894546166
# Data StdDev      =  3.85085851437391 
# Profile Bins     =  1024
# Profile Avg      =  672.355752340813 
# Profile StdDev   =  323.105158634138 
# Reduced chi-sqr  =  0.969
# Prob(Noise)      <  0.76   (~0.0 sigma)
# P_topo (ms)      =  714.574342161438  +/- 3.25e-05
# P'_topo (s/s)    =  -0                +/- 1.74e-11
# P''_topo (s/s^2) =  0                 +/- 7.84e-15
# P_bary (ms)      =  N/A
# P'_bary (s/s)    =  N/A
# P''_bary (s/s^2) =  N/A
# P_orb (s)        =  N/A
# asin(i)/c (s)    =  N/A
# eccentricity     =  N/A
# w (rad)          =  N/A
# T_peri           =  N/A
######################################################
   0  427.0265
   1  523.4478
   2  676.2508
   3  648.9973
   4  581.7496
   5  554.6759
   6  624.8416
   7  870.3983
   8  927.1546
   9  789.2005
  10  705.7697
  11  466.686
  12  292.4363
  13  355.1483
  14  516.8416
  15  801.0045
  16  777.2689
  17  824.0397
  18  745.7435
  19  727.3563
  20  648.2083
  21  572.5334
  22  652.0767
  23  839.9241
  24  657.9644
  25  664.2802
  26  563.7385
  27  568.3295
  28  391.4577
  29  165.6548
  30  222.2026
  31  411.094
  32  573.5508
  33  554.6301
  34  334.24
  35  317.4906
  36  374.6612
  37  514.6748
  38  777.9996
  39  825.7929
  40  971.6581
  41  811.1525
  42  702.3207
  43  776.5075
  44  729.2388
  45  730.7208
  46  538.6804
  47  481.3159
  48  542.5294
  49  383.5567
  50  434.1377
  51  416.274
  52  537.8231
  53  673.4741
  54  669.3843
  55  729.777
  56  768.006
  57  802.7373
  58  907.9819
  59  789.6222
  60  810.442
  61  622.2771
  62  458.8257
  63  455.9949
  64  440.7662
  65  392.9813
  66  423.157
  67  427.3236
  68  532.404
  69  547.3533
  70  633.7151
  71  763.793
  72  789.0812
  73  897.6434
  74  819.7229
  75  839.6351
  76  745.9995
  77  617.0338
  78  636.5599
  79  527.9895
  80  591.5892
  81  700.1959
  82  741.7167
  83  792.2927
  84  831.6114
  85  741.8644
  86  616.0391
  87  619.2303
  88  706.1182
  89  670.9543
  90  705.9253
  91  789.0058
  92  599.2908
  93  672.6472
  94  691.9716
  95  669.1537
  96  580.1016
  97  460.0227
  98  513.3058
  99  506.3159
 100  598.8252
 101  823.5892
 102  779.3786
 103  744.7799
 104  700.7795
 105  823.4576
 106  915.863
 107  876.8165
 108  911.3108
 109  881.7413
 110  816.3
 111  731.0817
 112  690.2812
 113  665.6542
 114  567.5949
 115  602.4337
 116  763.9809
 117  675.6859
 118  633.7477
 119  612.341
 120  688.3409
 121  776.6546
 122  714.9378
 123  720.6736
 124  577.6332
 125  523.0693
 126  482.0696
 127  417.3208
 128  539.6159
 129  471.7771
 130  427.0604
 131  401.0099
 132  434.8021
 133  579.9598
 134  804.0339
 135  693.9368
 136  631.3628
 137  602.4933
 138  771.7377
 139  645.1767
 140  634.1168
 141  667.423
 142  628.2323
 143  626.79
 144  587.0762
 145  552.8542
 146  592.8916
 147  677.071
 148  717.3239
 149  672.8834
 150  677.57
 151  729.871
 152  853.9728
 153  928.1816
 154  804.8414
 155  713.3428
 156  745.0668
 157  668.5638
 158  680.8644
 159  491.6842
 160  498.8376
 161  460.2716
 162  408.823
 163  409.2629
 164  384.9081
 165  501.9131
 166  585.6292
 167  625.8111
 168  735.0554
 169  809.4479
 170  831.2512
 171  856.4189
 172  836.0449
 173  942.4676
 174  838.2905
 175  869.3599
 176  733.9211
 177  600.8602
 178  662.8599
 179  671.0587
 180  611.7505
 181  652.4575
 182  609.4287
 183  667.2656
 184  633.6545
 185  789.1237
 186  929.2386
 187  880.3864
 188  905.1219
 189  838.0568
 190  916.0666
 191  828.4537
 192  625.1694
 193  622.3796
 194  550.4621
 195  391.2836
 196  399.4099
 197  424.495
 198  537.0347
 199  632.1352
 200  632.4058
 201  628.8248
 202  547.7527
 203  612.8976
 204  716.9719
 205  724.006
 206  865.1406
 207  747.194
 208  829.3945
 209  815.0551
 210  753.7805
 211  756.6467
 212  667.7679
 213  757.0759
 214  818.3544
 215  775.1733
 216  752.1423
 217  718.4243
 218  728.7776
 219  592.8532
 220  528.7627
 221  724.2623
 222  724.7804
 223  770.0048
 224  776.0524
 225  710.4767
 226  802.5397
 227  638.9526
 228  617.5325
 229  514.5868
 230  532.7831
 231  568.722
 232  404.4854
 233  405.4911
 234  543.9329
 235  741.3147
 236  886.0743
 237  929.8674
 238  971.5963
 239  851.5435
 240  719.8942
 241  778.3468
 242  726.9058
 243  731.1202
 244  543.2615
 245  568.2845
 246  650.7094
 247  544.9606
 248  448.9451
 249  628.5007
 250  744.6257
 251  807.3478
 252  660.8835
 253  637.4548
 254  554.7583
 255  568.007
 256  673.5721
 257  695.1182
 258  783.8687
 259  742.2063
 260  535.1794
 261  505.58
 262  337.666
 263  366.3247
 264  504.8116
 265  656.6707
 266  628.2903
 267  633.1494
 268  668.9931
 269  762.0952
 270  722.7444
 271  816.938
 272  783.4307
 273  731.3557
 274  610.947
 275  580.8103
 276  639.9631
 277  543.5043
 278  526.0072
 279  600.2104
 280  858.5156
 281  919.5128
 282  818.9012
 283  731.3379
 284  651.4707
 285  711.9384
 286  763.1596
 287  647.6866
 288  572.2341
 289  541.7881
 290  508.1994
 291  518.7667
 292  474.2733
 293  543.527
 294  531.5896
 295  564.1404
 296  664.0787
 297  589.2643
 298  744.2136
 299  852.1812
 300  947.8472
 301  903.2979
 302  869.6246
 303  953.744
 304  864.9777
 305  746.014
 306  611.7058
 307  419.2498
 308  479.8331
 309  427.8319
 310  524.8262
 311  630.8948
 312  683.3425
 313  712.2427
 314  805.4048
 315  862.7942
 316  935.0479
 317  951.6685
 318  944.4106
 319  915.8879
 320  727.7426
 321  685.3751
 322  447.4727
 323  473.1226
 324  407.4509
 325  365.7422
 326  456.8966
 327  423.4966
 328  466.1321
 329  540.6895
 330  546.7917
 331  539.1904
 332  635.8345
 333  830.6476
 334  845.6161
 335  801.5416
 336  853.7922
 337  880.3881
 338  933.2438
 339  846.384
 340  761.3578
 341  733.0549
 342  628.3651
 343  603.1691
 344  633.4744
 345  664.8832
 346  699.8032
 347  644.3622
 348  699.4745
 349  760.1341
 350  683.6288
 351  722.4174
 352  751.5829
 353  831.1746
 354  864.1816
 355  807.4512
 356  814.8389
 357  574.7609
 358  536.4397
 359  397.4217
 360  403.6497
 361  441.3662
 362  495.7385
 363  463.6864
 364  677.7482
 365  712.0168
 366  759.1844
 367  627.0306
 368  613.9282
 369  622.1185
 370  749.1078
 371  947.3221
 372  866.5989
 373  802.9507
 374  782.662
 375  620.7211
 376  547.0507
 377  446.426
 378  522.2154
 379  599.2579
 380  595.1883
 381  622.4593
 382  709.8927
 383  814.6144
 384  875.0507
 385  784.3274
 386  878.4917
 387  671.7521
 388  657.1674
 389  554.3276
 390  525.0863
 391  617.953
 392  567.3644
 393  477.3695
 394  447.2574
 395  453.7638
 396  586.2675
 397  712.2726
 398  806.9821
 399  807.8302
 400  659.1104
 401  660.0184
 402  726.2178
 403  758.9693
 404  760.4102
 405  699.8098
 406  762.6577
 407  829.7926
 408  801.2037
 409  691.941
 410  584.992
 411  509.524
 412  501.1157
 413  538.5758
 414  642.5348
 415  640.9045
 416  682.9919
 417  761.5493
 418  788.9736
 419  785.0389
 420  764.8646
 421  753.0736
 422  730.0171
 423  787.9506
 424  721.3373
 425  516.3013
 426  455.051
 427  474.2044
 428  544.291
 429  589.9294
 430  570.957
 431  602.4496
 432  715.1529
 433  774.2327
 434  768.4323
 435  838.0331
 436  861.1205
 437  824.9483
 438  818.7533
 439  802.0223
 440  658.5278
 441  613.5779
 442  588.3722
 443  609.8288
 444  687.3819
 445  824.0649
 446  874.5556
 447  906.7009
 448  892.2343
 449  924.6695
 450  955.6678
 451  1015.861
 452  991.1929
 453  937.4332
 454  842.4812
 455  690.1532
 456  674.8896
 457  564.3981
 458  466.3388
 459  422.4344
 460  391.7624
 461  440.0832
 462  450.2514
 463  454.4798
 464  498.3792
 465  558.7417
 466  696.4962
 467  812.5043
 468  833.307
 469  955.4352
 470  893.5654
 471  931.2446
 472  784.9843
 473  827.1251
 474  781.192
 475  697.5001
 476  619.7998
 477  565.9131
 478  509.2942
 479  593.1338
 480  655.1697
 481  743.9874
 482  842.1473
 483  832.4892
 484  864.9022
 485  869.5749
 486  932.0055
 487  816.0158
 488  792.601
 489  740.7755
 490  749.5147
 491  673.8512
 492  579.2353
 493  365.8908
 494  373.7258
 495  313.2146
 496  396.5466
 497  532.6809
 498  582.0581
 499  597.7471
 500  672.6433
 501  788.6593
 502  837.1607
 503  818.9388
 504  910.6741
 505  741.4468
 506  765.088
 507  724.6686
 508  717.8593
 509  705.8867
 510  623.1859
 511  538.965
 512  661.0173
 513  747.8382
 514  840.0566
 515  811.5773
 516  836.4948
 517  806.716
 518  708.2349
 519  762.1619
 520  612.7277
 521  632.7031
 522  621.6983
 523  595.563
 524  539.6187
 525  402.7263
 526  381.7656
 527  337.2072
 528  348.9962
 529  505.6911
 530  712.4318
 531  844.981
 532  886.4318
 533  759.6984
 534  713.9955
 535  700.4828
 536  746.5121
 537  848.1498
 538  794.619
 539  721.8577
 540  546.8055
 541  566.6301
 542  516.0878
 543  474.0471
 544  567.358
 545  644.056
 546  671.7102
 547  714.201
 548  699.4245
 549  766.8683
 550  769.2676
 551  771.9673
 552  728.7089
 553  701.5271
 554  639.5008
 555  463.4136
 556  373.1714
 557  383.8739
 558  462.1607
 559  435.1829
 560  329.4919
 561  182.4339
 562  278.7037
 563  333.0041
 564  434.427
 565  574.623
 566  721.83
 567  647.5684
 568  743.275
 569  833.5284
 570  896.4906
 571  814.572
 572  666.686
 573  747.3588
 574  764.0656
 575  852.7048
 576  686.9779
 577  678.636
 578  685.4585
 579  731.8454
 580  641.8382
 581  567.0731
 582  576.8646
 583  616.081
 584  632.3934
 585  609.0241
 586  639.1299
 587  549.23
 588  662.7739
 589  722.8558
 590  775.3137
 591  581.4507
 592  493.4547
 593  314.8462
 594  392.2904
 595  468.0555
 596  650.2842
 597  796.7952
 598  891.5543
 599  910.5887
 600  1024.545
 601  1016.195
 602  1008.325
 603  1030.525
 604  977.3122
 605  883.853
 606  784.0255
 607  705.7894
 608  730.5013
 609  802.7798
 610  1020.098
 611  1082.617
 612  1221.329
 613  1305.366
 614  1425.682
 615  1565.6
 616  1625.44
 617  1526.542
 618  1423.05
 619  1355.35
 620  1115.199
 621  940.0899
 622  748.2406
 623  581.1889
 624  434.1805
 625  336.8375
 626  368.2027
 627  476.596
 628  513.9941
 629  590.6997
 630  723.1154
 631  798.0836
 632  762.9387
 633  822.0751
 634  939.7733
 635  948.7587
 636  941.5842
 637  944.1143
 638  839.4287
 639  725.6918
 640  649.5201
 641  655.7912
 642  709.2122
 643  672.3477
 644  674.4525
 645  670.5281
 646  694.0856
 647  671.7187
 648  717.2616
 649  815.4447
 650  832.4705
 651  788.1082
 652  723.6884
 653  700.0933
 654  674.3215
 655  656.3278
 656  655.187
 657  592.4255
 658  437.4376
 659  414.0112
 660  472.6599
 661  484.5206
 662  503.3807
 663  553.9218
 664  724.5785
 665  842.9261
 666  833.0607
 667  748.0859
 668  739.6176
 669  706.413
 670  636.8433
 671  536.7556
 672  419.0096
 673  399.4997
 674  462.9822
 675  523.037
 676  518.9485
 677  570.9944
 678  633.8633
 679  669.2064
 680  794.7443
 681  892.4214
 682  844.6705
 683  885.2008
 684  860.9609
 685  833.8513
 686  699.0031
 687  646.3288
 688  515.3276
 689  481.2614
 690  373.5665
 691  212.3022
 692  262.1358
 693  322.9305
 694  406.5991
 695  431.4791
 696  645.1431
 697  767.0365
 698  845.6465
 699  847.0834
 700  846.4197
 701  935.5814
 702  913.9624
 703  771.3796
 704  603.5085
 705  613.2365
 706  733.2036
 707  657.3571
 708  752.982
 709  714.625
 710  804.515
 711  659.0886
 712  447.6679
 713  387.1813
 714  547.1653
 715  784.0675
 716  782.7433
 717  667.865
 718  733.2388
 719  748.6252
 720  659.8939
 721  514.0355
 722  384.9779
 723  351.3244
 724  433.4984
 725  492.0239
 726  427.0917
 727  338.3257
 728  408.9163
 729  493.7011
 730  635.5193
 731  666.3287
 732  713.8538
 733  809.1683
 734  713.4302
 735  631.5499
 736  742.6665
 737  760.5341
 738  688.2377
 739  532.6058
 740  478.8044
 741  412.1711
 742  446.7076
 743  663.1981
 744  731.7961
 745  654.1039
 746  602.1567
 747  565.6561
 748  712.0072
 749  730.7302
 750  595.7601
 751  559.2054
 752  610.2643
 753  650.1631
 754  711.218
 755  556.0248
 756  418.4034
 757  289.2643
 758  358.3336
 759  414.9368
 760  484.2271
 761  542.618
 762  609.1079
 763  702.5681
 764  846.3032
 765  852.7313
 766  806.5622
 767  859.1302
 768  919.1887
 769  940.2875
 770  766.1679
 771  703.5568
 772  574.5357
 773  598.5746
 774  662.4323
 775  696.5143
 776  684.3185
 777  612.2758
 778  600.6933
 779  676.5739
 780  631.1465
 781  685.2201
 782  619.4163
 783  754.3241
 784  707.9845
 785  683.9606
 786  671.3509
 787  663.7233
 788  646.7
 789  641.1008
 790  586.752
 791  453.8922
 792  441.5767
 793  623.2779
 794  833.8835
 795  950.4248
 796  910.906
 797  886.2292
 798  803.7483
 799  729.7228
 800  666.4815
 801  779.9532
 802  766.2147
 803  696.9917
 804  746.4812
 805  691.0342
 806  580.605
 807  511.1538
 808  629.2999
 809  722.2281
 810  804.8726
 811  864.6223
 812  851.8184
 813  822.4738
 814  760.9175
 815  655.0283
 816  623.3021
 817  628.8311
 818  501.835
 819  490.9248
 820  526.9783
 821  654.6935
 822  565.2803
 823  428.9582
 824  329.1247
 825  425.2126
 826  515.9071
 827  655.28
 828  765.3124
 829  738.2217
 830  814.6398
 831  941.1971
 832  1118.645
 833  1071.752
 834  897.2679
 835  828.9487
 836  680.1276
 837  627.3694
 838  437.8097
 839  432.5701
 840  319.9488
 841  430.7114
 842  499.888
 843  505.404
 844  493.5837
 845  703.3988
 846  801.533
 847  891.3765
 848  910.7139
 849  864.6149
 850  645.236
 851  665.3621
 852  665.8071
 853  597.2137
 854  579.8447
 855  498.9287
 856  443.8453
 857  397.5326
 858  480.5768
 859  554.038
 860  681.6661
 861  693.2092
 862  795.3596
 863  810.5858
 864  1008.256
 865  821.1691
 866  915.6698
 867  740.1918
 868  656.7092
 869  546.8352
 870  523.5696
 871  533.3032
 872  516.79
 873  653.6815
 874  716.1803
 875  736.7648
 876  836.7144
 877  762.8391
 878  650.2174
 879  630.4415
 880  707.7191
 881  805.2172
 882  726.7888
 883  760.7379
 884  781.0939
 885  653.6168
 886  604.7051
 887  578.2092
 888  493.8851
 889  353.0102
 890  298.0548
 891  502.6449
 892  565.499
 893  488.0461
 894  551.1054
 895  772.288
 896  1017.053
 897  879.6899
 898  735.9452
 899  797.995
 900  859.2144
 901  889.071
 902  745.0742
 903  667.9435
 904  701.1736
 905  568.9277
 906  551.0723
 907  492.7787
 908  558.8209
 909  580.2921
 910  596.1167
 911  671.4196
 912  745.1773
 913  838.6723
 914  1012.084
 915  991.261
 916  1050.966
 917  995.0673
 918  880.8137
 919  831.4988
 920  689.4191
 921  549.6755
 922  556.0322
 923  619.6931
 924  692.6299
 925  520.1466
 926  383.8973
 927  432.5806
 928  562.6971
 929  718.1741
 930  855.3648
 931  1101.038
 932  1165.459
 933  938.6235
 934  917.0863
 935  896.1047
 936  934.5012
 937  767.5178
 938  598.8422
 939  455.8618
 940  449.6037
 941  540.3054
 942  602.0661
 943  624.6627
 944  742.615
 945  835.2986
 946  842.3932
 947  858.3516
 948  751.134
 949  791.8883
 950  765.3618
 951  732.1644
 952  709.4104
 953  602.5272
 954  518.9187
 955  410.389
 956  506.7118
 957  637.0999
 958  673.2285
 959  784.4074
 960  936.5433
 961  898.1783
 962  758.9722
 963  676.2418
 964  751.9219
 965  765.3865
 966  841.9584
 967  835.8878
 968  719.1137
 969  706.4545
 970  672.0746
 971  598.151
 972  525.1535
 973  460.3377
 974  569.6185
 975  667.536
 976  743.4899
 977  765.4308
 978  816.2122
 979  835.5674
 980  811.9676
 981  727.5516
 982  679.8821
 983  518.1149
 984  585.1886
 985  537.8487
 986  533.2117
 987  565.0802
 988  440.3898
 989  328.1087
 990  250.758
 991  438.9056
 992  548.8334
 993  608.9493
 994  570.9572
 995  606.4438
 996  721.504
 997  864.8255
 998  854.3907
 999  998.9009
1000  959.7992
1001  862.077
1002  753.7714
1003  621.3913
1004  498.0419
1005  276.0274
1006  408.4664
1007  469.0885
1008  584.6542
1009  690.9434
1010  759.5341
1011  697.7687
1012  782.5853
1013  820.4593
1014  908.304
1015  782.3856
1016  724.2841
1017  665.8618
1018  541.2339
1019  457.8205
1020  410.5754
1021  347.6803
1022  376.2629
1023  287.1647
