# Input file       =  1201017031.099187_cleaned.dat
# Candidate        =  PSR_0332+5434
# Telescope        =  AR
# Epoch_topo       =  58144.660302073920
# Epoch_bary       =  N/A
# T_sample         =  0.002
# Data Folded      =  7340032
# Data Avg         =  0.0851920995160722
# Data StdDev      =  4.25286261382733 
# Profile Bins     =  1024
# Profile Avg      =  610.682539905452 
# Profile StdDev   =  360.06453876196  
# Reduced chi-sqr  =  1.006
# Prob(Noise)      <  0.441   (~0.1 sigma)
# P_topo (ms)      =  714.573493193576  +/- 1.65e-05
# P'_topo (s/s)    =  -0                +/- 8.72e-12
# P''_topo (s/s^2) =  0                 +/- 3.85e-15
# P_bary (ms)      =  N/A
# P'_bary (s/s)    =  N/A
# P''_bary (s/s^2) =  N/A
# P_orb (s)        =  N/A
# asin(i)/c (s)    =  N/A
# eccentricity     =  N/A
# w (rad)          =  N/A
# T_peri           =  N/A
######################################################
   0  613.1133
   1  381.0079
   2  499.2343
   3  434.0792
   4  329.8419
   5  259.9572
   6  463.5228
   7  674.4822
   8  621.8173
   9  583.0842
  10  656.9528
  11  555.9282
  12  548.2228
  13  619.8458
  14  644.7991
  15  527.6946
  16  445.4948
  17  575.6169
  18  495.9596
  19  417.1073
  20  477.7341
  21  622.3696
  22  517.5886
  23  558.2415
  24  645.6577
  25  584.9697
  26  326.2586
  27  398.2782
  28  504.0303
  29  597.3672
  30  596.5347
  31  650.4578
  32  495.6227
  33  247.793
  34  290.4238
  35  409.2846
  36  359.8964
  37  361.603
  38  594.6533
  39  771.6861
  40  683.6801
  41  521.9822
  42  547.0906
  43  383.8493
  44  283.1214
  45  302.6768
  46  487.4554
  47  537.1585
  48  573.4025
  49  687.3043
  50  564.7726
  51  503.9726
  52  580.493
  53  684.6734
  54  774.3641
  55  638.8136
  56  733.6263
  57  693.4042
  58  630.3303
  59  703.4325
  60  718.0013
  61  654.9658
  62  460.5816
  63  510.5618
  64  551.8226
  65  539.4073
  66  610.7038
  67  852.2826
  68  915.6768
  69  801.8947
  70  851.0958
  71  796.0214
  72  757.3962
  73  618.2913
  74  647.3021
  75  590.7057
  76  573.8835
  77  791.8751
  78  1095.446
  79  1012.766
  80  912.6722
  81  733.2745
  82  721.0283
  83  620.1051
  84  681.7473
  85  832.2637
  86  708.8733
  87  695.6097
  88  783.4914
  89  834.7806
  90  542.2826
  91  479.2928
  92  471.5218
  93  404.1544
  94  487.663
  95  704.0319
  96  846.2388
  97  646.5223
  98  583.4366
  99  767.1385
 100  828.7639
 101  702.1564
 102  568.9783
 103  682.5649
 104  713.1453
 105  694.9212
 106  721.5908
 107  630.558
 108  414.4613
 109  284.1463
 110  361.8581
 111  387.8807
 112  345.6953
 113  585.1925
 114  693.7484
 115  647.0939
 116  527.2223
 117  571.0038
 118  518.136
 119  460.6688
 120  442.1776
 121  474.3822
 122  351.9025
 123  323.0958
 124  459.9847
 125  780.515
 126  784.8004
 127  832.9777
 128  705.1622
 129  572.5771
 130  438.9277
 131  505.2933
 132  526.9048
 133  388.6419
 134  428.838
 135  651.1323
 136  499.6753
 137  425.7523
 138  491.303
 139  719.3943
 140  564.5158
 141  473.8729
 142  660.1342
 143  746.1682
 144  659.9101
 145  711.0289
 146  804.7592
 147  596.1906
 148  469.2598
 149  480.0421
 150  600.8192
 151  427.7997
 152  359.2653
 153  579.723
 154  534.8689
 155  633.282
 156  837.2499
 157  997.2815
 158  810.4269
 159  689.058
 160  812.1685
 161  861.5091
 162  839.5741
 163  788.6694
 164  828.4454
 165  650.8417
 166  723.4709
 167  786.0675
 168  781.5569
 169  467.5237
 170  612.8522
 171  671.0508
 172  684.7886
 173  597.6607
 174  710.8326
 175  690.9677
 176  548.1132
 177  587.6577
 178  782.0013
 179  844.5372
 180  860.5223
 181  955.6542
 182  989.1673
 183  772.0947
 184  614.7039
 185  739.126
 186  576.9595
 187  538.0201
 188  400.2417
 189  582.0878
 190  494.4243
 191  497.7353
 192  691.9065
 193  753.86
 194  689.9777
 195  721.5978
 196  764.9316
 197  750.9026
 198  542.4385
 199  610.3843
 200  691.8842
 201  648.7986
 202  677.0114
 203  751.1952
 204  630.5819
 205  336.1266
 206  328.3797
 207  511.379
 208  430.9178
 209  434.6129
 210  621.5078
 211  791.7766
 212  668.7895
 213  608.6667
 214  695.4484
 215  575.6896
 216  519.3297
 217  587.9714
 218  756.314
 219  639.3077
 220  547.4326
 221  739.7007
 222  701.8826
 223  743.4688
 224  883.3403
 225  1045.578
 226  960.4931
 227  831.5909
 228  887.066
 229  863.2024
 230  715.0602
 231  730.1221
 232  707.4402
 233  461.8051
 234  365.5525
 235  645.0709
 236  761.3041
 237  685.4188
 238  553.7552
 239  714.7386
 240  629.1794
 241  444.4897
 242  377.0324
 243  416.0334
 244  404.3344
 245  348.9944
 246  429.7847
 247  417.2431
 248  402.7775
 249  418.9326
 250  607.8849
 251  481.5201
 252  464.9746
 253  328.3196
 254  426.4162
 255  216.8316
 256  283.8622
 257  324.577
 258  380.7832
 259  401.0422
 260  679.201
 261  812.9241
 262  736.8698
 263  588.7372
 264  546.5485
 265  389.1827
 266  301.5966
 267  356.0505
 268  508.1113
 269  468.2085
 270  455.406
 271  536.6592
 272  469.8099
 273  462.7461
 274  535.8004
 275  676.9315
 276  544.6943
 277  524.3981
 278  680.9136
 279  648.9884
 280  526.3928
 281  522.7762
 282  598.897
 283  493.0756
 284  312.6879
 285  414.6946
 286  561.6846
 287  710.4746
 288  636.4733
 289  691.0706
 290  508.0685
 291  408.3085
 292  372.2705
 293  420.696
 294  258.3984
 295  275.711
 296  417.9277
 297  468.1369
 298  366.9308
 299  367.2248
 300  328.8538
 301  335.7218
 302  406.8401
 303  479.9468
 304  529.6554
 305  566.0054
 306  640.578
 307  648.075
 308  426.4263
 309  389.74
 310  437.0014
 311  420.836
 312  291.8674
 313  207.4908
 314  462.3564
 315  493.7252
 316  426.232
 317  453.2282
 318  550.9635
 319  456.2243
 320  343.9276
 321  373.0909
 322  525.0581
 323  489.8851
 324  474.6613
 325  460.2481
 326  412.7531
 327  383.6729
 328  429.3936
 329  436.461
 330  284.9119
 331  226.4401
 332  393.385
 333  462.0832
 334  431.257
 335  398.7209
 336  492.8819
 337  274.0171
 338  245.0548
 339  334.1606
 340  308.6885
 341  265.4388
 342  256.735
 343  472.0262
 344  488.7537
 345  487.0544
 346  561.983
 347  398.8761
 348  274.2812
 349  381.8275
 350  584.9791
 351  506.153
 352  451.262
 353  543.4312
 354  648.6442
 355  379.9353
 356  391.9488
 357  495.993
 358  484.4791
 359  274.7355
 360  330.5244
 361  459.7006
 362  272.9344
 363  179.6369
 364  419.1611
 365  470.451
 366  484.6099
 367  489.7805
 368  548.7612
 369  383.4987
 370  368.0082
 371  667.3931
 372  778.5238
 373  682.1196
 374  695.2531
 375  985.1685
 376  966.6346
 377  758.2175
 378  572.9104
 379  773.7349
 380  705.323
 381  652.8023
 382  694.7584
 383  717.3423
 384  558.6033
 385  608.824
 386  702.5093
 387  660.3105
 388  595.2524
 389  631.1957
 390  735.6523
 391  560.1174
 392  599.6727
 393  715.9402
 394  728.2716
 395  597.4602
 396  495.4565
 397  546.127
 398  423.8897
 399  333.8994
 400  338.1898
 401  317.4998
 402  388.3662
 403  510.812
 404  530.6033
 405  324.7565
 406  347.7367
 407  607.928
 408  665.0165
 409  535.5728
 410  460.0816
 411  656.1141
 412  746.9188
 413  675.7418
 414  635.2949
 415  533.0701
 416  593.7731
 417  635.2309
 418  652.2482
 419  552.2037
 420  542.3596
 421  638.5678
 422  792.3509
 423  643.8198
 424  648.3923
 425  727.1772
 426  610.7391
 427  631.3
 428  704.8391
 429  831.2623
 430  618.4265
 431  510.2816
 432  649.8282
 433  619.8713
 434  550.1252
 435  550.7864
 436  720.6581
 437  526.1088
 438  426.4436
 439  522.6555
 440  814.5185
 441  701.1867
 442  798.1376
 443  849.9596
 444  721.5868
 445  583.9557
 446  534.4626
 447  657.8851
 448  404.3079
 449  433.266
 450  512.5703
 451  656.7014
 452  576.1309
 453  690.356
 454  738.9793
 455  754.6508
 456  697.0992
 457  878.6359
 458  864.4473
 459  646.6414
 460  582.5951
 461  758.23
 462  740.9275
 463  697.5146
 464  795.0117
 465  776.0753
 466  719.5504
 467  641.241
 468  688.168
 469  663.4598
 470  577.0544
 471  706.2971
 472  788.8326
 473  754.4767
 474  713.4523
 475  753.9683
 476  780.9683
 477  725.7772
 478  790.5351
 479  1005.895
 480  849.6721
 481  769.0258
 482  691.1243
 483  664.8813
 484  603.0591
 485  667.9554
 486  923.842
 487  881.4482
 488  793.2905
 489  719.0897
 490  796.7485
 491  796.1277
 492  832.5497
 493  935.1239
 494  723.874
 495  526.5859
 496  547.2748
 497  781.544
 498  799.0731
 499  819.735
 500  955.8416
 501  831.2939
 502  571.9825
 503  503.3871
 504  681.2944
 505  670.397
 506  671.3082
 507  853.8495
 508  950.1462
 509  798.0354
 510  844.238
 511  903.5555
 512  851.8586
 513  675.5878
 514  823.0681
 515  1041.093
 516  810.7341
 517  660.0436
 518  659.4783
 519  698.4926
 520  753.5795
 521  815.4418
 522  970.4391
 523  682.5281
 524  648.3679
 525  808.8585
 526  967.5933
 527  741.8879
 528  697.6711
 529  800.2867
 530  607.6393
 531  470.4717
 532  525.8254
 533  677.5296
 534  458.3291
 535  415.2253
 536  511.6635
 537  616.8829
 538  622.8752
 539  774.1618
 540  835.7452
 541  733.1689
 542  677.6793
 543  758.6349
 544  599.6915
 545  385.2699
 546  452.6091
 547  675.4443
 548  560.3137
 549  414.0113
 550  489.8506
 551  555.3748
 552  296.6377
 553  217.7421
 554  504.038
 555  616.9145
 556  470.4271
 557  603.4986
 558  790.2062
 559  617.2437
 560  451.1461
 561  544.1598
 562  636.4825
 563  529.4499
 564  581.7085
 565  870.7471
 566  836.7258
 567  776.2685
 568  686.4824
 569  653.4623
 570  620.776
 571  670.4142
 572  930.9987
 573  941.2489
 574  880.7356
 575  879.0963
 576  770.7232
 577  506.3381
 578  423.6167
 579  581.5633
 580  530.9618
 581  375.9578
 582  461.2405
 583  748.4366
 584  756.6144
 585  575.4696
 586  569.6321
 587  605.9557
 588  716.1196
 589  713.6091
 590  933.3853
 591  911.2274
 592  824.066
 593  948.3726
 594  913.4739
 595  756.2013
 596  737.514
 597  794.7722
 598  730.2786
 599  515.2155
 600  787.8751
 601  928.5573
 602  806.2797
 603  724.447
 604  833.7938
 605  862.2217
 606  806.2211
 607  910.5331
 608  1159.869
 609  1010.394
 610  1028.179
 611  1237.898
 612  1430.124
 613  1236.773
 614  1334.03
 615  1507.831
 616  1441.339
 617  1226.587
 618  1151.787
 619  1152.951
 620  1000.622
 621  991.2391
 622  960.4012
 623  827.4729
 624  677.3335
 625  784.9056
 626  889.3238
 627  773.6266
 628  599.0433
 629  666.8994
 630  715.4255
 631  647.3813
 632  555.6248
 633  688.5298
 634  622.7281
 635  674.1415
 636  766.5137
 637  820.1126
 638  691.6796
 639  761.5372
 640  862.9111
 641  771.9212
 642  608.9095
 643  714.2315
 644  822.0576
 645  650.9603
 646  551.7477
 647  761.0989
 648  872.4532
 649  976.418
 650  1097.571
 651  1293.99
 652  1040.877
 653  1019.186
 654  1027.479
 655  941.0791
 656  552.6994
 657  523.2214
 658  707.2218
 659  751.3436
 660  625.0443
 661  722.927
 662  701.5397
 663  650.5609
 664  723.4217
 665  859.7579
 666  727.3241
 667  548.5314
 668  648.0574
 669  717.8972
 670  618.7457
 671  604.4578
 672  889.4764
 673  854.4697
 674  716.0512
 675  632.4203
 676  918.2122
 677  821.1088
 678  577.4313
 679  708.6578
 680  837.2505
 681  631.4849
 682  514.1877
 683  592.8422
 684  684.6643
 685  388.0624
 686  424.4647
 687  434.7256
 688  418.5028
 689  453.3904
 690  568.5417
 691  620.5909
 692  514.5295
 693  511.3924
 694  485.6622
 695  272.249
 696  181.9679
 697  394.6985
 698  576.8226
 699  513.8404
 700  516.8206
 701  664.1227
 702  438.0384
 703  391.9986
 704  389.8008
 705  568.9908
 706  531.9988
 707  628.7399
 708  833.6854
 709  668.4684
 710  605.707
 711  558.076
 712  493.7377
 713  303.5004
 714  132.7762
 715  422.6516
 716  444.3356
 717  295.7617
 718  251.9602
 719  353.4075
 720  298.2094
 721  213.3849
 722  345.6987
 723  494.9184
 724  503.9774
 725  458.7414
 726  397.7119
 727  310.6173
 728  288.6043
 729  570.5043
 730  581.3711
 731  556.6583
 732  483.4779
 733  574.1571
 734  540.1349
 735  505.4308
 736  734.5494
 737  878.6579
 738  700.8184
 739  643.4734
 740  751.4775
 741  752.9356
 742  664.189
 743  672.5688
 744  922.608
 745  899.9343
 746  806.243
 747  836.1064
 748  881.9367
 749  820.9767
 750  766.5568
 751  776.397
 752  780.7431
 753  836.7153
 754  914.4343
 755  987.1863
 756  974.5005
 757  882.3539
 758  1094.052
 759  1045.166
 760  1017.749
 761  1010.788
 762  1057.313
 763  1002.989
 764  822.2379
 765  781.6475
 766  799.6985
 767  598.3018
 768  775.0018
 769  811.4332
 770  688.4397
 771  470.3441
 772  752.0451
 773  913.595
 774  821.2943
 775  676.3888
 776  823.8124
 777  815.7429
 778  724.5309
 779  671.9292
 780  715.9228
 781  527.8006
 782  512.7422
 783  586.3091
 784  646.2147
 785  530.1439
 786  529.7831
 787  608.4858
 788  427.8619
 789  294.4713
 790  372.8174
 791  461.3172
 792  374.3765
 793  394.7366
 794  571.66
 795  629.3386
 796  422.3606
 797  376.7513
 798  285.6662
 799  219.8715
 800  217.238
 801  441.8185
 802  447.6096
 803  463.3132
 804  536.7106
 805  817.8505
 806  765.8347
 807  710.557
 808  719.0489
 809  500.243
 810  283.8739
 811  372.9154
 812  631.8602
 813  639.0535
 814  542.5681
 815  753.9435
 816  835.9446
 817  919.3489
 818  960.6898
 819  1131.216
 820  902.2979
 821  703.3884
 822  603.2174
 823  717.576
 824  671.1736
 825  693.3524
 826  651.0362
 827  548.4437
 828  382.0031
 829  488.256
 830  759.1838
 831  935.4265
 832  998.2247
 833  1030.884
 834  1021.6
 835  828.6589
 836  863.7654
 837  1026.643
 838  916.1672
 839  861.2684
 840  665.6144
 841  664.0352
 842  527.8986
 843  510.0014
 844  722.8002
 845  693.5108
 846  782.7116
 847  785.1458
 848  837.1896
 849  694.9545
 850  592.0635
 851  656.9437
 852  709.1495
 853  584.6755
 854  603.8898
 855  560.9646
 856  505.272
 857  485.8175
 858  529.6849
 859  541.8907
 860  399.4428
 861  489.3225
 862  548.8
 863  497.3148
 864  473.414
 865  498.2792
 866  570.2385
 867  400.2313
 868  351.0883
 869  459.6099
 870  471.0597
 871  419.3023
 872  581.8272
 873  672.6195
 874  461.9579
 875  443.0839
 876  605.8589
 877  715.9273
 878  492.9545
 879  495.5489
 880  545.3044
 881  503.4794
 882  517.1907
 883  563.27
 884  516.283
 885  333.1629
 886  349.3727
 887  573.9361
 888  647.1478
 889  639.8964
 890  747.9177
 891  976.5976
 892  732.8461
 893  684.2258
 894  723.2605
 895  766.5455
 896  583.5348
 897  703.1238
 898  872.0756
 899  805.2659
 900  638.9591
 901  636.4617
 902  640.3455
 903  522.1057
 904  601.3199
 905  650.4712
 906  590.2513
 907  359.1444
 908  363.1382
 909  631.2073
 910  633.7175
 911  610.9791
 912  704.3824
 913  651.1411
 914  627.3435
 915  739.3876
 916  847.5054
 917  796.6558
 918  796.1694
 919  887.713
 920  791.9626
 921  647.0317
 922  778.5266
 923  822.1331
 924  644.1812
 925  475.0522
 926  506.9957
 927  578.4224
 928  560.6431
 929  733.1243
 930  851.2557
 931  758.1475
 932  686.8055
 933  741.4799
 934  765.4241
 935  649.7266
 936  804.1845
 937  897.3199
 938  843.9784
 939  556.0652
 940  607.675
 941  589.4352
 942  337.357
 943  126.6917
 944  337.4514
 945  525.3347
 946  568.7949
 947  529.5286
 948  730.8598
 949  702.0039
 950  650.6707
 951  657.0808
 952  562.5804
 953  462.3283
 954  385.0875
 955  466.0374
 956  404.8112
 957  281.9632
 958  431.047
 959  555.5093
 960  453.082
 961  297.2827
 962  356.0542
 963  438.0858
 964  374.5539
 965  409.6308
 966  583.1929
 967  616.9526
 968  549.9243
 969  541.4572
 970  550.1532
 971  535.0943
 972  547.785
 973  574.9574
 974  504.6464
 975  354.4895
 976  441.5231
 977  546.6662
 978  426.6726
 979  387.1643
 980  364.1839
 981  408.2965
 982  217.6284
 983  332.7568
 984  465.0237
 985  469.4268
 986  451.9255
 987  628.1527
 988  597.8281
 989  501.364
 990  415.3425
 991  424.4567
 992  253.8516
 993  132.1586
 994  276.2809
 995  310.1935
 996  216.1955
 997  230.8944
 998  313.3647
 999  192.8842
1000  155.7507
1001  272.816
1002  472.3795
1003  373.8797
1004  356.6161
1005  383.7422
1006  291.8923
1007  135.2952
1008  249.6882
1009  343.3434
1010  204.022
1011  22.08559
1012  176.7013
1013  312.1971
1014  216.6864
1015  203.1429
1016  392.3174
1017  448.4068
1018  343.6994
1019  406.3765
1020  408.5638
1021  364.5226
1022  354.9925
1023  494.9347
