# Input file       =  1201548423.108379_cleaned.dat
# Candidate        =  PSR_0332+5434
# Telescope        =  AR
# Epoch_topo       =  58150.810672550680
# Epoch_bary       =  N/A
# T_sample         =  0.002
# Data Folded      =  7340032
# Data Avg         =  0.0578068701641832
# Data StdDev      =  3.07943051393803 
# Profile Bins     =  512
# Profile Avg      =  828.533371708548 
# Profile StdDev   =  368.709565745066 
# Reduced chi-sqr  =  0.829
# Prob(Noise)      <  0.998   (~0.0 sigma)
# P_topo (ms)      =  714.576568445763  +/- 0.000435
# P'_topo (s/s)    =  -0                +/- 2.3e-10
# P''_topo (s/s^2) =  0                 +/- 1.01e-13
# P_bary (ms)      =  N/A
# P'_bary (s/s)    =  N/A
# P''_bary (s/s^2) =  N/A
# P_orb (s)        =  N/A
# asin(i)/c (s)    =  N/A
# eccentricity     =  N/A
# w (rad)          =  N/A
# T_peri           =  N/A
######################################################
   0  962.0349
   1  1171.617
   2  796.8737
   3  673.3143
   4  878.1409
   5  838.0004
   6  681.9377
   7  925.1403
   8  720.8616
   9  739.6719
  10  594.3652
  11  638.4619
  12  645.8976
  13  915.4883
  14  1140.354
  15  1050.681
  16  1277.416
  17  1297.837
  18  962.5784
  19  793.2277
  20  1028.289
  21  927.0222
  22  690.1019
  23  933.6176
  24  1082.373
  25  956.308
  26  976.2321
  27  911.676
  28  593.1386
  29  675.3448
  30  848.3102
  31  500.6754
  32  751.6976
  33  796.3444
  34  701.3211
  35  443.8653
  36  300.3253
  37  581.7374
  38  729.4257
  39  910.3356
  40  1125.746
  41  1096.973
  42  643.8723
  43  756.1617
  44  934.4316
  45  817.5931
  46  820.8698
  47  582.0771
  48  938.713
  49  955.0873
  50  845.9742
  51  734.9277
  52  736.0586
  53  920.4205
  54  1088.912
  55  1014.331
  56  962.7494
  57  731.933
  58  597.4805
  59  748.1723
  60  522.9861
  61  789.9321
  62  1139.235
  63  851.6322
  64  645.4487
  65  602.1065
  66  674.274
  67  446.1172
  68  537.2001
  69  767.2709
  70  550.5148
  71  642.3608
  72  727.423
  73  688.3315
  74  742.5991
  75  1036.074
  76  946.986
  77  645.5493
  78  574.8535
  79  314.4161
  80  470.1751
  81  720.101
  82  1205.292
  83  1003.43
  84  990.8932
  85  886.4951
  86  859.5974
  87  557.8773
  88  770.316
  89  1288.701
  90  1285.034
  91  1146.436
  92  1055.253
  93  913.0388
  94  1170.897
  95  1045.604
  96  1537.794
  97  1317.666
  98  755.233
  99  700.2088
 100  1089.074
 101  1196.409
 102  1344.857
 103  1869.717
 104  2269.872
 105  1902.694
 106  1987.112
 107  1774.875
 108  1057.041
 109  940.7311
 110  749.2234
 111  893.5862
 112  624.3832
 113  480.8012
 114  698.7188
 115  340.8929
 116  701.1897
 117  846.2579
 118  821.9431
 119  757.8636
 120  707.9047
 121  834.4279
 122  875.7671
 123  1188.373
 124  1155.899
 125  1107.71
 126  1151.885
 127  1102.992
 128  873.9636
 129  784.6162
 130  1152.796
 131  919.5968
 132  813.9155
 133  1356.261
 134  1187.96
 135  719.0767
 136  729.472
 137  659.0605
 138  488.8742
 139  1132.923
 140  1025.495
 141  905.4719
 142  687.3674
 143  731.6606
 144  1060.778
 145  1058.465
 146  1014.263
 147  1067.855
 148  785.1908
 149  856.1938
 150  884.1301
 151  759.0718
 152  830.2919
 153  701.9523
 154  599.6022
 155  626.6543
 156  643.5428
 157  793.8246
 158  843.8954
 159  825.4302
 160  843.7644
 161  856.9567
 162  589.1537
 163  675.0104
 164  871.0429
 165  1100.294
 166  1236.501
 167  919.7518
 168  931.5487
 169  785.4483
 170  166.8209
 171  223.3896
 172  477.7612
 173  906.8137
 174  847.2051
 175  1081.883
 176  844.0817
 177  415.4461
 178  477.5224
 179  659.4822
 180  380.9701
 181  612.2714
 182  846.5889
 183  795.9584
 184  708.4064
 185  566.6786
 186  1026.56
 187  982.6628
 188  1140.184
 189  1218.292
 190  1046.742
 191  962.0568
 192  849.1729
 193  558.9605
 194  590.2786
 195  735.3504
 196  1014.611
 197  1000.589
 198  755.8646
 199  728.6447
 200  749.48
 201  455.6718
 202  642.035
 203  674.6106
 204  810.7195
 205  1190.547
 206  1032.744
 207  975.4222
 208  811.7902
 209  816.6872
 210  675.704
 211  663.7774
 212  490.8684
 213  538.2062
 214  702.855
 215  425.8205
 216  579.6949
 217  873.9507
 218  743.6605
 219  870.2452
 220  1160.614
 221  999.4142
 222  839.4243
 223  1051.505
 224  907.5347
 225  1379.617
 226  1020.335
 227  798.0427
 228  630.5605
 229  789.0825
 230  824.4843
 231  863.5964
 232  931.4548
 233  560.7645
 234  799.1706
 235  719.8082
 236  701.2686
 237  737.3279
 238  815.8638
 239  474.0379
 240  674.9159
 241  893.192
 242  1120.147
 243  1010.065
 244  895.4841
 245  977.0579
 246  817.8621
 247  707.8719
 248  780.3017
 249  959.8318
 250  879.3038
 251  889.7156
 252  861.2791
 253  911.347
 254  603.389
 255  861.2605
 256  978.1383
 257  648.1339
 258  516.6747
 259  846.601
 260  911.5084
 261  966.0544
 262  791.6238
 263  991.2878
 264  1110.612
 265  1187.137
 266  725.6541
 267  696.7662
 268  988.1915
 269  1038.041
 270  1152.981
 271  1257.193
 272  1016.772
 273  927.8161
 274  965.6167
 275  1292.457
 276  962.1304
 277  559.2395
 278  983.08
 279  844.5681
 280  774.7125
 281  1063.394
 282  764.4448
 283  868.9506
 284  800.1892
 285  895.6724
 286  670.9824
 287  436.7256
 288  834.8482
 289  975.7598
 290  778.0869
 291  874.4836
 292  819.9063
 293  505.1864
 294  699.1273
 295  803.1495
 296  557.4531
 297  742.5355
 298  777.5183
 299  1065.432
 300  790.5621
 301  781.7119
 302  688.5104
 303  908.5261
 304  821.3991
 305  720.3914
 306  675.0777
 307  533.993
 308  899.687
 309  829.5552
 310  785.3859
 311  828.4278
 312  810.0161
 313  778.3257
 314  598.3796
 315  557.0436
 316  960.9411
 317  1128.373
 318  1215.855
 319  640.5873
 320  413.5323
 321  863.3071
 322  989.5371
 323  826.7175
 324  671.4337
 325  656.3799
 326  986.6015
 327  698.9009
 328  670.3262
 329  483.6341
 330  611.899
 331  893.9376
 332  945.3707
 333  1169.455
 334  758.1988
 335  927.0706
 336  998.7487
 337  901.6664
 338  751.8397
 339  718.4252
 340  951.8369
 341  716.0101
 342  783.713
 343  745.6572
 344  889.9172
 345  1083.059
 346  924.548
 347  577.4603
 348  598.2253
 349  814.1805
 350  910.3953
 351  813.5646
 352  751.5151
 353  995.1312
 354  896.6484
 355  862.5044
 356  956.2066
 357  651.7042
 358  488.8934
 359  717.895
 360  1015.775
 361  1170.89
 362  941.1953
 363  934.0391
 364  986.0464
 365  812.2107
 366  1056.167
 367  871.302
 368  768.2502
 369  836.3406
 370  703.1851
 371  577.9716
 372  823.2261
 373  1151.594
 374  916.3145
 375  930.4936
 376  1129.151
 377  1002.042
 378  598.6072
 379  763.384
 380  482.499
 381  483.5644
 382  373.6113
 383  535.418
 384  839.7744
 385  582.3721
 386  579.0562
 387  603.4343
 388  761.9719
 389  760.3661
 390  652.7602
 391  590.6777
 392  1090.334
 393  1084.158
 394  932.7273
 395  938.8203
 396  910.9009
 397  1302.919
 398  737.6932
 399  426.0128
 400  923.981
 401  1104.107
 402  943.9737
 403  736.1539
 404  631.5517
 405  583.0023
 406  784.8839
 407  510.0984
 408  906.4179
 409  1282.189
 410  747.0358
 411  414.7512
 412  570.276
 413  855.8188
 414  808.5845
 415  605.6787
 416  540.8152
 417  510.8939
 418  1034.38
 419  600.0901
 420  678.3226
 421  992.7808
 422  874.7308
 423  1089.94
 424  1051.542
 425  859.0477
 426  727.2627
 427  838.512
 428  1303.168
 429  920.9999
 430  783.4372
 431  805.7949
 432  799.3856
 433  1122.642
 434  1162.324
 435  677.499
 436  835.6362
 437  712.7103
 438  625.3416
 439  966.0538
 440  1119.006
 441  773.5908
 442  659.5663
 443  982.4387
 444  985.0512
 445  827.2562
 446  828.8707
 447  972.9608
 448  841.407
 449  413.5912
 450  507.3413
 451  777.673
 452  827.8635
 453  406.2763
 454  307.4442
 455  500.2651
 456  586.8533
 457  870.1407
 458  705.2725
 459  591.3994
 460  507.0116
 461  821.6674
 462  671.8019
 463  527.834
 464  625.5362
 465  640.3342
 466  921.5732
 467  1008.051
 468  945.6473
 469  944.5125
 470  661.0991
 471  495.335
 472  553.3563
 473  664.5845
 474  635.9809
 475  699.1079
 476  1121.35
 477  1089.032
 478  753.0966
 479  561.6104
 480  400.0328
 481  613.901
 482  1033.948
 483  661.2757
 484  889.6438
 485  1085.067
 486  991.6444
 487  820.7574
 488  828.4861
 489  636.7505
 490  951.2947
 491  1014.376
 492  768.2054
 493  716.241
 494  848.1686
 495  1303.127
 496  724.5891
 497  416.7171
 498  787.9652
 499  694.8199
 500  535.9081
 501  263.0147
 502  727.2143
 503  1146.368
 504  1182.987
 505  849.5219
 506  820.1078
 507  897.5878
 508  523.5562
 509  627.8501
 510  388.7233
 511  447.8697
