# Input file       =  1201174118.105377_cleaned.dat
# Candidate        =  PSR_0332+5434
# Telescope        =  AR
# Epoch_topo       =  58146.478438719641
# Epoch_bary       =  N/A
# T_sample         =  0.002
# Data Folded      =  7208960
# Data Avg         =  0.0955189894546166
# Data StdDev      =  3.85085851437391 
# Profile Bins     =  512
# Profile Avg      =  1344.71150468163 
# Profile StdDev   =  456.939697413108 
# Reduced chi-sqr  =  1.056
# Prob(Noise)      <  0.186   (~0.9 sigma)
# P_topo (ms)      =  714.574342161438  +/- 3.33e-05
# P'_topo (s/s)    =  -0                +/- 1.79e-11
# P''_topo (s/s^2) =  0                 +/- 8.03e-15
# P_bary (ms)      =  N/A
# P'_bary (s/s)    =  N/A
# P''_bary (s/s^2) =  N/A
# P_orb (s)        =  N/A
# asin(i)/c (s)    =  N/A
# eccentricity     =  N/A
# w (rad)          =  N/A
# T_peri           =  N/A
######################################################
   0  1876.586
   1  1497.725
   2  925.6712
   3  753.613
   4  1219.018
   5  1443.312
   6  1523.556
   7  1724.882
   8  1476.087
   9  1091.653
  10  786.8329
  11  658.0495
  12  848.5321
  13  1334.713
  14  1116.975
  15  1358.016
  16  1767.521
  17  1344.503
  18  672.7601
  19  1089.631
  20  1613.184
  21  1535.216
  22  1276.756
  23  1357.005
  24  1446.086
  25  1145.178
  26  735.896
  27  506.7744
  28  1101.294
  29  762.0522
  30  775.1085
  31  1445.922
  32  1821.979
  33  1469.339
  34  1510.848
  35  1098.11
  36  995.0421
  37  807.3595
  38  1090.388
  39  1370.725
  40  1538.433
  41  1718.655
  42  1520.223
  43  1007.622
  44  848.6013
  45  798.7236
  46  1053.969
  47  1277.908
  48  1607.637
  49  1753.919
  50  1449.834
  51  1179.207
  52  1223.506
  53  1463.992
  54  1629.649
  55  1309.338
  56  1314.69
  57  1443.53
  58  1340.605
  59  1378.859
  60  1093.127
  61  1015.633
  62  1264.486
  63  1618.574
  64  1443.055
  65  1774.253
  66  1806.344
  67  1590.669
  68  1396.393
  69  1192.315
  70  1421.895
  71  1274.467
  72  1364.351
  73  1473.503
  74  1224.896
  75  918.8899
  76  974.619
  77  874.846
  78  920.2742
  79  1476.411
  80  1258.246
  81  1378.214
  82  1269.84
  83  1317.719
  84  1184.083
  85  1182.374
  86  1438.985
  87  1348.332
  88  1676.954
  89  1649.184
  90  1406.995
  91  1267.303
  92  974.3304
  93  850.4407
  94  818.3542
  95  1156.495
  96  1451.709
  97  1664.336
  98  1738.084
  99  1763.715
 100  1481.972
 101  1265.088
 102  1276.483
 103  1276.921
 104  1321.798
 105  1809.013
 106  1734.539
 107  1766.02
 108  1370.499
 109  1061.283
 110  764.4777
 111  1088.198
 112  1268.433
 113  1135.843
 114  1418.522
 115  1615.525
 116  1614.768
 117  1539.187
 118  1361.049
 119  1642.022
 120  1483.063
 121  1385.59
 122  1166.011
 123  1505.949
 124  1510.995
 125  1480.552
 126  1178.208
 127  1072.29
 128  903.8843
 129  1094.048
 130  1754.232
 131  1866.475
 132  1500.291
 133  1504.397
 134  1172.995
 135  1226.086
 136  1003.817
 137  1500.052
 138  1361.806
 139  1174.438
 140  1290.159
 141  1515.932
 142  1185.661
 143  695.1849
 144  1045.286
 145  1306.819
 146  1337.255
 147  1500.124
 148  1644.855
 149  1209.675
 150  1215.406
 151  1077.608
 152  1611.5
 153  1684.186
 154  1356.528
 155  1436.803
 156  1151.924
 157  1049.901
 158  1014.983
 159  1063.048
 160  1252.983
 161  1435.651
 162  1862.199
 163  1782.587
 164  1765.637
 165  1146.6
 166  879.9071
 167  1067.718
 168  1349.928
 169  1586.112
 170  1875.336
 171  1869.341
 172  1525.277
 173  1046.996
 174  820.0585
 175  825.9662
 176  972.0651
 177  1070.432
 178  1315.973
 179  1697.92
 180  1671.696
 181  1793.427
 182  1550.015
 183  1304.11
 184  1274.53
 185  1352.057
 186  1388.873
 187  1403.694
 188  1534.935
 189  1703.783
 190  1504.54
 191  980.6035
 192  870.4255
 193  938.8155
 194  1244.944
 195  1459.796
 196  1188.923
 197  1530.38
 198  1812.711
 199  1497.183
 200  1044.365
 201  1067.382
 202  1182.274
 203  1418.715
 204  1735.78
 205  1566.536
 206  1261.738
 207  1119.386
 208  1121.604
 209  911.2607
 210  1157.84
 211  1579.085
 212  1376.027
 213  1467.119
 214  1473.445
 215  1545.326
 216  1545.362
 217  1155.947
 218  1057.053
 219  1202.249
 220  1391.111
 221  1567.515
 222  1521.869
 223  1545.684
 224  1388.637
 225  897.2747
 226  1086.296
 227  1171.331
 228  1369.714
 229  1611.686
 230  1668.767
 231  1639.863
 232  1388.916
 233  1206.404
 234  1379.451
 235  1761.451
 236  1786.57
 237  1938.452
 238  2001.101
 239  1618.941
 240  1307.178
 241  940.1189
 242  813.0359
 243  916.7516
 244  988.5197
 245  1388.983
 246  1719.477
 247  1857.178
 248  1671.168
 249  1555.878
 250  1226.489
 251  1072.791
 252  1335.742
 253  1626.141
 254  1748.484
 255  1749.173
 256  1534.076
 257  1516.108
 258  1087.704
 259  709.1798
 260  806.3431
 261  1144.945
 262  1361.234
 263  1689.039
 264  1666.473
 265  1479.805
 266  1454.982
 267  1202.017
 268  1317.738
 269  1651.67
 270  1625.413
 271  1482.412
 272  1315.007
 273  1246.54
 274  1054.593
 275  730.5074
 276  732.4584
 277  1435.03
 278  1709.202
 279  1440.021
 280  1484.544
 281  1585.916
 282  1193.823
 283  1044.648
 284  1113.17
 285  1364.802
 286  1419.912
 287  1558.436
 288  1500.001
 289  1199.138
 290  725.9693
 291  947.475
 292  596.8657
 293  541.0176
 294  905.221
 295  1317.373
 296  1447.464
 297  1819.679
 298  1409.109
 299  1560.908
 300  1467.568
 301  1365.746
 302  1302.564
 303  1178.202
 304  1218.64
 305  1198.229
 306  1299.249
 307  1492.592
 308  892.8051
 309  753.1533
 310  1313.844
 311  1758.879
 312  2003.026
 313  2043.916
 314  1926.525
 315  1532.007
 316  1492.69
 317  1986.384
 318  2403.588
 319  2893.164
 320  3173.49
 321  2840.933
 322  2300.825
 323  1496.716
 324  827.5937
 325  798.8094
 326  1039.461
 327  1448.204
 328  1580.97
 329  1816.935
 330  1884.514
 331  1664.537
 332  1333.275
 333  1397.95
 334  1322.965
 335  1364.508
 336  1469.461
 337  1650.59
 338  1485.708
 339  1314.713
 340  1262.768
 341  937.6529
 342  954.4127
 343  970.0111
 344  1467.308
 345  1623.161
 346  1451.349
 347  1296.197
 348  872.5173
 349  908.4501
 350  1072.26
 351  1263.892
 352  1566.24
 353  1782.781
 354  1679.218
 355  1427.276
 356  1118.492
 357  703.4037
 358  516.9954
 359  776.9889
 360  1210.423
 361  1691.671
 362  1754.929
 363  1783.6
 364  1263.697
 365  1363.848
 366  1447.665
 367  1543.811
 368  901.3671
 369  1117.008
 370  1511.795
 371  1451.068
 372  1332.564
 373  783.2902
 374  847.9482
 375  850.0077
 376  836.7331
 377  1198.668
 378  1480.855
 379  1388.786
 380  1458.184
 381  1360.662
 382  947.1599
 383  950.2471
 384  1425.281
 385  1171.729
 386  1415.985
 387  1245.934
 388  1168.498
 389  1328.051
 390  831.1614
 391  691.2595
 392  986.9756
 393  1208.344
 394  1634.643
 395  1661.362
 396  1846.541
 397  1585.952
 398  1200.756
 399  1316.859
 400  1346.882
 401  1251.556
 402  1310.298
 403  1343.311
 404  1400.695
 405  1332.426
 406  1340.625
 407  1126.404
 408  917.1332
 409  1688.915
 410  1841.222
 411  1614.792
 412  1444.18
 413  1460.227
 414  1435.902
 415  1187.173
 416  1225.066
 417  1610.928
 418  1721.297
 419  1463.544
 420  1276.326
 421  1072.077
 422  1092.614
 423  1099.715
 424  733.3282
 425  1062.114
 426  1494.713
 427  1633.408
 428  2169.113
 429  1816.179
 430  1402.04
 431  989.202
 432  741.9163
 433  965.0717
 434  1098.898
 435  1590.058
 436  1805.548
 437  1422.063
 438  1281.995
 439  1100.189
 440  931.7575
 441  938.8393
 442  1290.879
 443  1548.73
 444  1808.124
 445  1717.201
 446  1332.978
 447  1049.986
 448  1080.498
 449  1436.983
 450  1610.281
 451  1324.649
 452  1445.42
 453  1462.042
 454  1509.189
 455  1221.645
 456  987.5714
 457  679.4618
 458  1061.986
 459  1158.884
 460  1918.107
 461  1522.637
 462  1748.1
 463  1506.598
 464  1303.609
 465  1087.295
 466  1112.828
 467  1174.338
 468  1517.005
 469  1923.395
 470  2057.906
 471  1832.785
 472  1358.428
 473  1080.358
 474  1315.38
 475  816.0507
 476  1151.557
 477  1785.589
 478  2217.251
 479  1800.758
 480  1790.476
 481  1181.207
 482  930.896
 483  1189.405
 484  1489.271
 485  1720.071
 486  1564.005
 487  1515.482
 488  1387.282
 489  998.9911
 490  1042.941
 491  1399.908
 492  1758.999
 493  1557.936
 494  1460.185
 495  1646.761
 496  1499.44
 497  1344.175
 498  988.9189
 499  1147.342
 500  1498.27
 501  1585.689
 502  1640.997
 503  1263.597
 504  1101.381
 505  1133.794
 506  866.9164
 507  599.2966
 508  1097.511
 509  1138.468
 510  1488.665
 511  1820.272
