# Input file       =  1201619709.104547_cleaned.dat
# Candidate        =  PSR_0332+5434
# Telescope        =  AR
# Epoch_topo       =  58151.635741950777
# Epoch_bary       =  N/A
# T_sample         =  0.002
# Data Folded      =  7340032
# Data Avg         =  0.112395450183872
# Data StdDev      =  4.1663733703196  
# Profile Bins     =  1024
# Profile Avg      =  805.674263969151 
# Profile StdDev   =  352.742009821046 
# Reduced chi-sqr  =  0.678
# Prob(Noise)      <  1   (~0.0 sigma)
# P_topo (ms)      =  714.576554795681  +/- 0.000211
# P'_topo (s/s)    =  -0                +/- 1.11e-10
# P''_topo (s/s^2) =  0                 +/- 4.91e-14
# P_bary (ms)      =  N/A
# P'_bary (s/s)    =  N/A
# P''_bary (s/s^2) =  N/A
# P_orb (s)        =  N/A
# asin(i)/c (s)    =  N/A
# eccentricity     =  N/A
# w (rad)          =  N/A
# T_peri           =  N/A
######################################################
   0  698.4343
   1  783.5255
   2  905.0806
   3  735.6989
   4  692.4618
   5  591.1775
   6  546.4198
   7  605.3082
   8  750.4652
   9  838.4598
  10  879.6026
  11  852.0792
  12  880.6342
  13  857.156
  14  815.9279
  15  817.9211
  16  843.314
  17  816.2138
  18  742.0629
  19  683.3408
  20  743.5154
  21  776.5088
  22  809.7904
  23  821.5428
  24  741.0173
  25  836.3798
  26  845.0045
  27  943.9648
  28  923.3409
  29  1019.862
  30  1082.259
  31  1090.902
  32  1062.336
  33  882.73
  34  825.9791
  35  836.3657
  36  851.3429
  37  798.1821
  38  679.8632
  39  716.3737
  40  829.2892
  41  909.4646
  42  924.7278
  43  969.9344
  44  861.0695
  45  764.4811
  46  749.8105
  47  882.3167
  48  900.0835
  49  804.5742
  50  703.6332
  51  679.5847
  52  553.9324
  53  677.9605
  54  784.6147
  55  878.7839
  56  981.0132
  57  961.8501
  58  1059.016
  59  1198.307
  60  1249.549
  61  1250.954
  62  1085.932
  63  1082.299
  64  1004.69
  65  947.5449
  66  981.7038
  67  1160.605
  68  1116.194
  69  1229.43
  70  1097.991
  71  1162.688
  72  1147.333
  73  1119.364
  74  1044.905
  75  1009.746
  76  983.1605
  77  959.9354
  78  942.1846
  79  1079.883
  80  1201.413
  81  1133.217
  82  1111.256
  83  1055.463
  84  1038.882
  85  977.1042
  86  887.8878
  87  867.8828
  88  762.9991
  89  707.5389
  90  843.2542
  91  893.595
  92  879.4277
  93  809.6729
  94  889.6655
  95  817.4984
  96  811.8574
  97  906.9982
  98  1024.129
  99  873.4833
 100  833.0469
 101  921.5972
 102  936.4501
 103  806.3293
 104  705.94
 105  644.0086
 106  592.3046
 107  580.0998
 108  680.7324
 109  772.5153
 110  805.704
 111  990.1464
 112  1032.597
 113  885.1857
 114  829.6685
 115  799.2113
 116  960.9366
 117  859.5599
 118  938.6001
 119  837.6005
 120  791.2294
 121  745.4627
 122  808.9964
 123  799.4211
 124  704.7952
 125  711.6092
 126  826.344
 127  791.8344
 128  742.4195
 129  658.7138
 130  641.7331
 131  631.0891
 132  654.0099
 133  616.4552
 134  453.3697
 135  482.0896
 136  547.8135
 137  790.4213
 138  790.7476
 139  783.6296
 140  763.1157
 141  699.8011
 142  766.9274
 143  801.5266
 144  896.2042
 145  916.0628
 146  849.486
 147  863.8212
 148  647.0293
 149  537.7319
 150  514.6249
 151  681.4383
 152  806.8105
 153  762.7625
 154  713.0167
 155  669.3104
 156  735.8004
 157  772.3705
 158  905.0682
 159  912.9802
 160  888.3815
 161  955.793
 162  887.1301
 163  914.728
 164  868.7619
 165  966.4659
 166  1038.434
 167  862.8899
 168  757.2858
 169  563.5556
 170  649.9097
 171  741.6653
 172  873.0746
 173  898.2051
 174  813.5555
 175  693.4355
 176  724.3852
 177  601.9952
 178  631.4266
 179  646.6642
 180  787.1603
 181  818.0175
 182  872.7813
 183  889.486
 184  856.3696
 185  736.7504
 186  853.5712
 187  1070.84
 188  1002.157
 189  875.914
 190  827.5965
 191  910.6913
 192  869.5768
 193  778.0799
 194  870.1376
 195  947.4525
 196  1015.854
 197  1106.913
 198  1064.514
 199  1081.39
 200  1035.507
 201  1049.777
 202  1031.017
 203  912.7375
 204  952.9642
 205  822.0274
 206  616.7012
 207  539.3289
 208  782.9083
 209  908.0859
 210  887.6192
 211  819.3961
 212  877.7353
 213  807.6483
 214  747.9785
 215  830.1526
 216  851.5718
 217  766.8733
 218  660.2169
 219  708.1827
 220  754.5394
 221  723.3189
 222  658.253
 223  698.5073
 224  703.7948
 225  808.3768
 226  847.9264
 227  780.9363
 228  810.9557
 229  726.9196
 230  663.3822
 231  448.2585
 232  443.5947
 233  531.1134
 234  527.8497
 235  521.0148
 236  512.6479
 237  591.8228
 238  708.4866
 239  688.0432
 240  721.4022
 241  681.6017
 242  796.7792
 243  789.41
 244  956.9726
 245  890.3778
 246  833.9532
 247  628.2592
 248  570.8269
 249  616.3422
 250  637.7068
 251  677.8122
 252  904.1384
 253  1008.027
 254  885.6982
 255  629.1846
 256  582.3167
 257  583.3541
 258  755.5992
 259  665.2023
 260  695.1548
 261  635.9028
 262  675.7394
 263  654.4058
 264  701.5759
 265  799.3022
 266  737.7339
 267  705.8491
 268  667.8716
 269  619.6989
 270  582.4663
 271  603.1837
 272  631.6354
 273  750.1706
 274  638.0229
 275  634.4992
 276  611.7349
 277  616.4172
 278  631.5097
 279  553.0056
 280  562.7585
 281  628.3705
 282  591.4855
 283  759.3853
 284  676.5635
 285  607.6452
 286  492.0388
 287  613.9902
 288  804.5629
 289  883.4526
 290  868.907
 291  805.3311
 292  623.9163
 293  637.6246
 294  645.45
 295  650.5826
 296  494.3258
 297  489.8208
 298  550.998
 299  574.4019
 300  621.403
 301  763.4366
 302  951.9304
 303  837.6833
 304  871.8322
 305  783.5926
 306  788.941
 307  630.8506
 308  655.4067
 309  743.5445
 310  700.8662
 311  650.9703
 312  668.3751
 313  888.3352
 314  963.4608
 315  878.8656
 316  817.0099
 317  906.7692
 318  983.5782
 319  899.3237
 320  676.4963
 321  691.1851
 322  849.701
 323  869.6853
 324  785.61
 325  671.4918
 326  717.6677
 327  776.3231
 328  863.6612
 329  938.4409
 330  1124.714
 331  1014.772
 332  980.5377
 333  988.0231
 334  896.4011
 335  710.4797
 336  540.3254
 337  646.7838
 338  757.2101
 339  755.2713
 340  809.3566
 341  733.9076
 342  655.6107
 343  512.5302
 344  530.3776
 345  682.38
 346  774.9935
 347  773.9193
 348  860.9757
 349  776.8423
 350  777.1624
 351  754.4783
 352  742.9769
 353  651.6496
 354  678.6843
 355  786.9851
 356  795.9716
 357  737.3214
 358  765.338
 359  877.6858
 360  1063.481
 361  1128.568
 362  958.0581
 363  749.5459
 364  656.7773
 365  718.6804
 366  819.7355
 367  930.8455
 368  847.9341
 369  808.4725
 370  639.6574
 371  702.8036
 372  781.092
 373  900.9866
 374  889.2394
 375  807.428
 376  735.3192
 377  687.622
 378  650.3403
 379  665.2097
 380  772.2874
 381  852.7215
 382  945.4454
 383  865.5436
 384  752.0384
 385  697.6076
 386  751.5776
 387  778.3536
 388  819.036
 389  715.0928
 390  732.9854
 391  712.8137
 392  768.2584
 393  794.1677
 394  770.8723
 395  845.9753
 396  804.5377
 397  842.2797
 398  766.6731
 399  738.7478
 400  700.9232
 401  797.8158
 402  841.5544
 403  906.1797
 404  910.8802
 405  907.8982
 406  896.8315
 407  683.703
 408  659.2549
 409  603.5357
 410  573.6553
 411  690.6655
 412  764.044
 413  928.6084
 414  805.9329
 415  784.4735
 416  825.6574
 417  791.986
 418  741.7636
 419  810.8727
 420  813.694
 421  794.1924
 422  599.1931
 423  592.4258
 424  675.2224
 425  628.016
 426  568.1218
 427  485.0742
 428  486.062
 429  636.9263
 430  738.714
 431  828.3499
 432  779.8974
 433  825.479
 434  891.2228
 435  869.7113
 436  813.3696
 437  658.6547
 438  618.236
 439  594.0453
 440  679.9307
 441  726.6691
 442  755.3121
 443  717.9193
 444  663.6174
 445  692.9979
 446  725.5226
 447  724.9534
 448  727.9781
 449  754.7769
 450  817.4493
 451  870.3499
 452  900.8883
 453  863.7776
 454  781.3785
 455  685.7422
 456  674.1179
 457  760.6723
 458  830.0277
 459  926.5393
 460  855.5001
 461  783.4672
 462  701.0784
 463  612.8972
 464  669.2017
 465  788.7544
 466  913.1218
 467  860.4758
 468  695.3923
 469  584.7402
 470  579.3265
 471  738.1494
 472  757.4459
 473  811.8773
 474  778.6385
 475  802.2234
 476  780.1912
 477  872.2967
 478  955.1531
 479  1037.175
 480  1019.858
 481  1079.552
 482  964.7686
 483  894.3943
 484  749.7936
 485  739.5569
 486  838.4351
 487  809.4586
 488  817.7546
 489  847.4966
 490  964.9117
 491  1094.809
 492  1078.691
 493  1056.236
 494  1076.276
 495  1014.332
 496  983.3678
 497  921.7714
 498  1016.499
 499  948.2631
 500  742.4517
 501  747.1912
 502  956.2867
 503  1110.477
 504  1066.603
 505  992.3337
 506  1038.906
 507  1146.249
 508  1116.622
 509  963.3216
 510  880.8984
 511  858.5678
 512  886.4899
 513  871.9523
 514  794.9964
 515  782.5605
 516  891.7535
 517  932.5462
 518  979.3425
 519  902.9928
 520  993.1549
 521  1006.117
 522  980.0676
 523  931.0868
 524  807.5041
 525  702.2595
 526  731.0169
 527  844.6907
 528  1070.573
 529  1017.048
 530  1068.427
 531  1106.229
 532  1104.803
 533  969.1041
 534  826.5412
 535  870.6249
 536  792.9843
 537  761.9453
 538  856.0717
 539  791.5126
 540  653.8771
 541  496.2262
 542  525.3669
 543  624.8516
 544  636.7755
 545  653.7659
 546  741.9808
 547  770.1175
 548  832.7347
 549  726.2528
 550  706.6924
 551  707.8616
 552  779.6072
 553  762.8124
 554  718.481
 555  784.2419
 556  720.3073
 557  623.6603
 558  573.272
 559  637.5956
 560  738.8274
 561  840.0962
 562  904.741
 563  880.6271
 564  914.1487
 565  937.5435
 566  977.8326
 567  737.5942
 568  603.2731
 569  700.3216
 570  732.6104
 571  550.9532
 572  473.3225
 573  609.5771
 574  723.1363
 575  816.3886
 576  829.9928
 577  867.4539
 578  819.2665
 579  915.8301
 580  901.1971
 581  846.2742
 582  808.5107
 583  784.7003
 584  778.367
 585  659.7717
 586  745.6077
 587  905.7346
 588  1069.861
 589  995.4813
 590  1000.03
 591  1055.034
 592  1017.51
 593  1090.259
 594  1076.383
 595  1041.158
 596  983.3983
 597  849.7015
 598  848.6074
 599  721.5144
 600  774.9502
 601  802.2204
 602  1007.639
 603  1065.686
 604  1128.641
 605  1066.355
 606  1160.64
 607  1105.745
 608  1168.346
 609  1171.443
 610  1178.011
 611  1252.468
 612  1361.611
 613  1454.271
 614  1370.865
 615  1354.516
 616  1402.486
 617  1524.832
 618  1473.739
 619  1416.957
 620  1241.887
 621  1061.023
 622  909.5329
 623  833.2678
 624  828.7927
 625  768.8727
 626  794.0554
 627  829.5197
 628  902.8188
 629  883.3905
 630  872.2652
 631  804.9255
 632  888.2697
 633  939.1967
 634  1021.419
 635  845.0884
 636  693.6558
 637  672.6871
 638  669.694
 639  713.0786
 640  731.4612
 641  864.8281
 642  838.1863
 643  757.2875
 644  767.8867
 645  851.7375
 646  946.2711
 647  890.822
 648  901.7685
 649  722.1746
 650  568.7404
 651  534.4658
 652  666.7479
 653  817.5927
 654  831.6476
 655  800.3693
 656  819.7679
 657  848.8979
 658  773.623
 659  675.0612
 660  677.4302
 661  777.4337
 662  755.2974
 663  662.1514
 664  490.5154
 665  436.8747
 666  519.588
 667  541.7767
 668  373.8301
 669  355.0039
 670  458.565
 671  698.4352
 672  765.3485
 673  860.0502
 674  875.5766
 675  817.7208
 676  793.2022
 677  714.6006
 678  681.7963
 679  618.5181
 680  581.7414
 681  613.2332
 682  652.3032
 683  683.3164
 684  785.8824
 685  801.9554
 686  751.8786
 687  636.5641
 688  486.6987
 689  404.4771
 690  419.711
 691  589.2548
 692  665.4715
 693  627.6494
 694  687.7111
 695  797.3506
 696  824.91
 697  758.7615
 698  705.4504
 699  734.489
 700  770.0376
 701  763.4502
 702  767.9582
 703  705.5622
 704  628.0532
 705  608.553
 706  740.0341
 707  863.3915
 708  792.2769
 709  777.3773
 710  837.367
 711  950.0477
 712  925.5198
 713  846.2051
 714  848.6036
 715  851.066
 716  947.4913
 717  858.2462
 718  831.588
 719  647.4673
 720  756.3641
 721  869.223
 722  1030.524
 723  992.3782
 724  1048.524
 725  1126.293
 726  1131.958
 727  1071.772
 728  969.705
 729  940.4557
 730  921.0184
 731  945.1049
 732  978.0461
 733  1008.824
 734  1017.705
 735  982.3142
 736  938.9837
 737  912.8832
 738  839.9631
 739  859.1376
 740  787.2599
 741  879.7722
 742  867.9098
 743  796.1597
 744  771.3123
 745  811.1154
 746  890.1894
 747  804.35
 748  806.2345
 749  812.15
 750  939.264
 751  995.5739
 752  1052.585
 753  874.4362
 754  739.0667
 755  877.81
 756  873.8822
 757  836.5465
 758  648.9824
 759  652.2759
 760  730.2047
 761  680.2242
 762  782.1182
 763  860.3898
 764  1014.46
 765  968.5226
 766  911.2421
 767  785.6528
 768  746.4345
 769  616.1862
 770  705.8362
 771  694.1484
 772  742.2239
 773  797.2639
 774  845.0779
 775  883.1504
 776  844.3332
 777  791.9112
 778  779.3353
 779  725.1465
 780  584.3082
 781  529.7997
 782  510.026
 783  629.601
 784  724.8693
 785  766.9882
 786  744.1598
 787  789.1279
 788  758.6172
 789  769.0493
 790  861.7255
 791  1008.297
 792  1008.621
 793  931.4144
 794  849.7653
 795  896.5573
 796  962.2791
 797  1000.891
 798  909.7747
 799  942.1119
 800  884.7727
 801  979.2693
 802  932.1218
 803  968.7844
 804  819.7131
 805  667.4182
 806  702.3458
 807  851.9776
 808  1074.205
 809  1246.873
 810  1226.668
 811  1053.032
 812  1092.006
 813  1047.449
 814  1061.469
 815  899.5223
 816  849.9916
 817  870.3379
 818  890.6486
 819  998.1289
 820  1046.816
 821  884.1312
 822  874.7392
 823  897.8292
 824  896.7917
 825  960.1755
 826  959.8716
 827  968.089
 828  947.3293
 829  927.8257
 830  787.4775
 831  684.4559
 832  726.2815
 833  711.9285
 834  549.4175
 835  521.9075
 836  590.7292
 837  594.8472
 838  660.7628
 839  840.9768
 840  952.9326
 841  993.4653
 842  849.326
 843  827.5488
 844  786.9168
 845  837.9733
 846  754.488
 847  700.2442
 848  535.5878
 849  540.531
 850  595.6728
 851  702.4987
 852  732.9891
 853  754.7615
 854  763.252
 855  688.0968
 856  709.6756
 857  573.2178
 858  574.0668
 859  664.1343
 860  747.2822
 861  826.3888
 862  875.2408
 863  954.5894
 864  988.4901
 865  828.4593
 866  830.0233
 867  835.8342
 868  761.0393
 869  728.9359
 870  710.3176
 871  705.6064
 872  557.3773
 873  443.9016
 874  523.9229
 875  682.7009
 876  756.5715
 877  846.1416
 878  802.4677
 879  728.9955
 880  803.0174
 881  766.667
 882  742.8177
 883  526.6328
 884  562.2742
 885  515.7927
 886  514.8638
 887  558.2484
 888  590.4374
 889  746.3708
 890  676.5356
 891  632.9221
 892  621.4988
 893  668.7482
 894  823.8309
 895  901.7673
 896  944.2418
 897  942.3301
 898  927.5114
 899  940.6763
 900  841.2838
 901  823.1048
 902  797.3079
 903  806.0493
 904  847.806
 905  1074.34
 906  1125.56
 907  1029.251
 908  866.9503
 909  831.6241
 910  864.8592
 911  891.5002
 912  729.5125
 913  664.7269
 914  577.89
 915  708.7832
 916  717.8771
 917  717.8324
 918  758.7222
 919  866.4855
 920  814.2531
 921  858.8521
 922  665.1317
 923  592.4773
 924  752.134
 925  980.59
 926  999.6681
 927  866.7505
 928  866.3953
 929  1007.75
 930  844.7575
 931  677.8634
 932  675.6899
 933  755.7658
 934  852.7972
 935  927.6882
 936  864.7419
 937  776.1202
 938  634.8402
 939  659.454
 940  769.1778
 941  806.9972
 942  859.5863
 943  671.6368
 944  670.3022
 945  695.5345
 946  855.6354
 947  898.9789
 948  929.9886
 949  841.2527
 950  687.292
 951  540.8403
 952  574.8421
 953  717.1459
 954  887.4302
 955  890.5898
 956  809.3497
 957  720.4178
 958  765.8057
 959  788.6571
 960  816.5454
 961  740.0007
 962  706.3361
 963  810.2339
 964  728.8254
 965  734.1575
 966  636.3925
 967  655.7522
 968  661.4295
 969  677.1586
 970  766.2101
 971  742.201
 972  770.2482
 973  708.976
 974  548.7477
 975  435.6402
 976  629.7328
 977  786.0494
 978  957.9132
 979  774.2853
 980  626.5557
 981  723.4442
 982  898.7714
 983  995.1157
 984  851.7722
 985  686.9047
 986  720.9008
 987  780.3087
 988  724.4404
 989  659.7075
 990  563.4872
 991  621.7567
 992  688.7617
 993  752.1348
 994  863.3295
 995  917.9694
 996  900.5989
 997  805.7271
 998  703.0251
 999  720.5058
1000  647.6925
1001  620.8716
1002  714.7381
1003  894.5997
1004  853.3024
1005  749.3032
1006  845.8498
1007  965.3533
1008  1051.102
1009  823.0522
1010  711.683
1011  720.8087
1012  692.0604
1013  620.7517
1014  536.4702
1015  657.9572
1016  686.5284
1017  747.0437
1018  814.7961
1019  859.7894
1020  882.0926
1021  852.1906
1022  752.9658
1023  616.4868
