# Input file       =  1201447310.101719_cleaned.dat
# Candidate        =  PSR_0332+5434
# Telescope        =  AR
# Epoch_topo       =  58149.640383121747
# Epoch_bary       =  N/A
# T_sample         =  0.002
# Data Folded      =  7340032
# Data Avg         =  0.0298105325585444
# Data StdDev      =  1.00009041681344 
# Profile Bins     =  512
# Profile Avg      =  427.345178235629 
# Profile StdDev   =  119.743862256378 
# Reduced chi-sqr  =  1.242
# Prob(Noise)      <  0.000147   (~3.6 sigma)
# P_topo (ms)      =  714.575753210691  +/- 0.000282
# P'_topo (s/s)    =  -0                +/- 1.49e-10
# P''_topo (s/s^2) =  0                 +/- 6.58e-14
# P_bary (ms)      =  N/A
# P'_bary (s/s)    =  N/A
# P''_bary (s/s^2) =  N/A
# P_orb (s)        =  N/A
# asin(i)/c (s)    =  N/A
# eccentricity     =  N/A
# w (rad)          =  N/A
# T_peri           =  N/A
######################################################
   0  1102.119
   1  964.3611
   2  938.7823
   3  703.8785
   4  452.9759
   5  447.42
   6  422.3051
   7  459.6673
   8  488.5579
   9  592.3874
  10  506.8227
  11  398.9955
  12  470.6803
  13  455.8089
  14  381.4294
  15  349.4294
  16  407.1017
  17  389.5322
  18  379.3258
  19  403.3318
  20  466.1645
  21  430.9275
  22  465.2889
  23  356.1265
  24  323.5656
  25  495.513
  26  562.4314
  27  521.0181
  28  441.9054
  29  430.6195
  30  368.064
  31  323.9653
  32  347.0013
  33  390.8118
  34  323.8394
  35  245.5381
  36  257.8695
  37  241.9338
  38  247.0543
  39  161.2972
  40  289.5018
  41  397.3893
  42  428.6057
  43  392.3326
  44  480.8798
  45  404.1075
  46  344.8014
  47  468.2699
  48  446.8974
  49  383.6473
  50  305.3006
  51  388.1225
  52  286.7749
  53  242.7929
  54  318.8479
  55  318.126
  56  321.7859
  57  307.8891
  58  294.8155
  59  359.5342
  60  368.0545
  61  417.0574
  62  412.652
  63  382.6936
  64  386.3229
  65  349.0301
  66  412.1929
  67  415.2182
  68  443.6537
  69  508.2734
  70  470.8491
  71  334.853
  72  313.7202
  73  366.2851
  74  435.7333
  75  478.0802
  76  522.2759
  77  428.4092
  78  426.1103
  79  379.1398
  80  336.5071
  81  356.3957
  82  366.8163
  83  380.855
  84  389.1595
  85  430.0012
  86  429.5732
  87  362.1202
  88  455.761
  89  358.9884
  90  286.6046
  91  401.8032
  92  524.4811
  93  458.5078
  94  380.4026
  95  444.0702
  96  444.5829
  97  391.9438
  98  439.5713
  99  471.7199
 100  362.8299
 101  297.1296
 102  302.297
 103  362.2719
 104  351.2292
 105  364.3733
 106  498.9004
 107  380.3826
 108  309.1968
 109  456.6233
 110  392.5652
 111  355.7708
 112  355.4622
 113  469.6294
 114  360.9387
 115  366.4449
 116  431.4567
 117  393.2729
 118  424.4026
 119  525.9442
 120  588.429
 121  411.009
 122  431.1859
 123  446.5363
 124  441.9142
 125  426.19
 126  298.3849
 127  420.9471
 128  398.6127
 129  430.7097
 130  296.8113
 131  323.5705
 132  491.6844
 133  457.3298
 134  404.1128
 135  438.0193
 136  441.7694
 137  417.1763
 138  392.479
 139  512.7405
 140  425.3052
 141  343.7937
 142  495.275
 143  457.5525
 144  475.6256
 145  452.8962
 146  435.3734
 147  456.8813
 148  394.1373
 149  485.6523
 150  553.5607
 151  516.1075
 152  433.7379
 153  395.1517
 154  445.7793
 155  502.957
 156  440.5007
 157  457.7936
 158  444.1123
 159  463.1755
 160  591.3653
 161  498.3402
 162  448.097
 163  485.6664
 164  441.583
 165  473.0146
 166  429.655
 167  537.4621
 168  593.1282
 169  460.8655
 170  443.2935
 171  443.7985
 172  454.803
 173  357.5113
 174  333.1614
 175  507.22
 176  512.2723
 177  519.7287
 178  500.9786
 179  415.776
 180  551.4792
 181  562.2097
 182  513.6346
 183  521.3923
 184  411.7954
 185  412.123
 186  377.9818
 187  345.0923
 188  403.2461
 189  452.2922
 190  446.3755
 191  402.1566
 192  466.0221
 193  430.1275
 194  438.6608
 195  488.9207
 196  530.6132
 197  551.1653
 198  528.625
 199  535.6741
 200  524.129
 201  497.9192
 202  453.9381
 203  431.7137
 204  515.28
 205  469.3018
 206  545.4255
 207  572.9084
 208  529.6014
 209  512.0119
 210  532.0823
 211  627.821
 212  550.7753
 213  535.691
 214  454.5338
 215  367.1974
 216  449.4803
 217  448.7028
 218  378.6099
 219  376.5994
 220  453.4014
 221  438.1347
 222  578.0876
 223  587.8649
 224  439.424
 225  268.6483
 226  457.6931
 227  551.9742
 228  638.0468
 229  624.821
 230  538.8772
 231  470.035
 232  528.8078
 233  488.1984
 234  386.6736
 235  365.5867
 236  399.2125
 237  487.0311
 238  480.8913
 239  470.3108
 240  494.761
 241  500.9887
 242  503.4125
 243  500.3069
 244  564.9713
 245  509.4327
 246  567.9351
 247  518.8707
 248  478.3642
 249  509.6923
 250  427.5296
 251  446.8163
 252  477.0172
 253  500.6156
 254  534.7459
 255  334.7494
 256  361.1898
 257  461.5106
 258  420.3227
 259  391.9148
 260  299.3729
 261  399.2692
 262  416.3419
 263  280.7774
 264  326.755
 265  372.1945
 266  415.4424
 267  437.8188
 268  401.8159
 269  335.5385
 270  258.7141
 271  336.3853
 272  390.3144
 273  495.2126
 274  473.3949
 275  446.8454
 276  424.4793
 277  385.3651
 278  517.407
 279  551.8608
 280  501.3788
 281  516.1681
 282  427.1254
 283  439.847
 284  567.4086
 285  484.8093
 286  447.6637
 287  461.6606
 288  505.6457
 289  510.9633
 290  541.663
 291  455.876
 292  361.6767
 293  475.289
 294  451.1568
 295  388.9832
 296  392.3746
 297  425.1764
 298  502.9507
 299  511.8647
 300  460.871
 301  398.6769
 302  461.5542
 303  512.1071
 304  475.9723
 305  368.6384
 306  403.9836
 307  533.6788
 308  560.0516
 309  530.5341
 310  476.9563
 311  465.6878
 312  394.6718
 313  407.1573
 314  364.7648
 315  329.7542
 316  426.9271
 317  424.8718
 318  365.1767
 319  317.2161
 320  357.2225
 321  352.0392
 322  435.1006
 323  401.8853
 324  426.1064
 325  402.5434
 326  421.4518
 327  359.1599
 328  372.2403
 329  360.0638
 330  419.2964
 331  401.256
 332  358.0376
 333  484.3967
 334  376.9676
 335  347.2327
 336  357.5402
 337  385.6931
 338  469.9535
 339  605.2348
 340  499.7104
 341  415.6056
 342  372.548
 343  433.6367
 344  405.0574
 345  388.9707
 346  377.7107
 347  504.7778
 348  462.9094
 349  461.0839
 350  469.4209
 351  355.9367
 352  412.0006
 353  437.2651
 354  510.7156
 355  470.2023
 356  328.7231
 357  393.1317
 358  317.0605
 359  413.6678
 360  440.6523
 361  451.3414
 362  420.6394
 363  354.5196
 364  430.4381
 365  424.6313
 366  312.9785
 367  309.9118
 368  316.438
 369  338.4036
 370  371.3379
 371  345.9406
 372  336.3019
 373  380.5864
 374  436.2292
 375  572.8036
 376  448.6613
 377  528.6766
 378  529.3956
 379  388.5103
 380  416.4887
 381  401.1996
 382  437.294
 383  363.8249
 384  434.8269
 385  499.8285
 386  317.2813
 387  300.3553
 388  259.0191
 389  250.9622
 390  340.3733
 391  411.6594
 392  444.5345
 393  355.6504
 394  300.8041
 395  361.6431
 396  360.1961
 397  445.4261
 398  363.3335
 399  297.7418
 400  360.5311
 401  294.1537
 402  342.5243
 403  414.4402
 404  350.0255
 405  327.6036
 406  305.7626
 407  372.8842
 408  459.2743
 409  420.7417
 410  407.3707
 411  447.1205
 412  440.3357
 413  353.4072
 414  394.9336
 415  420.1829
 416  385.0035
 417  291.4996
 418  415.685
 419  498.655
 420  489.9615
 421  473.9631
 422  332.0542
 423  359.2244
 424  378.206
 425  366.6841
 426  406.5464
 427  325.6873
 428  344.1759
 429  311.9883
 430  306.57
 431  279.6191
 432  367.2621
 433  347.3934
 434  264.6417
 435  298.9523
 436  386.8068
 437  322.0421
 438  379.9203
 439  451.0544
 440  421.3701
 441  330.9869
 442  400.7634
 443  457.4785
 444  386.3594
 445  422.009
 446  408.3643
 447  410.0028
 448  374.9644
 449  406.3607
 450  462.4886
 451  459.6469
 452  504.8188
 453  523.1561
 454  356.4907
 455  240.5073
 456  293.8389
 457  459.9915
 458  389.9662
 459  266.3349
 460  310.7502
 461  327.1967
 462  414.4493
 463  488.8343
 464  383.313
 465  338.0822
 466  354.0266
 467  339.3524
 468  330.5345
 469  335.0052
 470  383.504
 471  434.7487
 472  291.9385
 473  245.6579
 474  301.6098
 475  326.9597
 476  361.1084
 477  423.7044
 478  453.9106
 479  462.4726
 480  387.1838
 481  342.2751
 482  502.3872
 483  473.867
 484  420.7854
 485  403.8484
 486  364.0902
 487  438.1707
 488  437.5634
 489  527.0059
 490  471.2368
 491  394.4407
 492  441.6201
 493  532.6646
 494  464.0866
 495  427.4402
 496  401.8954
 497  361.0365
 498  312.3747
 499  417.2914
 500  441.4004
 501  442.4353
 502  462.0064
 503  428.884
 504  588.4013
 505  624.8815
 506  593.0982
 507  581.198
 508  538.4501
 509  723.0598
 510  925.5717
 511  1000.758
