# Input file       =  1201203673.107899_cleaned.dat
# Candidate        =  PSR_0332+5434
# Telescope        =  AR
# Epoch_topo       =  58146.820510508092
# Epoch_bary       =  N/A
# T_sample         =  0.002
# Data Folded      =  7340032
# Data Avg         =  0.0836734935687024
# Data StdDev      =  3.51005309480715 
# Profile Bins     =  512
# Profile Avg      =  1199.74362782352 
# Profile StdDev   =  420.269314884925 
# Reduced chi-sqr  =  0.940
# Prob(Noise)      <  0.83   (~0.0 sigma)
# P_topo (ms)      =  714.574853415629  +/- 0.000483
# P'_topo (s/s)    =  -0                +/- 2.55e-10
# P''_topo (s/s^2) =  0                 +/- 1.12e-13
# P_bary (ms)      =  N/A
# P'_bary (s/s)    =  N/A
# P''_bary (s/s^2) =  N/A
# P_orb (s)        =  N/A
# asin(i)/c (s)    =  N/A
# eccentricity     =  N/A
# w (rad)          =  N/A
# T_peri           =  N/A
######################################################
   0  936.5887
   1  1280.507
   2  962.829
   3  1027.372
   4  1169.895
   5  954.0878
   6  824.0825
   7  757.6085
   8  939.513
   9  879.1326
  10  1029.326
  11  807.6301
  12  901.4613
  13  1121.899
  14  1400.708
  15  1068.803
  16  884.6196
  17  868.9182
  18  1134.283
  19  1234.903
  20  1270.704
  21  1097.795
  22  1284.728
  23  1032.329
  24  887.7848
  25  1010.843
  26  1044.231
  27  882.7969
  28  1418.252
  29  1359.031
  30  1441.031
  31  1114.143
  32  1127.999
  33  1045.992
  34  1188.58
  35  1447.953
  36  1430.699
  37  1259.919
  38  1210.403
  39  1002.363
  40  964.3777
  41  1000.739
  42  973.0876
  43  1206.58
  44  1429.578
  45  1327.518
  46  1297.16
  47  1223.606
  48  1007.099
  49  737.1127
  50  1052.663
  51  1486.709
  52  1608.255
  53  1460.454
  54  1465.965
  55  1297.855
  56  1182.368
  57  1122.092
  58  1598.414
  59  1764.64
  60  1430.245
  61  1424.238
  62  1193.063
  63  1279.489
  64  1319.589
  65  1412.935
  66  1543.585
  67  1225.544
  68  1130.21
  69  1334.358
  70  1362.028
  71  1337.629
  72  1400.539
  73  1359.965
  74  1091.648
  75  1343.541
  76  922.7299
  77  918.0821
  78  904.2473
  79  1094.184
  80  1190.572
  81  1188.817
  82  1322.369
  83  1197.728
  84  1014.168
  85  1002.692
  86  1182.872
  87  1507.163
  88  1299.161
  89  1094.642
  90  988.1219
  91  1010.142
  92  1216.115
  93  1169.21
  94  1197.612
  95  875.0822
  96  1001.5
  97  1035.434
  98  1142.28
  99  717.3162
 100  839.3718
 101  1072.725
 102  1384.309
 103  1269.736
 104  1216.935
 105  1360.164
 106  1041.28
 107  837.2398
 108  1147.754
 109  1476.27
 110  1468.576
 111  1603.981
 112  1480.503
 113  1482.107
 114  1420.003
 115  1161.29
 116  1031.657
 117  1513.416
 118  1522.136
 119  1567.109
 120  1369.916
 121  1162.552
 122  988.9037
 123  757.8649
 124  1452.928
 125  1562.075
 126  1442.224
 127  1621.163
 128  1267.113
 129  1179.734
 130  1034.31
 131  1098.89
 132  1207.168
 133  1359.886
 134  1168.051
 135  1133.499
 136  1335.926
 137  1585.021
 138  1216.727
 139  1226.39
 140  1253.186
 141  1351.926
 142  1114.589
 143  1277.215
 144  1113.681
 145  815.2199
 146  1068.863
 147  1134.028
 148  1043.242
 149  1185.971
 150  961.917
 151  969.5375
 152  1243.961
 153  1092.256
 154  1195.033
 155  1412.356
 156  1204.95
 157  1254.299
 158  1238.371
 159  1289.345
 160  1256.847
 161  1115.132
 162  1374.519
 163  1080.67
 164  1207.849
 165  1300.547
 166  1604.99
 167  1692.447
 168  1737.541
 169  1779.417
 170  1690.689
 171  1560.439
 172  1793.904
 173  1854.981
 174  1736.06
 175  1434.557
 176  1449.287
 177  1581.293
 178  1227.894
 179  1400.536
 180  1448.027
 181  1513.874
 182  1575.662
 183  1369.419
 184  1290.722
 185  977.8873
 186  961.6598
 187  1053.77
 188  1111.515
 189  920.5033
 190  1080.055
 191  1192.236
 192  1282.498
 193  1441.792
 194  1313.443
 195  1100.452
 196  1419.912
 197  1427.941
 198  1366.871
 199  1452.702
 200  1493.546
 201  1573.697
 202  1236.778
 203  958.2848
 204  1220.87
 205  1165.048
 206  1032.109
 207  1283.359
 208  1074.992
 209  1174.622
 210  1120.053
 211  1324.927
 212  1294.49
 213  934.0922
 214  1424.901
 215  1536.577
 216  1380.593
 217  1286.585
 218  1356.141
 219  1169.893
 220  906.7057
 221  1233.766
 222  1048.279
 223  1378.414
 224  1598.231
 225  1597.428
 226  1372.358
 227  1183.891
 228  1235.637
 229  1494.734
 230  1241.766
 231  1322.48
 232  1035.516
 233  1043.235
 234  952.5923
 235  1080.151
 236  1074.383
 237  1168.017
 238  1393.282
 239  1207.341
 240  1501.989
 241  1579.339
 242  1544.565
 243  1334.942
 244  1430.301
 245  1565.354
 246  1311.706
 247  1363.927
 248  1242.005
 249  994.5856
 250  966.304
 251  1196.281
 252  1736.149
 253  1391.412
 254  1205.328
 255  1347.22
 256  1558.897
 257  1429.618
 258  1415.589
 259  1442.28
 260  1532.938
 261  1588.125
 262  1193.277
 263  1213.229
 264  1499.814
 265  1522.683
 266  1621.122
 267  1690.694
 268  1317.144
 269  1098.456
 270  1505.866
 271  1522.886
 272  1614.391
 273  1829.41
 274  1386.35
 275  1493.898
 276  1281.021
 277  1017.837
 278  1019.389
 279  1114.972
 280  1350.062
 281  1050.802
 282  845.5574
 283  1046.727
 284  1065.315
 285  1113.757
 286  1292.098
 287  1696.113
 288  1556.069
 289  1175.796
 290  1384.327
 291  1314.424
 292  1060.022
 293  1184.46
 294  1368.247
 295  1445.89
 296  1466.154
 297  1139.938
 298  1145.378
 299  1286.99
 300  1148.299
 301  1455.075
 302  1751.699
 303  1804.831
 304  2019.768
 305  2083.361
 306  2585.947
 307  2865.438
 308  2988.823
 309  2971.281
 310  2138.614
 311  1717.615
 312  1445.489
 313  1250.702
 314  1240.385
 315  1660.677
 316  1659.702
 317  1249.266
 318  1208.092
 319  1186.829
 320  1329.419
 321  1026.016
 322  1098.054
 323  1375.564
 324  1256.309
 325  1196.66
 326  1299.349
 327  1097.273
 328  1243.17
 329  1555.049
 330  1351.083
 331  1216.026
 332  1005.397
 333  1166.306
 334  1370.819
 335  1159.96
 336  1454.558
 337  1315
 338  1307.326
 339  1487.361
 340  1355.198
 341  1666.49
 342  1500.135
 343  1345.796
 344  1193.481
 345  1258.816
 346  1210.462
 347  1063.231
 348  1151.351
 349  1020.33
 350  938.4157
 351  780.3415
 352  1060.989
 353  1499.247
 354  1405.08
 355  1470.909
 356  1377.998
 357  1178.111
 358  1092.721
 359  1290.018
 360  1215.502
 361  900.7651
 362  868.3405
 363  1064.861
 364  482.5842
 365  502.9398
 366  635.4698
 367  886.7508
 368  896.403
 369  1026.373
 370  1112.96
 371  970.2625
 372  792.8991
 373  1010.71
 374  682.5367
 375  662.278
 376  822.6436
 377  1050.917
 378  1076.088
 379  756.7189
 380  985.1619
 381  814.336
 382  905.6109
 383  942.4731
 384  1197.232
 385  1272.09
 386  1004.029
 387  1263.939
 388  955.9388
 389  759.2893
 390  704.8342
 391  978.2223
 392  727.3943
 393  493.3108
 394  680.4398
 395  832.2307
 396  843.4396
 397  1105.227
 398  1119.942
 399  1163.234
 400  1045.44
 401  1013.49
 402  919.722
 403  913.9042
 404  882.3412
 405  968.961
 406  1143.72
 407  1063.411
 408  1034.158
 409  810.5201
 410  1069.21
 411  880.9704
 412  785.879
 413  831.3338
 414  733.7416
 415  947.524
 416  886.3195
 417  829.2681
 418  1068.358
 419  900.5049
 420  1018.749
 421  908.3898
 422  1276.874
 423  798.4583
 424  922.5863
 425  1270.47
 426  938.408
 427  908.332
 428  1277.321
 429  965.2421
 430  1141.852
 431  1474.354
 432  1289.736
 433  1336.119
 434  1089.529
 435  1100.233
 436  1077.878
 437  1134.274
 438  886.4551
 439  893.7717
 440  1091.162
 441  1194.119
 442  1142.105
 443  1091.342
 444  1061.038
 445  1075.543
 446  932.1293
 447  933.2886
 448  1216.301
 449  1489.967
 450  1186.192
 451  847.9608
 452  892.5642
 453  1219.606
 454  1066.22
 455  1190.002
 456  1337.243
 457  818.2294
 458  867.3594
 459  1084.562
 460  1236.151
 461  1090.947
 462  1082.481
 463  1059.278
 464  1189.255
 465  1224.126
 466  940.1896
 467  722.9275
 468  987.4274
 469  900.7166
 470  1224.185
 471  1050.347
 472  904.0148
 473  797.2015
 474  826.7537
 475  812.0334
 476  991.478
 477  1259
 478  1141.788
 479  780.3269
 480  965.191
 481  1357.009
 482  1127.249
 483  1190.719
 484  1549.868
 485  1291.323
 486  1057.021
 487  1049.401
 488  1505.763
 489  1226.316
 490  778.222
 491  957.0612
 492  909.0388
 493  984.0775
 494  863.8589
 495  782.9459
 496  1050.789
 497  1315.922
 498  1155.647
 499  1057.125
 500  967.6449
 501  831.7382
 502  788.8577
 503  609.2762
 504  597.3578
 505  865.8419
 506  1166.268
 507  1108.263
 508  1095.683
 509  1075.874
 510  986.4156
 511  822.0702
