# Input file       =  1201087940.12175_cleaned.dat
# Candidate        =  PSR_0332+5434
# Telescope        =  AR
# Epoch_topo       =  58145.481008353592
# Epoch_bary       =  N/A
# T_sample         =  0.002
# Data Folded      =  7143424
# Data Avg         =  0.125644432705478
# Data StdDev      =  4.52686742757727 
# Profile Bins     =  512
# Profile Avg      =  1753.08565435086 
# Profile StdDev   =  534.707172682498 
# Reduced chi-sqr  =  0.601
# Prob(Noise)      <  1   (~0.0 sigma)
# P_topo (ms)      =  714.573869290376  +/- 9.7e-05
# P'_topo (s/s)    =  -0                +/- 5.26e-11
# P''_topo (s/s^2) =  0                 +/- 2.39e-14
# P_bary (ms)      =  N/A
# P'_bary (s/s)    =  N/A
# P''_bary (s/s^2) =  N/A
# P_orb (s)        =  N/A
# asin(i)/c (s)    =  N/A
# eccentricity     =  N/A
# w (rad)          =  N/A
# T_peri           =  N/A
######################################################
   0  1685.395
   1  1899.217
   2  1758.109
   3  1940.536
   4  2025.982
   5  1900.859
   6  1657.844
   7  1154.171
   8  1303.162
   9  1613.052
  10  2060.346
  11  2153.646
  12  2168.108
  13  2043.889
  14  1876.585
  15  1797.928
  16  1518.516
  17  1767.55
  18  1925.007
  19  1983.118
  20  1853.873
  21  1790.212
  22  1843.524
  23  1798.22
  24  1383.445
  25  1260.614
  26  1742.452
  27  1813.196
  28  2037.356
  29  2098.348
  30  2017.589
  31  1403.124
  32  1459.897
  33  1583.596
  34  1478.914
  35  2020.792
  36  1920.342
  37  2040.58
  38  1828.745
  39  1475.5
  40  1336.537
  41  1276.115
  42  1233.046
  43  1610.909
  44  1692.16
  45  2306.028
  46  2465.221
  47  2226.538
  48  1908.317
  49  1664.576
  50  1805.097
  51  1936.112
  52  1753.617
  53  1545.629
  54  1666.764
  55  1640.846
  56  1960.402
  57  1805.288
  58  1481.54
  59  1791.606
  60  1792.217
  61  1585.35
  62  2057.516
  63  1892.395
  64  1900.613
  65  1919.367
  66  2374.964
  67  2097.684
  68  1916.428
  69  1778.21
  70  1997.982
  71  1525.124
  72  1404.924
  73  833.2186
  74  1386.174
  75  1921.525
  76  1815.762
  77  1560.725
  78  1991.75
  79  1933.677
  80  1665.195
  81  1844.582
  82  1956.407
  83  1439.382
  84  1342.883
  85  1888.055
  86  2121.413
  87  1872.898
  88  1706.886
  89  1640.957
  90  1196.462
  91  1433.137
  92  1726.56
  93  1623.627
  94  1794.042
  95  2068.166
  96  1553.004
  97  1652.604
  98  1681.205
  99  1913.465
 100  2090.757
 101  1858.396
 102  1788.719
 103  1905.389
 104  1975.147
 105  1833.681
 106  1460.982
 107  1478.263
 108  1895.537
 109  1928.796
 110  1916.098
 111  2162.61
 112  2100.146
 113  1194.686
 114  1434.737
 115  1437.854
 116  1646.511
 117  1922.574
 118  2192.596
 119  1925.577
 120  1808.936
 121  1980.55
 122  1569.109
 123  1446.909
 124  1446.702
 125  1629.074
 126  1623.571
 127  1618.763
 128  1878.812
 129  2018.492
 130  1884.445
 131  1905.827
 132  1920.167
 133  2085.935
 134  1877.487
 135  1455.099
 136  1742.706
 137  1729.558
 138  1753.502
 139  1462.07
 140  1655.391
 141  1725.763
 142  1547.254
 143  1358.181
 144  1767.969
 145  1881.723
 146  1444.412
 147  1617.024
 148  1688.925
 149  1716.783
 150  1686.764
 151  1786.589
 152  1937.919
 153  1871.801
 154  1865.096
 155  1668.82
 156  1136.57
 157  1453.719
 158  1966.967
 159  1955.948
 160  1687.654
 161  2022.467
 162  2352.006
 163  2134.846
 164  1835.578
 165  1892.899
 166  2055.277
 167  1975.512
 168  1809.81
 169  1435.245
 170  1485.203
 171  1345.176
 172  1363.461
 173  1490.254
 174  1894.956
 175  1468.746
 176  1454.289
 177  1985.797
 178  2041.57
 179  1696.544
 180  1633.579
 181  1818.913
 182  1887.666
 183  1642.092
 184  1997.535
 185  1972.902
 186  1649.736
 187  1508.73
 188  1341.103
 189  1114.677
 190  1200.24
 191  1428.583
 192  1500.254
 193  1581.379
 194  1893.237
 195  1875.878
 196  1847.116
 197  1461.05
 198  1399.109
 199  1600.93
 200  1700.624
 201  1633.815
 202  1591.96
 203  2057.631
 204  1797.585
 205  1236.789
 206  1608.505
 207  1590.979
 208  1449.926
 209  1616.425
 210  1855.797
 211  1912.834
 212  1822.984
 213  1726.962
 214  1561.018
 215  1139.044
 216  1404.186
 217  1904.442
 218  1756.811
 219  1693.389
 220  1330.057
 221  1335.141
 222  1190.323
 223  1135.906
 224  1348.693
 225  1832.617
 226  2106.689
 227  2186.007
 228  1879.066
 229  1626.322
 230  1529.384
 231  1688.981
 232  1028.402
 233  1512.329
 234  1963.73
 235  1985.517
 236  1961.405
 237  1563.672
 238  1422.183
 239  1325.386
 240  1706.856
 241  1594.723
 242  1168.945
 243  1783.025
 244  2158.581
 245  1862.361
 246  1668.021
 247  2105.794
 248  2222.926
 249  2078.306
 250  1782.218
 251  1753.094
 252  1389.37
 253  1539.748
 254  1543.459
 255  1712.109
 256  1615.756
 257  1514.38
 258  2025.664
 259  1879.511
 260  2393.917
 261  2225.42
 262  1852.262
 263  1408.997
 264  1336.545
 265  1658.914
 266  1694.118
 267  1537.598
 268  1954.597
 269  2222.718
 270  1623.735
 271  1077.691
 272  1247.975
 273  1408.163
 274  1411.131
 275  1713.305
 276  1947.148
 277  1868.908
 278  1407.632
 279  1393.63
 280  1858.507
 281  2315.382
 282  2118.369
 283  1712.07
 284  1225.724
 285  1112.75
 286  1812.847
 287  1803.4
 288  1869.891
 289  1728.22
 290  2029.79
 291  1933.17
 292  2160.275
 293  2105.733
 294  2083.379
 295  1852.74
 296  1463.019
 297  1696.382
 298  1551.932
 299  1818.591
 300  1916.244
 301  1922.424
 302  2021.784
 303  2166.364
 304  1825.517
 305  2007.942
 306  2184.112
 307  2856.887
 308  3452.562
 309  3298.386
 310  3016.34
 311  2350.233
 312  2206.582
 313  2142.66
 314  2312.246
 315  2117.141
 316  1799.995
 317  1733.435
 318  1611.607
 319  1718.085
 320  1692.28
 321  2033.744
 322  1858.811
 323  1642.137
 324  1677.037
 325  1774.926
 326  1529.753
 327  1882.994
 328  1745.286
 329  1576.492
 330  1798.563
 331  1695.601
 332  2070.39
 333  2203.565
 334  1813.964
 335  1733.583
 336  1466.673
 337  1497.179
 338  1206.351
 339  1418.537
 340  1464.738
 341  1649.374
 342  2102.521
 343  2132.559
 344  2152.914
 345  1908.97
 346  1882.497
 347  1849.489
 348  1677.156
 349  1547.003
 350  1331.163
 351  1758.309
 352  1956.267
 353  1791.972
 354  1746.066
 355  1873.846
 356  1593.54
 357  1888.674
 358  1698.574
 359  1552.3
 360  1924.868
 361  1594.935
 362  1737.225
 363  1763.526
 364  2030.397
 365  1906.237
 366  2111.621
 367  1540.427
 368  1778.997
 369  1829.793
 370  1587.307
 371  1586.195
 372  1649.327
 373  1800.605
 374  2075.299
 375  2241.165
 376  2609.963
 377  2365.703
 378  1787.054
 379  1861.384
 380  1929.53
 381  1623.87
 382  1485.891
 383  1725.471
 384  2292.046
 385  1701.273
 386  1491.097
 387  1813.959
 388  1587.935
 389  1477.321
 390  1186.79
 391  1511.536
 392  1785.488
 393  1870.614
 394  1666.653
 395  1573.672
 396  1468.73
 397  1549.62
 398  2010.251
 399  2055.909
 400  1744.14
 401  1737.296
 402  1763.548
 403  1578.481
 404  1294.416
 405  1640.275
 406  2038.648
 407  1798.596
 408  2183.627
 409  2549.907
 410  2439.488
 411  1993.894
 412  1464.775
 413  1363.366
 414  1862.902
 415  1859.77
 416  1606.752
 417  1613.139
 418  1736.737
 419  1376.289
 420  1320.441
 421  1359.147
 422  1241.39
 423  1217.177
 424  1656.315
 425  1925.89
 426  1718.695
 427  1975.519
 428  1988.001
 429  1747.755
 430  2083.791
 431  2406.301
 432  2404.806
 433  1676.496
 434  1565.679
 435  1901.673
 436  1534.619
 437  1601.434
 438  1874.022
 439  2082.491
 440  1870.223
 441  1479.122
 442  1718.68
 443  1944.904
 444  1601.077
 445  1613.797
 446  1716.271
 447  1603.567
 448  1634.201
 449  1836.02
 450  2053.931
 451  1728.78
 452  1528.828
 453  1498.961
 454  1324.607
 455  1591.544
 456  1576.805
 457  1692.663
 458  2088.856
 459  1789.483
 460  1702.508
 461  2115.913
 462  2022.661
 463  1808.352
 464  1892.79
 465  2053.401
 466  1740.862
 467  1774.526
 468  1776.333
 469  1728.581
 470  1393.234
 471  1323.778
 472  1757.424
 473  1686.891
 474  1547.016
 475  1888.424
 476  2088.549
 477  1819.38
 478  1475.855
 479  1847.137
 480  1679.965
 481  1497.197
 482  1576.172
 483  1697.08
 484  1612.636
 485  1397.237
 486  1414.557
 487  1450.201
 488  1366.369
 489  1422.272
 490  1543.256
 491  1743.021
 492  2055.049
 493  2041.155
 494  1826.358
 495  1866.682
 496  1821.025
 497  1868.167
 498  1723.105
 499  1388.517
 500  1465.481
 501  1600.072
 502  1711.492
 503  1770.431
 504  1765.058
 505  1337.834
 506  1798.402
 507  1606.541
 508  1820.238
 509  1787.772
 510  1393.155
 511  1890.151
