# Input file       =  1201893636.114452_cleaned.dat
# Candidate        =  PSR_0332+5434
# Telescope        =  AR
# Epoch_topo       =  58154.806193454308
# Epoch_bary       =  N/A
# T_sample         =  0.002
# Data Folded      =  7340032
# Data Avg         =  0.0607835033681893
# Data StdDev      =  3.47820242004787 
# Profile Bins     =  512
# Profile Avg      =  871.349595265885 
# Profile StdDev   =  416.455736885347 
# Reduced chi-sqr  =  0.797
# Prob(Noise)      <  1   (~0.0 sigma)
# P_topo (ms)      =  714.578046447784  +/- 0.000432
# P'_topo (s/s)    =  -0                +/- 2.28e-10
# P''_topo (s/s^2) =  0                 +/- 1.01e-13
# P_bary (ms)      =  N/A
# P'_bary (s/s)    =  N/A
# P''_bary (s/s^2) =  N/A
# P_orb (s)        =  N/A
# asin(i)/c (s)    =  N/A
# eccentricity     =  N/A
# w (rad)          =  N/A
# T_peri           =  N/A
######################################################
   0  766.0092
   1  930.5827
   2  1086.388
   3  844.8575
   4  1023.123
   5  1281.209
   6  860.9874
   7  826.1936
   8  1115.496
   9  1016.754
  10  871.3269
  11  730.6642
  12  613.9634
  13  446.2154
  14  729.0179
  15  708.3825
  16  280.715
  17  649.796
  18  920.0421
  19  815.0646
  20  728.6018
  21  921.3719
  22  801.7821
  23  818.9233
  24  611.4065
  25  510.4808
  26  766.7101
  27  275.7193
  28  190.9256
  29  435.0288
  30  511.822
  31  448.7839
  32  313.5508
  33  563.2843
  34  886.6226
  35  879.3833
  36  585.4521
  37  756.101
  38  829.4052
  39  561.2239
  40  113.9262
  41  146.4593
  42  293.888
  43  765.7422
  44  863.5458
  45  812.5361
  46  826.804
  47  573.3146
  48  591.8124
  49  1190.879
  50  1170.84
  51  577.8291
  52  652.3176
  53  851.5236
  54  1006.046
  55  793.5898
  56  771.6326
  57  506.4111
  58  620.5376
  59  601.6438
  60  738.9831
  61  1073.235
  62  1355.864
  63  1170.223
  64  795.5223
  65  761.3907
  66  1021.463
  67  1179.839
  68  1175.697
  69  1165.634
  70  1223.578
  71  965.1757
  72  817.754
  73  865.485
  74  988.3796
  75  886.2144
  76  1158.008
  77  1300.774
  78  1339.648
  79  1218.203
  80  1274.673
  81  957.8199
  82  465.7616
  83  781.4494
  84  1334.744
  85  1125.142
  86  1101.015
  87  744.8487
  88  852.3481
  89  980.6136
  90  923.8537
  91  962.0492
  92  1153.731
  93  1351.748
  94  1285.21
  95  1085.711
  96  1079.474
  97  1200.59
  98  1936.157
  99  1962.023
 100  2121.47
 101  2416.938
 102  2634.494
 103  2144.66
 104  1768.004
 105  1709.286
 106  1385.303
 107  1017.68
 108  1055.249
 109  1039.106
 110  791.0412
 111  734.6415
 112  681.2401
 113  367.8878
 114  575.4202
 115  376.5014
 116  909.0906
 117  931.1005
 118  747.5665
 119  769.47
 120  1065.995
 121  1151.495
 122  912.4156
 123  1017.685
 124  1109.874
 125  689.6856
 126  531.4046
 127  388.3593
 128  648.5239
 129  984.8235
 130  941.1399
 131  857.9999
 132  903.6731
 133  1074.695
 134  958.5869
 135  685.3829
 136  476.1779
 137  576.541
 138  838.4676
 139  806.7515
 140  704.2043
 141  634.8412
 142  920.6298
 143  732.0256
 144  861.2364
 145  1292.621
 146  1300.971
 147  1025.605
 148  919.2272
 149  693.433
 150  686.9801
 151  649.3268
 152  758.565
 153  674.675
 154  651.5474
 155  762.5533
 156  783.0066
 157  614.0355
 158  576.6112
 159  794.3132
 160  858.2424
 161  562.6671
 162  891.3042
 163  847.1778
 164  742.7112
 165  777.5219
 166  803.5281
 167  878.1578
 168  768.138
 169  716.7964
 170  825.2189
 171  803.8248
 172  914.9191
 173  883.9617
 174  882.8265
 175  1019.35
 176  890.3115
 177  792.5453
 178  979.8092
 179  1146.329
 180  888.5794
 181  807.6774
 182  787.6196
 183  529.2363
 184  789.8398
 185  1046.657
 186  915.66
 187  830.1848
 188  1073.579
 189  1221.638
 190  898.3037
 191  774.9932
 192  910.5778
 193  728.5492
 194  668.6033
 195  676.7941
 196  359.4981
 197  950.1165
 198  913.7041
 199  608.8275
 200  643.6242
 201  763.7675
 202  645.8278
 203  398.2012
 204  745.4216
 205  714.3
 206  902.4154
 207  1103.248
 208  1316.355
 209  1045.964
 210  752.1497
 211  864.0248
 212  931.0777
 213  897.5405
 214  832.6679
 215  850.5478
 216  1278.085
 217  984.3846
 218  1117.922
 219  1187.451
 220  1249.138
 221  837.1177
 222  791.6797
 223  939.3045
 224  961.3371
 225  926.0036
 226  793.9268
 227  799.499
 228  902.6711
 229  863.6489
 230  765.3291
 231  734.6292
 232  637.9606
 233  1059.81
 234  1054.898
 235  989.8004
 236  935.374
 237  764.0004
 238  860.5254
 239  831.556
 240  895.9254
 241  732.414
 242  685.9572
 243  818.0057
 244  1185.21
 245  927.7191
 246  597.1614
 247  583.2974
 248  590.2282
 249  1142.75
 250  1238.329
 251  1012.677
 252  1067.029
 253  1149.432
 254  1276.756
 255  1148.684
 256  1045.379
 257  709.9827
 258  846.7773
 259  1060.593
 260  860.0021
 261  814.7083
 262  640.7917
 263  429.2057
 264  516.7372
 265  638.38
 266  883.68
 267  1062.481
 268  910.2684
 269  1118.264
 270  799.0831
 271  740.9872
 272  948.9944
 273  988.8652
 274  977.2245
 275  1280.633
 276  1099.911
 277  995.0922
 278  1199.016
 279  751.9782
 280  991.6268
 281  894.7094
 282  866.7391
 283  992.5225
 284  1313.769
 285  1074.024
 286  659.722
 287  948.5797
 288  1238.602
 289  953.6456
 290  700.3395
 291  1117.052
 292  885.8118
 293  888.1469
 294  790.9046
 295  871.8309
 296  852.9496
 297  818.3066
 298  947.1642
 299  925.7014
 300  690.9742
 301  717.42
 302  682.2474
 303  681.731
 304  878.8865
 305  742.2552
 306  867.886
 307  795.6452
 308  478.4084
 309  527.0826
 310  845.0991
 311  1128.53
 312  906.4857
 313  874.3427
 314  540.0446
 315  848.4356
 316  652.6971
 317  738.6084
 318  849.5819
 319  821.0673
 320  776.9658
 321  952.6577
 322  860.2962
 323  740.0181
 324  582.7499
 325  593.2565
 326  837.7262
 327  1360.085
 328  1149.308
 329  903.2644
 330  486.8241
 331  745.5509
 332  644.6812
 333  348.7361
 334  626.3348
 335  728.8704
 336  821.4387
 337  565.8997
 338  692.8056
 339  969.063
 340  988.5292
 341  557.4623
 342  770.5233
 343  1190.26
 344  1009.44
 345  1065.639
 346  942.8911
 347  985.7151
 348  744.0616
 349  565.4049
 350  654.3495
 351  425.8059
 352  693.4336
 353  684.4249
 354  1092.417
 355  973.6647
 356  431.532
 357  547.5874
 358  748.5015
 359  986.3207
 360  833.4971
 361  723.58
 362  830.8593
 363  867.4111
 364  961.0873
 365  960.5666
 366  728.8435
 367  709.923
 368  664.1519
 369  689.0973
 370  887.7106
 371  1105.075
 372  1352.624
 373  1181.578
 374  1047.527
 375  943.2856
 376  943.0834
 377  865.5477
 378  675.0438
 379  671.2246
 380  642.9594
 381  807.5991
 382  707.2371
 383  892.0997
 384  963.6241
 385  1079.11
 386  1030.079
 387  930.7856
 388  1029.967
 389  946.9338
 390  976.6188
 391  902.7257
 392  715.2059
 393  863.7764
 394  961.7995
 395  670.0695
 396  941.0978
 397  810.8262
 398  1036.731
 399  1056.191
 400  928.9142
 401  727.7282
 402  986.52
 403  1064.375
 404  897.9637
 405  824.6524
 406  1278.767
 407  1457.586
 408  1059.925
 409  893.9783
 410  794.059
 411  919.8788
 412  851.5178
 413  976.0205
 414  650.1708
 415  793.752
 416  1027.006
 417  731.305
 418  538.0245
 419  510.61
 420  836.1142
 421  808.9511
 422  694.0769
 423  813.1964
 424  1357.467
 425  1225.876
 426  992.1825
 427  908.2415
 428  1117.341
 429  1017.402
 430  659.6411
 431  811.8339
 432  765.4169
 433  1022.679
 434  926.5704
 435  945.4697
 436  1016.974
 437  870.6504
 438  960.3685
 439  1112.182
 440  892.2932
 441  881.3607
 442  1061.979
 443  1040.782
 444  708.2947
 445  939.7515
 446  953.491
 447  862.1968
 448  866.045
 449  822.9318
 450  585.9338
 451  592.5122
 452  874.5441
 453  579.2504
 454  679.808
 455  632.7505
 456  591.9152
 457  713.8002
 458  615.3367
 459  1100.98
 460  1139.871
 461  905.1871
 462  519.2033
 463  640.9937
 464  729.0955
 465  721.5227
 466  802.0869
 467  809.5542
 468  693.5781
 469  259.4938
 470  450.3418
 471  964.7229
 472  906.8828
 473  962.0923
 474  973.084
 475  884.9606
 476  989.2144
 477  935.3908
 478  661.3747
 479  487.2936
 480  814.6782
 481  638.249
 482  647.0261
 483  594.9701
 484  640.0734
 485  936.5281
 486  712.3076
 487  709.6748
 488  1055.545
 489  973.6964
 490  653.112
 491  436.5799
 492  823.2764
 493  867.2537
 494  821.7736
 495  1115.973
 496  1038.842
 497  1063.849
 498  948.3216
 499  1106.943
 500  1031.701
 501  775.4269
 502  908.5406
 503  1095.104
 504  1223.094
 505  1391.745
 506  1071.556
 507  868.9238
 508  804.8639
 509  738.6891
 510  941.8696
 511  775.6016
