# Input file       =  1201691254.111097_cleaned.dat
# Candidate        =  PSR_0332+5434
# Telescope        =  AR
# Epoch_topo       =  58152.463809156216
# Epoch_bary       =  N/A
# T_sample         =  0.002
# Data Folded      =  7143424
# Data Avg         =  0.13072606631119 
# Data StdDev      =  4.62964591166256 
# Profile Bins     =  1024
# Profile Avg      =  911.952520456244 
# Profile StdDev   =  386.679378763854 
# Reduced chi-sqr  =  3.419
# Prob(Noise)      <  3.93e-267   (~34.9 sigma)
# P_topo (ms)      =  714.576848105431  +/- 1.12e-05
# P'_topo (s/s)    =  -0                +/- 6.09e-12
# P''_topo (s/s^2) =  0                 +/- 2.76e-15
# P_bary (ms)      =  N/A
# P'_bary (s/s)    =  N/A
# P''_bary (s/s^2) =  N/A
# P_orb (s)        =  N/A
# asin(i)/c (s)    =  N/A
# eccentricity     =  N/A
# w (rad)          =  N/A
# T_peri           =  N/A
######################################################
   0  676.062
   1  568.6573
   2  495.9254
   3  449.4033
   4  379.9244
   5  731.1349
   6  917.4185
   7  1112.466
   8  1357.586
   9  1487.116
  10  1566.987
  11  1449.304
  12  1141.998
  13  1094.359
  14  712.8253
  15  681.4949
  16  474.262
  17  538.1415
  18  524.5452
  19  522.4848
  20  587.9296
  21  653.6852
  22  982.6729
  23  1348.692
  24  1460.788
  25  1512.833
  26  1526.636
  27  1311.933
  28  1173.53
  29  742.0358
  30  703.0637
  31  515.1051
  32  496.7309
  33  626.277
  34  619.7287
  35  582.994
  36  422.2463
  37  584.7368
  38  970.2029
  39  1063.713
  40  1395.189
  41  1625.734
  42  1614.735
  43  1429.177
  44  1158.186
  45  1116.168
  46  920.7678
  47  816.8989
  48  1013.934
  49  817.4065
  50  659.7874
  51  344.8145
  52  359.3744
  53  476.5292
  54  514.3411
  55  904.1508
  56  1104.738
  57  1260.052
  58  1352.335
  59  1245.667
  60  1305.425
  61  1075.633
  62  778.2039
  63  690.3
  64  474.2177
  65  519.9761
  66  451.191
  67  355.9425
  68  292.2452
  69  325.1628
  70  663.0732
  71  881.8571
  72  1087.288
  73  1389.823
  74  1407.792
  75  1630.145
  76  1565.719
  77  1351.711
  78  1052.598
  79  819.5974
  80  850.0832
  81  710.3577
  82  619.1085
  83  672.7906
  84  617.4135
  85  563.6349
  86  339.8643
  87  332.7258
  88  641.438
  89  890.8647
  90  1371.468
  91  1598.535
  92  1545.879
  93  1335.062
  94  924.1791
  95  734.4689
  96  664.0579
  97  582.7327
  98  668.8368
  99  500.3247
 100  505.1942
 101  416.9259
 102  399.7409
 103  604.8087
 104  742.5925
 105  1128.855
 106  1402.601
 107  1573.235
 108  1592.717
 109  1431.155
 110  1257.309
 111  1043.423
 112  781.431
 113  817.3017
 114  738.2621
 115  812.7592
 116  605.7578
 117  514.921
 118  380.4955
 119  316.6307
 120  514.7811
 121  703.2059
 122  898.4293
 123  1225.789
 124  1334.413
 125  1333.066
 126  1086.048
 127  770.9054
 128  717.0741
 129  509.2268
 130  574.7873
 131  592.3476
 132  571.522
 133  551.4777
 134  432.5821
 135  438.3568
 136  414.1335
 137  651.9279
 138  1019.602
 139  1335.267
 140  1506.418
 141  1620.501
 142  1464.786
 143  1347.877
 144  964.9889
 145  779.1992
 146  678.582
 147  626.9122
 148  727.2988
 149  524.5986
 150  443.2157
 151  340.7653
 152  404.4298
 153  412.3273
 154  509.5862
 155  879.5903
 156  1322.07
 157  1438.884
 158  1546.713
 159  1343.563
 160  1138.537
 161  921.2354
 162  602.1894
 163  698.2087
 164  547.8169
 165  567.1091
 166  525.4313
 167  525.928
 168  643.862
 169  581.3124
 170  887.3762
 171  1214.653
 172  1288.611
 173  1382.077
 174  1394.131
 175  1367.738
 176  1236.348
 177  973.3922
 178  975.3578
 179  763.0842
 180  783.8317
 181  809.066
 182  664.3839
 183  524.2767
 184  350.7988
 185  375.9672
 186  523.8044
 187  695.4691
 188  1270.296
 189  1411.077
 190  1606.003
 191  1521.376
 192  1205.711
 193  1119.105
 194  800.9697
 195  772.5156
 196  691.1328
 197  519.4458
 198  627.1768
 199  508.0089
 200  537.0041
 201  529.5306
 202  623.1553
 203  875.8702
 204  999.5927
 205  1249.494
 206  1482.547
 207  1419.556
 208  1518.886
 209  1329.859
 210  1059.306
 211  854.691
 212  648.1047
 213  638.1092
 214  401.2768
 215  454.464
 216  469.9984
 217  490.7136
 218  545.7514
 219  648.6415
 220  899.7979
 221  1207.228
 222  1250.298
 223  1470.519
 224  1331.964
 225  1295.528
 226  1176.56
 227  853.0064
 228  796.9064
 229  612.8652
 230  714.9142
 231  660.9067
 232  589.7055
 233  585.7586
 234  507.7592
 235  614.2426
 236  839.0897
 237  1091.343
 238  1372.12
 239  1458.762
 240  1525.119
 241  1432.877
 242  1251.062
 243  1208.567
 244  966.9852
 245  781.0372
 246  707.2327
 247  587.1321
 248  624.1553
 249  475.9616
 250  500.3687
 251  428.6625
 252  521.138
 253  767.6469
 254  1026.57
 255  1345.105
 256  1599.821
 257  1543.615
 258  1462.004
 259  1120.165
 260  902.5733
 261  782.5432
 262  741.1949
 263  695.8283
 264  551.0341
 265  468.6074
 266  482.4745
 267  335.7679
 268  441.3132
 269  672.4515
 270  1011.265
 271  1386.325
 272  1400.035
 273  1468.54
 274  1461.174
 275  1327.145
 276  1325.031
 277  913.6572
 278  837.5212
 279  688.0234
 280  634.3474
 281  564.7173
 282  483.2514
 283  517.5833
 284  340.2384
 285  354.1259
 286  570.346
 287  732.3173
 288  1186.817
 289  1469.208
 290  1619.661
 291  1481.09
 292  993.7634
 293  725.9563
 294  485.5587
 295  441.8357
 296  569.2428
 297  474.6282
 298  577.2208
 299  531.234
 300  528.6807
 301  604.5389
 302  739.2321
 303  1205.725
 304  1564.522
 305  1653.058
 306  1756.284
 307  1615.973
 308  1494.014
 309  1054.623
 310  772.8917
 311  878.4797
 312  758.3044
 313  920.6372
 314  710.407
 315  618.1058
 316  426.0305
 317  390.9009
 318  596.994
 319  642.4453
 320  921.8797
 321  1351.045
 322  1418.066
 323  1523.881
 324  1271.955
 325  1112.839
 326  873.1696
 327  719.0681
 328  761.4191
 329  731.0916
 330  559.8957
 331  620.4335
 332  505.2454
 333  532.7226
 334  539.019
 335  627.7064
 336  1012.459
 337  1165.395
 338  1686.506
 339  1720.612
 340  1568.178
 341  1389.829
 342  1237.906
 343  1220.951
 344  1019.292
 345  823.2653
 346  676.176
 347  520.1408
 348  470.411
 349  511.397
 350  548.2361
 351  592.6693
 352  709.0573
 353  1006.935
 354  1295.666
 355  1329.652
 356  1515.675
 357  1393.487
 358  1259.59
 359  891.3079
 360  672.5584
 361  642.9462
 362  525.4783
 363  583.5322
 364  498.2083
 365  496.1473
 366  470.3818
 367  685.2632
 368  911.3707
 369  1104.536
 370  1307.513
 371  1525.561
 372  1566.237
 373  1462.159
 374  1342.535
 375  1252.87
 376  1182.332
 377  973.3777
 378  854.3022
 379  688.1838
 380  670.0018
 381  521.3013
 382  435.5355
 383  364.5646
 384  436.789
 385  658.9468
 386  1121.889
 387  1266.36
 388  1371.4
 389  1281.914
 390  1046.881
 391  900.6738
 392  657.6078
 393  560.488
 394  589.1754
 395  635.631
 396  794.4343
 397  627.5173
 398  611.9984
 399  592.2941
 400  642.4946
 401  692.6327
 402  911.6282
 403  1185.895
 404  1408.309
 405  1391.998
 406  1443.492
 407  1209.532
 408  949.6998
 409  798.8107
 410  622.9308
 411  563.3945
 412  341.9286
 413  441.8168
 414  513.9298
 415  595.0471
 416  536.0103
 417  547.0704
 418  856.5844
 419  1188.309
 420  1411.713
 421  1683.644
 422  1629.122
 423  1528.547
 424  1058.477
 425  732.1133
 426  637.3643
 427  523.3793
 428  498.2472
 429  496.0126
 430  342.4371
 431  301.3408
 432  157.3814
 433  346.8249
 434  568.3712
 435  891.4609
 436  1331.203
 437  1585.583
 438  1694.871
 439  1643.404
 440  1430.251
 441  1351.592
 442  993.4781
 443  776.4622
 444  635.7596
 445  565.0406
 446  552.0121
 447  470.495
 448  506.4882
 449  404.7139
 450  375.071
 451  590.2375
 452  866.4152
 453  1204.096
 454  1515.063
 455  1446.174
 456  1523.551
 457  1115.659
 458  1011.367
 459  777.0062
 460  650.6209
 461  596.2338
 462  496.1755
 463  443.344
 464  396.2434
 465  305.8298
 466  472.2236
 467  581.3542
 468  922.2207
 469  1377.188
 470  1479.603
 471  1658.283
 472  1555.238
 473  1501.555
 474  1312.386
 475  992.3756
 476  995.9202
 477  746.3723
 478  669.8903
 479  551.2645
 480  542.4727
 481  506.8116
 482  436.8609
 483  474.1133
 484  616.7355
 485  845.4036
 486  1248.888
 487  1422.635
 488  1606.578
 489  1611.119
 490  1232.998
 491  1003.637
 492  633.4707
 493  631.5799
 494  536.8989
 495  494.4833
 496  541.6912
 497  508.3997
 498  514.4026
 499  565.8752
 500  788.2858
 501  1129.081
 502  1303.037
 503  1494.995
 504  1596.895
 505  1530.953
 506  1474.118
 507  1202.848
 508  995.1936
 509  849.9192
 510  742.6176
 511  759.2469
 512  589.3715
 513  573.4714
 514  461.7023
 515  518.5475
 516  650.7914
 517  729.9453
 518  916.7621
 519  1309.276
 520  1492.919
 521  1711.202
 522  1440.985
 523  1142.17
 524  995.1964
 525  866.7483
 526  889.158
 527  668.9375
 528  718.3934
 529  748.8936
 530  707.5042
 531  589.0896
 532  619.8023
 533  768.2375
 534  1011.262
 535  1218.168
 536  1327.352
 537  1347
 538  1164.643
 539  1333.462
 540  1277.864
 541  1247.432
 542  1027.073
 543  983.9295
 544  903.9651
 545  720.6321
 546  605.2742
 547  561.7102
 548  593.4919
 549  623.6101
 550  854.844
 551  1129.169
 552  1309.501
 553  1426.812
 554  1425.912
 555  1226.181
 556  1135.964
 557  897.7928
 558  703.3167
 559  535.381
 560  481.8221
 561  587.947
 562  498.3663
 563  483.1796
 564  533.4061
 565  573.1949
 566  829.1855
 567  969.8816
 568  1123.795
 569  1350.828
 570  1477.919
 571  1674.268
 572  1488.067
 573  1211.654
 574  1009.424
 575  682.7188
 576  568.1637
 577  434.8222
 578  429.8324
 579  395.2553
 580  358.9044
 581  492.8569
 582  414.5226
 583  566.0736
 584  1002.293
 585  1298.489
 586  1683.37
 587  1744.192
 588  1622.68
 589  1344.19
 590  895.6743
 591  647.9497
 592  500.9337
 593  528.2656
 594  661.1771
 595  430.7652
 596  351.6033
 597  396.5398
 598  550.8715
 599  815.3585
 600  1032.651
 601  1496.21
 602  1730.65
 603  1744.632
 604  1896.327
 605  1793.247
 606  1696.477
 607  1402.248
 608  1334.754
 609  1385.692
 610  1220.078
 611  1326.401
 612  1257.653
 613  1257.333
 614  1049.304
 615  1138.053
 616  1449.109
 617  1640.14
 618  1759.162
 619  1941.633
 620  1715.938
 621  1589.355
 622  1218.674
 623  995.7924
 624  896.1778
 625  689.4178
 626  822.712
 627  685.8003
 628  688.8999
 629  539.0246
 630  394.1168
 631  373.4576
 632  462.9357
 633  843.074
 634  1316.658
 635  1514.85
 636  1695.952
 637  1604.63
 638  1422.276
 639  1173.543
 640  903.9505
 641  895.3658
 642  713.9297
 643  672.9977
 644  644.4334
 645  659.3738
 646  701.1357
 647  525.1932
 648  524.4583
 649  637.8906
 650  820.2939
 651  1172.891
 652  1416.949
 653  1492.218
 654  1441.037
 655  1038.21
 656  894.7158
 657  694.8071
 658  628.6552
 659  609.4556
 660  416.4753
 661  394.2736
 662  284.2043
 663  331.8598
 664  284.6353
 665  436.3938
 666  824.7544
 667  1232.723
 668  1378.26
 669  1534.613
 670  1541.876
 671  1606.858
 672  1496.29
 673  1186.291
 674  873.7368
 675  659.1741
 676  708.3915
 677  623.147
 678  542.2433
 679  347.5141
 680  408.3231
 681  560.3666
 682  679.3755
 683  952.143
 684  1269.345
 685  1469.192
 686  1420.525
 687  1365.852
 688  1211.024
 689  1171.362
 690  716.1154
 691  568.1216
 692  528.3526
 693  747.0748
 694  812.1528
 695  720.331
 696  704.8941
 697  712.6243
 698  748.0285
 699  989.5125
 700  1161.759
 701  1418.691
 702  1512.603
 703  1546.641
 704  1488.063
 705  1322.099
 706  1178.902
 707  997.9551
 708  838.1152
 709  752.7499
 710  591.356
 711  613.5603
 712  546.7472
 713  574.3635
 714  534.679
 715  604.7322
 716  870.797
 717  1074.492
 718  1257.764
 719  1364.351
 720  1228.723
 721  1163.391
 722  867.8317
 723  747.0108
 724  719.2485
 725  724.8507
 726  664.0131
 727  680.0905
 728  526.0707
 729  496.1721
 730  593.5411
 731  926.3663
 732  1099.963
 733  1105.787
 734  1316.117
 735  1554.078
 736  1604.742
 737  1571.895
 738  1330.11
 739  1288.034
 740  977.8618
 741  957.5713
 742  768.7905
 743  569.5668
 744  383.9733
 745  275.2007
 746  391.3365
 747  384.014
 748  608.6161
 749  958.5869
 750  1235.212
 751  1550.532
 752  1671.067
 753  1534.603
 754  1396.806
 755  959.896
 756  898.2382
 757  638.8036
 758  551.4786
 759  556.6003
 760  486.5508
 761  510.1817
 762  436.4995
 763  472.6145
 764  737.6539
 765  946.1566
 766  1318.847
 767  1612.469
 768  1531.232
 769  1505.113
 770  1258.176
 771  1246.063
 772  1053.996
 773  790.7339
 774  680.5425
 775  516.6081
 776  702.78
 777  745.7079
 778  723.6639
 779  650.2031
 780  656.2952
 781  884.4921
 782  1128.217
 783  1338.521
 784  1597.274
 785  1449.871
 786  1347.861
 787  1110.912
 788  826.6224
 789  773.3792
 790  627.1251
 791  752.1686
 792  631.1972
 793  350.3872
 794  296.5715
 795  299.7262
 796  532.9857
 797  557.2652
 798  839.9987
 799  1230.939
 800  1431.522
 801  1642.394
 802  1736.898
 803  1516.793
 804  1368.89
 805  1106.79
 806  1045.012
 807  687.5836
 808  512.9565
 809  525.3655
 810  413.9626
 811  478.1829
 812  330.3806
 813  439.0468
 814  622.8605
 815  874.5405
 816  1292.422
 817  1586.402
 818  1697.893
 819  1578.034
 820  1229.391
 821  1019.687
 822  888.3005
 823  713.0549
 824  570.1628
 825  390.2207
 826  422.2547
 827  426.8912
 828  267.9962
 829  250.1669
 830  481.7774
 831  962.3135
 832  1344.109
 833  1466.448
 834  1450.557
 835  1439.906
 836  1436.453
 837  1411.478
 838  1007.036
 839  772.9196
 840  657.8211
 841  811.2618
 842  721.6076
 843  502.8652
 844  333.9605
 845  232.5792
 846  371.3917
 847  476.8081
 848  646.011
 849  1022.736
 850  1319.081
 851  1513.485
 852  1374.298
 853  1004.178
 854  879.0405
 855  728.8436
 856  699.7128
 857  714.5228
 858  638.538
 859  652.8481
 860  590.9484
 861  564.5817
 862  503.2553
 863  560.2644
 864  811.1441
 865  1078.52
 866  1341.796
 867  1561.631
 868  1398.218
 869  1335.664
 870  1064.206
 871  982.0568
 872  854.187
 873  739.6561
 874  710.8572
 875  613.7241
 876  502.8619
 877  404.3201
 878  439.3952
 879  594.0212
 880  558.6024
 881  872.481
 882  1187.301
 883  1413.752
 884  1564.383
 885  1340.433
 886  1061.732
 887  741.8435
 888  570.9764
 889  648.6857
 890  536.7803
 891  575.3086
 892  571.4233
 893  581.6924
 894  500.42
 895  391.6974
 896  600.1815
 897  934.3219
 898  1116.327
 899  1322.909
 900  1422.537
 901  1360.965
 902  1281.523
 903  1086.334
 904  1117.268
 905  873.463
 906  887.204
 907  937.9916
 908  877.5211
 909  884.9007
 910  658.9987
 911  558.5496
 912  413.2745
 913  521.8256
 914  812.9363
 915  1026.072
 916  1364.037
 917  1610.861
 918  1425.65
 919  1281.422
 920  1008.677
 921  879.4268
 922  744.7855
 923  473.6206
 924  522.5513
 925  454.3956
 926  470.2607
 927  436.7031
 928  515.0642
 929  800.6879
 930  973.8717
 931  1316.011
 932  1642.093
 933  1698.222
 934  1702.733
 935  1494.611
 936  1155.223
 937  987.6849
 938  686.5471
 939  706.8918
 940  386.5667
 941  481.4994
 942  504.1355
 943  477.1229
 944  419.9576
 945  382.2383
 946  680.2716
 947  997.8114
 948  1168.067
 949  1503.905
 950  1582.887
 951  1650.183
 952  1448.619
 953  977.8243
 954  831.5057
 955  395.8305
 956  432.042
 957  432.5064
 958  400.4976
 959  411.6447
 960  284.3395
 961  402.3626
 962  643.8153
 963  986.3818
 964  1374.548
 965  1560.404
 966  1698.734
 967  1636.21
 968  1372.347
 969  1278.081
 970  1097.175
 971  900.736
 972  657.4445
 973  560.7495
 974  615.6468
 975  626.9587
 976  687.1657
 977  628.5248
 978  546.9294
 979  603.1932
 980  687.8391
 981  1053.347
 982  1387.242
 983  1441.521
 984  1438.811
 985  1246.797
 986  1065.305
 987  1050.923
 988  914.8417
 989  1011.29
 990  819.2861
 991  706.329
 992  612.3413
 993  563.5599
 994  489.3217
 995  423.6215
 996  594.3405
 997  1032.609
 998  1209.566
 999  1474.309
1000  1530.256
1001  1440.005
1002  1273.267
1003  1031.921
1004  1014.961
1005  848.5515
1006  851.3644
1007  939.21
1008  765.037
1009  643.6036
1010  542.3333
1011  632.9785
1012  701.5106
1013  677.2321
1014  1093.677
1015  1295.402
1016  1405.441
1017  1360.197
1018  1101.648
1019  796.1506
1020  532.728
1021  394.1324
1022  639.4267
1023  522.4508
