# Input file       =  1201346468.110104_cleaned.dat
# Candidate        =  PSR_0332+5434
# Telescope        =  AR
# Epoch_topo       =  58148.473230441021
# Epoch_bary       =  N/A
# T_sample         =  0.002
# Data Folded      =  7208960
# Data Avg         =  0.13824314908442 
# Data StdDev      =  4.15526850957174 
# Profile Bins     =  1024
# Profile Avg      =  973.261925664382 
# Profile StdDev   =  348.646590348931 
# Reduced chi-sqr  =  1.287
# Prob(Noise)      <  1.21e-09   (~6.0 sigma)
# P_topo (ms)      =  714.575239915597  +/- 4.66e-05
# P'_topo (s/s)    =  -0                +/- 2.5e-11
# P''_topo (s/s^2) =  0                 +/- 1.12e-14
# P_bary (ms)      =  N/A
# P'_bary (s/s)    =  N/A
# P''_bary (s/s^2) =  N/A
# P_orb (s)        =  N/A
# asin(i)/c (s)    =  N/A
# eccentricity     =  N/A
# w (rad)          =  N/A
# T_peri           =  N/A
######################################################
   0  876.529
   1  689.5334
   2  731.2155
   3  728.7303
   4  781.5026
   5  583.8982
   6  648.4094
   7  645.0934
   8  664.3252
   9  710.6501
  10  662.7994
  11  729.0615
  12  767.381
  13  942.2021
  14  905.9626
  15  931.4916
  16  824.2317
  17  1001.734
  18  1178.537
  19  1271.266
  20  1142.714
  21  1203.113
  22  1230.321
  23  1156.879
  24  999.7007
  25  857.3356
  26  800.5432
  27  863.9559
  28  1020.868
  29  980.5927
  30  982.1412
  31  881.1248
  32  878.1537
  33  914.0819
  34  874.0841
  35  929.702
  36  959.7651
  37  942.3341
  38  797.2512
  39  657.1398
  40  454.115
  41  394.0054
  42  263.9077
  43  350.0624
  44  395.2188
  45  631.9175
  46  732.4424
  47  839.816
  48  897.0782
  49  871.7906
  50  1078.829
  51  1176.466
  52  1349.655
  53  1408.622
  54  1380.075
  55  1188.6
  56  1204.53
  57  1078.391
  58  941.7239
  59  778.8873
  60  850.1169
  61  920.6587
  62  989.8113
  63  1052.065
  64  1078.912
  65  1090.956
  66  1019.697
  67  903.4832
  68  926.4712
  69  949.8351
  70  941.4176
  71  1013.987
  72  941.1123
  73  858.0365
  74  739.3137
  75  680.709
  76  612.5869
  77  817.3192
  78  1101.833
  79  1190.011
  80  1092.877
  81  977.6168
  82  1057.247
  83  1195.584
  84  1177.928
  85  1176.406
  86  1200.593
  87  1309.102
  88  1312.688
  89  1358.001
  90  1225.028
  91  1155.253
  92  1093.317
  93  1113.447
  94  1030.281
  95  1079.891
  96  1111.994
  97  1101.422
  98  1079.277
  99  1047.077
 100  1164.563
 101  1198.709
 102  1309.655
 103  1300.096
 104  1237.851
 105  985.0779
 106  934.5069
 107  800.129
 108  736.6342
 109  710.0156
 110  828.6112
 111  924.0529
 112  964.2149
 113  929.6725
 114  976.8506
 115  1043.45
 116  1035.388
 117  1045.422
 118  1309.715
 119  1445.228
 120  1493.246
 121  1564.814
 122  1437.501
 123  1309.449
 124  1172.48
 125  1211.798
 126  1279.376
 127  1284.848
 128  1356.744
 129  1081.044
 130  1077.767
 131  976.8469
 132  828.6293
 133  826.5807
 134  815.2076
 135  944.4363
 136  943.6706
 137  933.146
 138  887.5786
 139  997.4905
 140  892.4717
 141  877.8345
 142  648.703
 143  739.3378
 144  834.0073
 145  980.2483
 146  987.227
 147  971.7585
 148  1065.045
 149  1120.653
 150  1145.19
 151  1238.886
 152  1240.983
 153  1215.986
 154  1183.435
 155  1165.406
 156  1255.22
 157  1085.756
 158  917.3566
 159  910.7496
 160  1007.362
 161  1157.253
 162  1093.916
 163  1106.413
 164  920.7888
 165  883.4944
 166  910.4109
 167  898.8549
 168  810.7038
 169  870.4538
 170  831.6404
 171  902.8323
 172  741.6418
 173  706.2395
 174  827.6213
 175  757.9949
 176  749.0629
 177  763.4706
 178  875.8777
 179  935.5749
 180  978.1167
 181  888.3879
 182  758.4647
 183  867.9409
 184  1114.273
 185  1168.622
 186  1203.84
 187  1173.327
 188  1046.558
 189  916.8109
 190  794.3085
 191  1051.624
 192  1130.358
 193  1210.9
 194  1043.921
 195  1050.537
 196  972.158
 197  867.4156
 198  874.7393
 199  846.6261
 200  809.9634
 201  765.4357
 202  746.0422
 203  709.9261
 204  809.3319
 205  698.4288
 206  469.0004
 207  367.2783
 208  532.0571
 209  761.8162
 210  863.4285
 211  943.6315
 212  1051.602
 213  1062.955
 214  1031.69
 215  1219.328
 216  1329.592
 217  1265.726
 218  1185.926
 219  1158.787
 220  1046.283
 221  867.2847
 222  798.4928
 223  878.2123
 224  851.1931
 225  855.767
 226  990.8162
 227  1035.314
 228  1107.911
 229  1006.391
 230  1066.111
 231  1030.613
 232  932.9278
 233  942.2474
 234  1007.4
 235  987.5216
 236  1113.331
 237  998.9764
 238  880.5533
 239  742.9604
 240  642.7807
 241  573.2097
 242  613.5709
 243  724.9887
 244  814.6429
 245  1107.124
 246  1281.271
 247  1314.813
 248  1313.509
 249  1295.563
 250  1394.834
 251  1442.88
 252  1440.958
 253  1339.119
 254  1260.475
 255  1091.654
 256  1033.958
 257  934.1617
 258  1000.638
 259  884.8646
 260  863.9605
 261  872.8704
 262  926.9916
 263  1083.541
 264  1058.367
 265  1034.541
 266  1067.687
 267  1155.437
 268  1032.23
 269  1006.628
 270  879.6163
 271  704.2826
 272  514.5231
 273  414.7544
 274  558.7462
 275  651.6456
 276  795.0853
 277  816.0363
 278  889.2184
 279  913.1616
 280  1059.415
 281  1162.605
 282  1175.988
 283  1188.025
 284  1151.581
 285  1183.997
 286  1176.247
 287  1219.877
 288  1145.358
 289  1041.161
 290  982.2147
 291  1008.473
 292  1002.261
 293  1034.597
 294  1048.525
 295  1142.446
 296  1085.229
 297  894.9648
 298  849.0215
 299  941.8857
 300  922.2555
 301  984.3091
 302  926.9955
 303  777.9411
 304  756.17
 305  552.9717
 306  578.3541
 307  596.6622
 308  650.9019
 309  735.8507
 310  774.9192
 311  811.3894
 312  807.1334
 313  968.1385
 314  1024.94
 315  987.088
 316  1052.965
 317  1224.974
 318  1256.654
 319  1267.458
 320  1052.918
 321  1030.359
 322  912.9637
 323  915.9564
 324  838.9451
 325  927.3717
 326  1054.464
 327  872.5771
 328  857.7191
 329  787.0074
 330  900.9376
 331  946.8859
 332  969.9904
 333  804.4348
 334  848.6057
 335  956.4652
 336  876.1276
 337  629.7206
 338  481.1671
 339  557.2009
 340  511.2801
 341  517.9244
 342  579.2252
 343  709.6103
 344  718.3912
 345  774.7056
 346  825.3607
 347  896.8291
 348  955.036
 349  1045.314
 350  1130.991
 351  1206.528
 352  1082.283
 353  954.7874
 354  911.3469
 355  885.5472
 356  860.9618
 357  814.1144
 358  960.5635
 359  957.7486
 360  1036.388
 361  996.015
 362  931.6972
 363  955.6591
 364  815.8356
 365  740.7955
 366  693.97
 367  771.8909
 368  723.3586
 369  683.6924
 370  574.7286
 371  467.035
 372  512.006
 373  502.8898
 374  541.6362
 375  612.817
 376  692.6077
 377  764.3123
 378  969.6951
 379  1052.496
 380  992.7025
 381  1061.4
 382  1213.107
 383  1269.029
 384  1284.745
 385  1177.365
 386  1149.65
 387  1016.905
 388  875.7911
 389  845.629
 390  756.8612
 391  885.4067
 392  881.4604
 393  1157.794
 394  1034.791
 395  1045.462
 396  1089.49
 397  1196.342
 398  1021.255
 399  936.7476
 400  849.9913
 401  836.9667
 402  896.9801
 403  903.4012
 404  884.411
 405  634.0404
 406  666.3965
 407  716.7759
 408  800.301
 409  705.7959
 410  916.8176
 411  1121.872
 412  1123.314
 413  1153.611
 414  1229.654
 415  1331.183
 416  1344.29
 417  1386.549
 418  1334.757
 419  1452.349
 420  1281.299
 421  1115.161
 422  925.9529
 423  815.1885
 424  856.2884
 425  997.7996
 426  1230.834
 427  1227.82
 428  1285.257
 429  1197.107
 430  1207.531
 431  1204.915
 432  1320.469
 433  1129.001
 434  1118.956
 435  1016.342
 436  898.8685
 437  746.2736
 438  586.4841
 439  616.0355
 440  579.3137
 441  654.4036
 442  661.9965
 443  769.1282
 444  720.6516
 445  691.2841
 446  842.6452
 447  1075.057
 448  1269.905
 449  1422.579
 450  1522.029
 451  1456.979
 452  1321.987
 453  1119.239
 454  1019.532
 455  931.7439
 456  1030.129
 457  1029.49
 458  1068.223
 459  1000.832
 460  1116.547
 461  1136.223
 462  1006.052
 463  879.9427
 464  819.4709
 465  942.6232
 466  1031.286
 467  1101.771
 468  988.5479
 469  934.3781
 470  715.4716
 471  589.6031
 472  647.4639
 473  744.9321
 474  666.5063
 475  626.2314
 476  756.7373
 477  880.1373
 478  996.2807
 479  959.8138
 480  1015.911
 481  1175.985
 482  1193.025
 483  1190.976
 484  1201.031
 485  1215.183
 486  1066.518
 487  1035.737
 488  976.3205
 489  994.0306
 490  908.2889
 491  1048.66
 492  993.9311
 493  1029.43
 494  850.9784
 495  812.6125
 496  754.0959
 497  827.3922
 498  718.6095
 499  828.1061
 500  733.1094
 501  663.6818
 502  648.1281
 503  606.1622
 504  649.0203
 505  678.2074
 506  731.7839
 507  620.4047
 508  646.2513
 509  682.6475
 510  849.0422
 511  813.4553
 512  854.9289
 513  979.8243
 514  1094.983
 515  1066.142
 516  991.4935
 517  1178.849
 518  1167.461
 519  1095.801
 520  1012.508
 521  889.2108
 522  834.7866
 523  787.5826
 524  985.0104
 525  1011.442
 526  1129.031
 527  1099.416
 528  1085.43
 529  791.9536
 530  713.2903
 531  865.9764
 532  1035.492
 533  821.2173
 534  768.0801
 535  699.3099
 536  641.7135
 537  536.5836
 538  593.7653
 539  695.5502
 540  801.2805
 541  998.5
 542  996.7817
 543  1075.21
 544  931.0001
 545  1127.134
 546  1256.463
 547  1330.906
 548  1202.076
 549  1261.384
 550  1207.356
 551  1185.807
 552  1210.009
 553  1226.027
 554  1197.538
 555  1168.43
 556  1211.361
 557  1122.791
 558  1154.831
 559  1140.612
 560  1081.681
 561  1070.853
 562  986.8862
 563  933.6081
 564  800.1536
 565  871.0534
 566  914.7285
 567  1076.341
 568  926.3323
 569  826.9206
 570  614.215
 571  652.1873
 572  771.9454
 573  909.1103
 574  990.1614
 575  947.3128
 576  1131.386
 577  1094.722
 578  1092.529
 579  944.4696
 580  1230.433
 581  1242.665
 582  1354.908
 583  1297.944
 584  1341.318
 585  1194.356
 586  1021.799
 587  994.9576
 588  1045.792
 589  1018.015
 590  956.4684
 591  950.4242
 592  980.2159
 593  1123.794
 594  1046.014
 595  1041.468
 596  1100.442
 597  1122.237
 598  1048.312
 599  942.4315
 600  841.4968
 601  701.0814
 602  723.114
 603  753.2385
 604  887.5081
 605  931.5095
 606  902.7468
 607  967.4445
 608  1222.233
 609  1285.497
 610  1314.763
 611  1472.303
 612  1573.663
 613  1773.175
 614  1980.702
 615  2221.084
 616  2083.246
 617  1915.183
 618  1803.414
 619  1684.855
 620  1522.726
 621  1397.027
 622  1295.241
 623  1139.472
 624  932.2372
 625  1003.624
 626  1068.165
 627  986.5453
 628  938.8433
 629  980.1252
 630  1038.084
 631  877.9757
 632  966.2838
 633  875.7999
 634  815.2548
 635  731.6874
 636  824.0234
 637  910.7562
 638  855.7742
 639  888.3766
 640  1006.085
 641  1040.36
 642  907.5934
 643  898.2922
 644  934.561
 645  1032.78
 646  1151.984
 647  1319.363
 648  1265.434
 649  1128.509
 650  1174.682
 651  1186.279
 652  1162.233
 653  985.4246
 654  1020.708
 655  1023.221
 656  1069.905
 657  968.3233
 658  940.6942
 659  799.9785
 660  700.3733
 661  739.6516
 662  774.7458
 663  769.3268
 664  916.7661
 665  1011.356
 666  902.2325
 667  825.0565
 668  759.8286
 669  723.5305
 670  626.447
 671  698.3516
 672  817.929
 673  985.9157
 674  990.1158
 675  956.1705
 676  1085.161
 677  1048.564
 678  1156.523
 679  1204.543
 680  1332.468
 681  1129.734
 682  1118.224
 683  1131.423
 684  1052.727
 685  906.028
 686  961.5474
 687  1031.971
 688  1012.073
 689  829.7276
 690  763.2517
 691  900.9883
 692  822.8287
 693  861.7798
 694  883.9954
 695  1058.67
 696  1101.865
 697  1228.261
 698  1208.768
 699  1069.941
 700  858.9103
 701  724.5593
 702  657.053
 703  556.4181
 704  589.9434
 705  628.4426
 706  734.0569
 707  843.5788
 708  909.0557
 709  897.6755
 710  961.046
 711  1213.81
 712  1267.458
 713  1255.744
 714  1166.194
 715  1256.837
 716  1070.394
 717  932.4825
 718  791.8432
 719  840.1862
 720  862.2036
 721  857.7239
 722  853.9908
 723  1059.114
 724  1176.232
 725  1102.332
 726  1150.989
 727  979.3659
 728  1009.446
 729  963.5918
 730  973.9342
 731  857.6631
 732  957.3438
 733  963.7379
 734  863.0598
 735  682.3841
 736  712.4059
 737  885.3911
 738  1061.77
 739  1132.245
 740  956.4799
 741  988.2302
 742  842.0918
 743  959.4617
 744  1108.816
 745  1232.498
 746  1085.819
 747  1192.154
 748  1175.62
 749  1029.647
 750  910.6586
 751  935.9551
 752  968.7657
 753  851.7827
 754  975.818
 755  937.3175
 756  915.0876
 757  819.3036
 758  981.4212
 759  1070.221
 760  836.8182
 761  865.0272
 762  924.9525
 763  1058.589
 764  865.8167
 765  865.0338
 766  802.7747
 767  809.4674
 768  725.1349
 769  696.0911
 770  670.3369
 771  774.1854
 772  883.3932
 773  1049.488
 774  1012.621
 775  971.4224
 776  1064.478
 777  988.2501
 778  1061.424
 779  1046.363
 780  1296.52
 781  1257.402
 782  1206.415
 783  984.9123
 784  901.638
 785  895.1487
 786  972.4876
 787  880.4063
 788  801.4607
 789  878.535
 790  857.1064
 791  964.8201
 792  746.69
 793  801.5223
 794  935.7523
 795  1018.877
 796  963.9135
 797  1015.835
 798  1024.12
 799  1009.946
 800  926.2333
 801  920.009
 802  943.7385
 803  971.8991
 804  1003.443
 805  758.5475
 806  779.8861
 807  744.6767
 808  812.0263
 809  810.5867
 810  919.4374
 811  1116.107
 812  1263.973
 813  1350.167
 814  1372.375
 815  1387.182
 816  1386.499
 817  1398.026
 818  1242.553
 819  1172.234
 820  1005.571
 821  1034.952
 822  993.2402
 823  954.413
 824  1016.229
 825  964.0635
 826  1216.9
 827  1191.308
 828  1168.158
 829  1034.562
 830  1109.942
 831  998.2811
 832  950.5012
 833  844.1959
 834  851.0842
 835  858.4621
 836  844.7998
 837  854.5671
 838  805.5144
 839  723.4977
 840  675.3385
 841  851.4847
 842  1019.86
 843  1116.593
 844  1349.02
 845  1427.484
 846  1351.141
 847  1245.2
 848  1182.034
 849  1229.39
 850  1219.46
 851  1127.858
 852  1023.921
 853  938.9893
 854  949.7258
 855  886.7756
 856  1015.403
 857  995.5043
 858  863.9765
 859  895.5454
 860  774.2752
 861  861.1047
 862  816.5798
 863  888.381
 864  814.658
 865  878.4841
 866  784.3249
 867  767.9316
 868  760.4135
 869  765.1566
 870  692.3618
 871  860.2849
 872  938.0283
 873  880.6339
 874  875.8919
 875  961.366
 876  1107.793
 877  1181.454
 878  1238.304
 879  1210.998
 880  1209.736
 881  1163.672
 882  1160.225
 883  980.7908
 884  934.9376
 885  932.5381
 886  1032.148
 887  1077.297
 888  1084.917
 889  1079.049
 890  979.47
 891  1057.037
 892  1014.515
 893  902.9104
 894  837.3771
 895  1036.336
 896  1027.944
 897  920.8356
 898  725.7879
 899  651.3665
 900  634.6555
 901  555.0579
 902  568.4053
 903  605.1515
 904  691.1121
 905  815.3143
 906  1148.984
 907  1121.235
 908  1003.696
 909  1050.794
 910  1162.94
 911  1268.036
 912  1376.79
 913  1477.716
 914  1388.242
 915  1203.282
 916  1043.145
 917  1017.02
 918  847.2709
 919  897.8759
 920  877.8417
 921  1140.152
 922  1066.537
 923  918.0314
 924  874.2717
 925  758.2226
 926  811.5014
 927  885.8588
 928  1058.052
 929  1010.899
 930  850.6896
 931  711.2696
 932  697.8063
 933  632.8436
 934  589.8228
 935  566.5729
 936  747.5626
 937  910.532
 938  954.7421
 939  909.9912
 940  781.3248
 941  901.0894
 942  958.3162
 943  978.3976
 944  956.2953
 945  1124.328
 946  1296.254
 947  1359.222
 948  1341.331
 949  1184.636
 950  984.9745
 951  869.9229
 952  924.1844
 953  949.4471
 954  1070.401
 955  951.4725
 956  958.5859
 957  890.7192
 958  863.9569
 959  1036.326
 960  1068.173
 961  1066.099
 962  1090.083
 963  962.9713
 964  879.8427
 965  752.7155
 966  737.4122
 967  765.6767
 968  881.2598
 969  982.0479
 970  846.689
 971  741.1712
 972  643.2909
 973  700.8395
 974  866.2495
 975  949.4294
 976  1094.569
 977  1171.155
 978  1324.133
 979  1289.153
 980  1273.071
 981  1275.946
 982  1253.798
 983  1232.653
 984  1171.809
 985  1015.664
 986  941.0878
 987  873.1507
 988  830.9736
 989  886.7661
 990  826.0735
 991  919.8999
 992  955.1933
 993  981.1369
 994  916.6132
 995  964.8092
 996  914.2298
 997  867.8441
 998  748.8809
 999  708.9398
1000  692.1259
1001  694.496
1002  772.7878
1003  772.0214
1004  821.659
1005  788.0924
1006  867.7822
1007  859.3541
1008  894.9583
1009  1114.588
1010  1284.516
1011  1431.344
1012  1293.402
1013  1233.547
1014  992.6893
1015  1053.024
1016  849.1131
1017  806.0653
1018  741.7708
1019  970.8162
1020  1061.504
1021  1193.261
1022  1187.94
1023  953.0636
