# Input file       =  1201806917.117477_cleaned.dat
# Candidate        =  PSR_0332+5434
# Telescope        =  AR
# Epoch_topo       =  58153.802501359685
# Epoch_bary       =  N/A
# T_sample         =  0.002
# Data Folded      =  7340032
# Data Avg         =  0.072034090341601
# Data StdDev      =  3.47736467662907 
# Profile Bins     =  512
# Profile Avg      =  1032.51080158826 
# Profile StdDev   =  416.35543132211  
# Reduced chi-sqr  =  0.655
# Prob(Noise)      <  1   (~0.0 sigma)
# P_topo (ms)      =  714.577688815689  +/- 0.00081
# P'_topo (s/s)    =  -0                +/- 4.27e-10
# P''_topo (s/s^2) =  0                 +/- 1.89e-13
# P_bary (ms)      =  N/A
# P'_bary (s/s)    =  N/A
# P''_bary (s/s^2) =  N/A
# P_orb (s)        =  N/A
# asin(i)/c (s)    =  N/A
# eccentricity     =  N/A
# w (rad)          =  N/A
# T_peri           =  N/A
######################################################
   0  881.8294
   1  1225.301
   2  1197.617
   3  1174.36
   4  1042.543
   5  1188.934
   6  1045.446
   7  828.9492
   8  832.7296
   9  807.8813
  10  970.6165
  11  1109.691
  12  1246.062
  13  1035.393
  14  836.8546
  15  1180.774
  16  1150.109
  17  1123.082
  18  1295.259
  19  1297.869
  20  1217.533
  21  837.2071
  22  875.9229
  23  1099.636
  24  835.8026
  25  1035.093
  26  1305.2
  27  766.876
  28  813.6214
  29  1412.095
  30  1370.027
  31  1204.909
  32  1211.54
  33  1176.101
  34  1002.856
  35  954.5721
  36  1287.559
  37  1416.142
  38  1185.168
  39  1299.595
  40  1313.541
  41  1128.447
  42  1128.277
  43  1159.878
  44  1419.823
  45  1153.404
  46  1318.779
  47  1198.606
  48  1238.727
  49  938.5509
  50  1396.325
  51  1461.138
  52  991.7827
  53  1032.513
  54  1199.044
  55  1061.206
  56  998.9933
  57  1014.439
  58  1220.834
  59  1278.073
  60  905.4894
  61  1109.065
  62  1207.092
  63  986.4649
  64  977.9934
  65  924.17
  66  828.7839
  67  851.1447
  68  998.5521
  69  1167.276
  70  868.5948
  71  988.9482
  72  1151.981
  73  1243.828
  74  1112.413
  75  1109.61
  76  1054.245
  77  1170.069
  78  1211.839
  79  936.2511
  80  884.6953
  81  864.2858
  82  725.3497
  83  596.9282
  84  830.2639
  85  706.1104
  86  1060.609
  87  1284.742
  88  1127.685
  89  804.274
  90  1012.395
  91  1242.183
  92  1215.781
  93  831.1558
  94  923.4248
  95  1230.14
  96  863.9152
  97  868.408
  98  830.6678
  99  975.8301
 100  1096.169
 101  1102.601
 102  1150.966
 103  764.9838
 104  970.563
 105  918.6781
 106  856.2175
 107  967.9291
 108  933.2425
 109  1012.39
 110  955.2772
 111  1153.411
 112  867.9086
 113  809.2413
 114  749.0316
 115  689.5922
 116  812.5066
 117  569.029
 118  878.8823
 119  771.4613
 120  1162.445
 121  1259.759
 122  946.6353
 123  686.1548
 124  924.416
 125  953.0762
 126  911.6912
 127  1009.103
 128  849.4225
 129  1102.865
 130  1104.212
 131  872.2158
 132  1297.654
 133  1511.241
 134  1083.109
 135  1369.591
 136  1374.623
 137  1203.271
 138  1016.936
 139  1028.411
 140  1133.807
 141  935.1931
 142  1256.554
 143  1318.286
 144  1043.565
 145  1308.959
 146  1073.55
 147  901.1392
 148  795.8425
 149  849.3951
 150  1155.161
 151  1198.162
 152  1343.825
 153  1131.495
 154  1076.422
 155  825.4926
 156  977.3601
 157  895.9551
 158  1023.378
 159  1028.151
 160  962.9035
 161  869.8658
 162  882.6509
 163  919.6835
 164  764.1119
 165  899.1981
 166  943.4941
 167  834.3942
 168  1082.209
 169  896.596
 170  727.5297
 171  955.7582
 172  1095.919
 173  1085.002
 174  1439.572
 175  1544.151
 176  1237.032
 177  941.4205
 178  1000.102
 179  876.7098
 180  1198.822
 181  1271.845
 182  770.894
 183  597.4285
 184  784.7222
 185  1065.241
 186  1204.631
 187  1013.298
 188  807.754
 189  1011.719
 190  1143.751
 191  1095.635
 192  873.8129
 193  909.6644
 194  734.7793
 195  690.4456
 196  1093.136
 197  1049.394
 198  711.0862
 199  1181.075
 200  1149.766
 201  969.9735
 202  1250.484
 203  821.2885
 204  938.8729
 205  611.2867
 206  1092.804
 207  1210.718
 208  902.244
 209  994.3789
 210  1038.762
 211  947.1983
 212  768.0227
 213  1134.896
 214  919.5907
 215  994.8436
 216  1284.879
 217  1173.453
 218  1014.998
 219  878.3128
 220  758.8058
 221  571.2341
 222  1001.302
 223  1222.103
 224  871.8738
 225  839.2006
 226  932.6301
 227  851.3344
 228  622.1569
 229  752.533
 230  1015.224
 231  1106.432
 232  850.9793
 233  848.9339
 234  1033.413
 235  1224.995
 236  887.5628
 237  886.7562
 238  832.4506
 239  881.2295
 240  1050.125
 241  818.3344
 242  385.8774
 243  717.4554
 244  846.2147
 245  888.2465
 246  911.989
 247  724.204
 248  876.5345
 249  1315.003
 250  979.559
 251  1210.087
 252  1153.724
 253  1084.348
 254  1206.849
 255  1174.319
 256  1231.711
 257  1015.929
 258  1140.633
 259  1124.401
 260  941.1553
 261  992.8896
 262  1089.576
 263  1028.664
 264  1228.624
 265  1112.803
 266  816.9043
 267  721.1832
 268  883.1566
 269  894.1094
 270  1116.923
 271  1129.31
 272  930.2068
 273  955.5657
 274  682.4756
 275  1023.494
 276  1271.699
 277  1111.13
 278  977.6788
 279  1028.136
 280  1130.58
 281  756.9358
 282  737.7741
 283  943.5997
 284  1250.677
 285  809.9618
 286  678.1467
 287  866.7625
 288  1287.626
 289  1234.719
 290  872.8806
 291  747.2896
 292  693.2874
 293  526.0067
 294  952.6791
 295  919.8066
 296  908.0056
 297  1169.743
 298  1248.973
 299  1149.339
 300  1211.152
 301  1407.807
 302  1238.513
 303  1223.152
 304  1900.744
 305  2296.917
 306  2459.094
 307  2075.326
 308  2400.083
 309  2113.976
 310  1707.738
 311  1204.812
 312  1042.988
 313  1217.688
 314  1155.379
 315  1094.476
 316  1042.393
 317  1094.826
 318  991.7994
 319  1224.711
 320  1285.025
 321  741.1983
 322  872.8472
 323  1191.717
 324  1108.645
 325  1161.087
 326  1267.62
 327  1058.28
 328  521.4141
 329  886.2704
 330  820.8539
 331  1059.183
 332  1230.015
 333  1125.387
 334  1124.655
 335  897.7283
 336  1038.131
 337  1258.332
 338  1170.814
 339  898.099
 340  1017.352
 341  1171.365
 342  848.3638
 343  698.4116
 344  1267.887
 345  943.115
 346  833.8377
 347  991.7417
 348  864.8988
 349  1222.605
 350  883.3708
 351  839.5792
 352  652.259
 353  885.3923
 354  931.8027
 355  982.7431
 356  736.462
 357  859.8108
 358  937.0196
 359  995.731
 360  807.9743
 361  1034.581
 362  922.3926
 363  676.8618
 364  1077.453
 365  802.1054
 366  1118.842
 367  943.2751
 368  584.7615
 369  735.1125
 370  1142.779
 371  1190.962
 372  1086.046
 373  962.6836
 374  813.7522
 375  623.8024
 376  975.3382
 377  978.1097
 378  969.2897
 379  695.0344
 380  883.7693
 381  820.8967
 382  850.3132
 383  816.2662
 384  619.2922
 385  844.0027
 386  875.1699
 387  868.1951
 388  1239.022
 389  1158.763
 390  968.1646
 391  695.276
 392  909.1188
 393  1313.068
 394  1068.89
 395  788.1259
 396  795.6435
 397  977.6667
 398  1112.758
 399  1048.641
 400  999.4354
 401  1136.602
 402  825.2168
 403  629.1447
 404  772.8863
 405  739.8102
 406  675.1358
 407  751.3625
 408  1117.05
 409  929.1592
 410  982.7701
 411  1085.505
 412  1166.588
 413  1251.027
 414  968.8312
 415  826.9433
 416  547.5724
 417  870.1143
 418  714.3433
 419  775.4577
 420  880.3187
 421  697.832
 422  899.6714
 423  1142.752
 424  1123.026
 425  1158.65
 426  1227.371
 427  1129.519
 428  1015.779
 429  926.0528
 430  1350.681
 431  1532.245
 432  1182.221
 433  1032.487
 434  1103.948
 435  1451.937
 436  1201.223
 437  988.0641
 438  1157.126
 439  1343.891
 440  1121.863
 441  717.0167
 442  850.3547
 443  937.6139
 444  1130.234
 445  1217.671
 446  705.978
 447  774.8889
 448  863.4991
 449  932.9211
 450  1056.772
 451  1022.207
 452  1145.201
 453  1041.782
 454  644.7273
 455  954.0883
 456  1173.741
 457  1090.628
 458  782.3351
 459  942.2089
 460  875.6964
 461  733.9006
 462  779.8832
 463  959.7935
 464  976.5515
 465  842.6731
 466  963.0554
 467  695.7214
 468  690.8608
 469  813.3404
 470  950.0646
 471  933.737
 472  1040.504
 473  1193.342
 474  1344.436
 475  1070.268
 476  771.1417
 477  831.6141
 478  1165.024
 479  1137.886
 480  1309.487
 481  1190.088
 482  1067.527
 483  1168.389
 484  1437.974
 485  1437.31
 486  1412.235
 487  1541.751
 488  1469.582
 489  1264.058
 490  1039.691
 491  1488.456
 492  1588.537
 493  1384.242
 494  1055.017
 495  1147.507
 496  1199.728
 497  1243.706
 498  1274.105
 499  1145.049
 500  823.4062
 501  1043.531
 502  1222.781
 503  1167.664
 504  1453.331
 505  1469.066
 506  1586.443
 507  1532.259
 508  1282.596
 509  1146.457
 510  995.7351
 511  680.243
