# Input file       =  1201806917.117477_cleaned.dat
# Candidate        =  PSR_0332+5434
# Telescope        =  AR
# Epoch_topo       =  58153.802501359685
# Epoch_bary       =  N/A
# T_sample         =  0.002
# Data Folded      =  7340032
# Data Avg         =  0.072034090341601
# Data StdDev      =  3.47736467662907 
# Profile Bins     =  512
# Profile Avg      =  1032.51080144586 
# Profile StdDev   =  416.35543132211  
# Reduced chi-sqr  =  0.657
# Prob(Noise)      <  1   (~0.0 sigma)
# P_topo (ms)      =  714.577688776267  +/- 0.000811
# P'_topo (s/s)    =  -0                +/- 4.28e-10
# P''_topo (s/s^2) =  0                 +/- 1.89e-13
# P_bary (ms)      =  N/A
# P'_bary (s/s)    =  N/A
# P''_bary (s/s^2) =  N/A
# P_orb (s)        =  N/A
# asin(i)/c (s)    =  N/A
# eccentricity     =  N/A
# w (rad)          =  N/A
# T_peri           =  N/A
######################################################
   0  1098.153
   1  807.2388
   2  882.9686
   3  901.2275
   4  806.6702
   5  595.8746
   6  838.1044
   7  1094.427
   8  1040.555
   9  824.1119
  10  874.8871
  11  1192.03
  12  1050.035
  13  894.9546
  14  881.4766
  15  807.0202
  16  972.0325
  17  1024.531
  18  583.4943
  19  458.5584
  20  835.3491
  21  821.5323
  22  926.5291
  23  861.8849
  24  709.0693
  25  1060.895
  26  1269.106
  27  937.7087
  28  1295.577
  29  1064.182
  30  1172.702
  31  1160.624
  32  1230.75
  33  1168.417
  34  1023.043
  35  1174.006
  36  1043.666
  37  904.0776
  38  1073.851
  39  1035.38
  40  1101.35
  41  1276.887
  42  960.5385
  43  781.0986
  44  753.4977
  45  886.6616
  46  973.6003
  47  1145.598
  48  1044.994
  49  949.461
  50  906.0983
  51  695.4871
  52  1165.653
  53  1212.602
  54  1033.888
  55  972.9913
  56  1085.776
  57  1025.851
  58  700.8478
  59  818.2653
  60  1116.567
  61  1135.575
  62  735.7415
  63  645.1357
  64  1043.072
  65  1345.441
  66  1092.231
  67  759.8245
  68  828.0404
  69  602.7328
  70  602.5733
  71  1093.231
  72  769.7513
  73  1076.082
  74  1133.988
  75  1292.879
  76  1041.639
  77  1393.044
  78  1306.815
  79  1205.549
  80  1407.965
  81  2066.237
  82  2386.764
  83  2350.507
  84  2105.567
  85  2422.195
  86  2017.442
  87  1532.897
  88  1039.802
  89  1117.395
  90  1196.63
  91  1143.299
  92  1061.279
  93  1093.382
  94  1030.082
  95  1086.601
  96  1289.46
  97  1114.097
  98  668.6868
  99  1040.703
 100  1150.876
 101  1136.414
 102  1185.838
 103  1265.722
 104  881.5404
 105  554.9092
 106  927.9065
 107  850.7438
 108  1133.783
 109  1176.701
 110  1134.458
 111  1083.181
 112  857.9203
 113  1168.345
 114  1246.146
 115  1110.128
 116  864.0742
 117  1106.786
 118  1119.655
 119  690.8858
 120  946.3347
 121  1168.604
 122  847.948
 123  928.5146
 124  916.3931
 125  1007.432
 126  1174.461
 127  822.8275
 128  766.5692
 129  708.2664
 130  861.0171
 131  1048.638
 132  856.9641
 133  771.937
 134  878.4127
 135  979.392
 136  915.5054
 137  853.7661
 138  1096.863
 139  739.7885
 140  865.8386
 141  998.9772
 142  846.7236
 143  1119.949
 144  809.8063
 145  591.95
 146  797.9158
 147  1332.764
 148  1060.453
 149  1129.661
 150  874.3433
 151  726.9282
 152  711.9619
 153  1065.276
 154  917.9772
 155  896.479
 156  725.3715
 157  908.838
 158  775.5214
 159  893.3134
 160  725.4839
 161  649.726
 162  953.7087
 163  767.2452
 164  977.6127
 165  1284.441
 166  1089.579
 167  886.9706
 168  694.1069
 169  1077.449
 170  1305.018
 171  952.5961
 172  756.1385
 173  816.2037
 174  1069.822
 175  1063.336
 176  1036.732
 177  1077.014
 178  1059.949
 179  739.4138
 180  666.2948
 181  803.0546
 182  674.4506
 183  690.3712
 184  839.4052
 185  1112.2
 186  899.8245
 187  1022.514
 188  1117.282
 189  1259.113
 190  1112.562
 191  920.2518
 192  717.4556
 193  641.6855
 194  886.3123
 195  666.7677
 196  830.5168
 197  803.9005
 198  748.5623
 199  996.1207
 200  1169.775
 201  1102.158
 202  1205.272
 203  1199.716
 204  1141.758
 205  926.8805
 206  994.7851
 207  1489.11
 208  1471.727
 209  1069.519
 210  1051.63
 211  1205.816
 212  1416.073
 213  1108.241
 214  996.2839
 215  1256.986
 216  1302.126
 217  959.8359
 218  713.7145
 219  934.2188
 220  999.134
 221  1180.437
 222  1084.331
 223  624.4569
 224  837.0927
 225  868.8937
 226  1008.626
 227  1001.428
 228  1079.924
 229  1155.323
 230  890.6287
 231  689.4723
 232  1072.362
 233  1191.923
 234  969.4673
 235  807.4608
 236  952.4077
 237  829.1606
 238  738.014
 239  804.0785
 240  1018.686
 241  879.9636
 242  885.6043
 243  924.4945
 244  640.6256
 245  749.618
 246  817.312
 247  1022.535
 248  881.6846
 249  1151.15
 250  1251.489
 251  1307.06
 252  921.2988
 253  761.013
 254  933.3519
 255  1174.072
 256  1196.02
 257  1250.845
 258  1169.515
 259  1082.339
 260  1234.61
 261  1477.844
 262  1447.285
 263  1418.317
 264  1570.78
 265  1431.766
 266  1113.037
 267  1138.476
 268  1625.076
 269  1504.343
 270  1305.496
 271  1016.483
 272  1214.685
 273  1167.672
 274  1293.298
 275  1244.61
 276  1004.278
 277  890.6532
 278  1134.832
 279  1186.898
 280  1223.585
 281  1493.945
 282  1486.617
 283  1629.785
 284  1422.624
 285  1190.662
 286  1198.228
 287  826.4502
 288  718.6104
 289  988.2183
 290  1257.162
 291  1131.745
 292  1201.876
 293  992.7961
 294  1237.083
 295  951.4924
 296  849.899
 297  794.6707
 298  858.1529
 299  988.719
 300  1165.394
 301  1269.513
 302  915.0702
 303  867.7819
 304  1277.174
 305  1051.331
 306  1244.07
 307  1232.721
 308  1411.62
 309  998.6239
 310  868.5612
 311  925.9244
 312  1036.404
 313  832.0555
 314  1173.504
 315  1182.859
 316  668.0063
 317  1046.911
 318  1426.569
 319  1370.686
 320  1126.597
 321  1221.022
 322  1142.869
 323  920.3336
 324  1069.833
 325  1396.047
 326  1327.307
 327  1159.051
 328  1382.509
 329  1236.106
 330  1145.572
 331  1136.71
 332  1238.368
 333  1356.828
 334  1085.163
 335  1419.309
 336  1127.078
 337  1211.292
 338  948.663
 339  1557.724
 340  1316.889
 341  914.8948
 342  1158.723
 343  1121.143
 344  1079.288
 345  920.5935
 346  1083.511
 347  1305.267
 348  1158.439
 349  951.4017
 350  1181.654
 351  1121.538
 352  936.3633
 353  1009.149
 354  847.8395
 355  873.39
 356  837.8535
 357  1129.701
 358  1068.129
 359  837.9436
 360  1067.207
 361  1179.302
 362  1236.323
 363  1105.021
 364  1060.752
 365  1097.265
 366  1197.217
 367  1134.046
 368  898.376
 369  897.7908
 370  819.3049
 371  660.8186
 372  670.7921
 373  758.3254
 374  787.598
 375  1175.944
 376  1310.437
 377  980.2032
 378  822.3906
 379  1104.597
 380  1285.305
 381  1114.226
 382  737.1664
 383  1118.712
 384  1108.893
 385  811.1087
 386  936.2964
 387  796.4774
 388  1061.533
 389  1070.728
 390  1165.799
 391  1042.869
 392  756.0456
 393  1030.558
 394  796.2115
 395  951.4822
 396  922.0775
 397  974.3189
 398  997.5924
 399  1049.576
 400  1065.292
 401  817.6943
 402  825.1674
 403  686.8949
 404  790.1812
 405  680.2615
 406  645.7105
 407  881.9656
 408  885.4996
 409  1220.758
 410  1222.477
 411  809.1725
 412  715.8522
 413  1000.787
 414  898.6407
 415  941.0724
 416  953.6059
 417  880.7608
 418  1163.404
 419  1039.184
 420  908.9915
 421  1478.466
 422  1333.847
 423  1141.428
 424  1412.712
 425  1363.439
 426  1138.407
 427  954.9822
 428  1131.883
 429  1051.562
 430  967.0274
 431  1396.992
 432  1145.356
 433  1107.86
 434  1316.661
 435  990.3245
 436  801.5563
 437  826.0669
 438  947.6205
 439  1171.775
 440  1284.421
 441  1242.648
 442  1160.123
 443  977.6865
 444  847.0869
 445  929.049
 446  940.6431
 447  1086.847
 448  957.4844
 449  965.5405
 450  829.5518
 451  932.7607
 452  849.376
 453  796.1995
 454  944.2287
 455  925.8625
 456  880.7869
 457  1067.852
 458  778.3733
 459  818.7546
 460  1009.888
 461  1048.393
 462  1155.62
 463  1567.389
 464  1492.697
 465  1134.815
 466  903.4071
 467  961.1874
 468  939.9301
 469  1289.125
 470  1160.957
 471  655.3509
 472  615.3323
 473  889.3676
 474  1152.548
 475  1134.83
 476  923.5209
 477  816.9749
 478  1129.352
 479  1110.863
 480  1044.991
 481  866.2582
 482  911.3331
 483  671.5565
 484  774.0945
 485  1169.491
 486  870.5762
 487  863.3499
 488  1215.401
 489  1085.739
 490  1046.026
 491  1142.994
 492  842.0977
 493  877.6879
 494  612.9294
 495  1317.356
 496  992.5043
 497  941.949
 498  1015.778
 499  1068.494
 500  795.6316
 501  913.9007
 502  1103.719
 503  889.6336
 504  1080.518
 505  1302.922
 506  1092.227
 507  1015.294
 508  820.3395
 509  684.9167
 510  666.3082
 511  1176.476
