# Input file       =  1201720771.121948_cleaned.dat
# Candidate        =  PSR_0332+5434
# Telescope        =  AR
# Epoch_topo       =  58152.805441226250
# Epoch_bary       =  N/A
# T_sample         =  0.002
# Data Folded      =  7340032
# Data Avg         =  0.0794719654316263
# Data StdDev      =  3.4857365875111  
# Profile Bins     =  512
# Profile Avg      =  1139.28961025937 
# Profile StdDev   =  417.357825632292 
# Reduced chi-sqr  =  0.850
# Prob(Noise)      <  0.994   (~0.0 sigma)
# P_topo (ms)      =  714.577331894973  +/- 0.000286
# P'_topo (s/s)    =  -0                +/- 1.51e-10
# P''_topo (s/s^2) =  0                 +/- 6.65e-14
# P_bary (ms)      =  N/A
# P'_bary (s/s)    =  N/A
# P''_bary (s/s^2) =  N/A
# P_orb (s)        =  N/A
# asin(i)/c (s)    =  N/A
# eccentricity     =  N/A
# w (rad)          =  N/A
# T_peri           =  N/A
######################################################
   0  1413.324
   1  1499.011
   2  1214.553
   3  1128.292
   4  938.864
   5  880.8512
   6  830.2838
   7  1020.572
   8  1006.975
   9  1393.572
  10  1303.291
  11  1114.034
  12  1143.392
  13  1099.793
  14  1134.385
  15  916.5416
  16  1060.265
  17  1305.661
  18  1196.22
  19  1100.292
  20  874.4871
  21  1349.303
  22  1387.341
  23  1153.849
  24  944.5356
  25  916.5398
  26  1284.548
  27  1347.961
  28  1134.89
  29  1017.685
  30  860.7686
  31  844.6756
  32  1002.894
  33  1440.321
  34  1254.398
  35  1143.111
  36  1227.384
  37  1019.82
  38  1063.143
  39  1070.123
  40  1075.368
  41  1066.198
  42  1131.581
  43  1232.529
  44  892.4977
  45  1036.627
  46  1230.781
  47  1446.238
  48  1210.732
  49  1168.43
  50  1499.387
  51  1708.495
  52  1601.043
  53  1412.035
  54  1543.534
  55  878.8975
  56  757.5806
  57  1130.515
  58  1069.871
  59  636.8608
  60  808.8486
  61  1403.74
  62  1381.276
  63  828.2748
  64  896.2091
  65  1304.229
  66  1347.594
  67  1296.325
  68  1452.066
  69  1434.883
  70  989.0968
  71  1051.034
  72  1362.841
  73  1352.396
  74  1192.449
  75  1486.599
  76  1499.33
  77  1155.035
  78  1350.977
  79  1663.718
  80  1543.347
  81  1336.203
  82  1230.748
  83  1118.068
  84  1197.038
  85  805.4758
  86  1042.924
  87  1246.865
  88  948.7272
  89  1442.83
  90  1620.881
  91  1409.815
  92  1072.182
  93  1288.03
  94  1508.491
  95  1653.597
  96  1621.311
  97  1420.716
  98  1320.507
  99  1487.417
 100  1287.048
 101  1529
 102  1691.007
 103  1501.319
 104  1006.362
 105  1205.974
 106  1327.08
 107  1386.355
 108  1317.043
 109  1096.962
 110  1029.561
 111  1303.23
 112  1230.573
 113  1444.004
 114  1125.674
 115  956.3846
 116  1201.552
 117  1341.376
 118  1523.763
 119  1481.279
 120  996.5574
 121  1041.947
 122  1006.358
 123  1115.975
 124  1358.967
 125  1397.094
 126  961.5466
 127  909.3582
 128  1123.512
 129  1108.666
 130  1221.362
 131  1239.061
 132  1235.995
 133  1282.607
 134  1400.474
 135  1235.563
 136  978.2521
 137  1017.964
 138  1184.616
 139  1227.614
 140  1424.599
 141  1606.698
 142  1462.887
 143  1300.482
 144  1167.784
 145  1395.928
 146  1768.202
 147  1305.358
 148  1256.809
 149  1359.384
 150  1375.318
 151  1232.287
 152  1359.788
 153  1289.168
 154  1207.944
 155  1320.796
 156  1307.412
 157  1221.939
 158  1160.248
 159  1075.673
 160  945.7294
 161  693.2678
 162  1123.964
 163  1181.124
 164  978.5157
 165  1483.968
 166  1129.932
 167  955.8427
 168  1001.873
 169  1241.02
 170  990.4175
 171  1181.209
 172  1330.258
 173  1360.501
 174  1531.98
 175  1502.475
 176  1511.683
 177  1436.865
 178  1302.93
 179  1063.231
 180  957.0115
 181  1179.811
 182  950.0995
 183  1150.406
 184  1616.048
 185  1335.532
 186  1162.136
 187  1181.712
 188  1253.253
 189  1040.763
 190  1076.481
 191  978.6548
 192  878.7248
 193  1017.491
 194  896.0828
 195  866.0137
 196  993.7966
 197  857.2226
 198  864.1588
 199  891.9465
 200  972.5967
 201  1036.157
 202  803.7025
 203  651.0757
 204  905.4902
 205  1211.59
 206  955.1743
 207  967.2872
 208  1111.132
 209  776.5665
 210  449.335
 211  922.3594
 212  987.9564
 213  597.1618
 214  715.1545
 215  755.7526
 216  1006.329
 217  857.4391
 218  715.6536
 219  844.1995
 220  643.0443
 221  837.6931
 222  513.8978
 223  513.4462
 224  636.2979
 225  619.2304
 226  791.3115
 227  1003.957
 228  1107.652
 229  814.242
 230  1125.827
 231  544.1931
 232  628.0189
 233  1088.971
 234  1066.718
 235  853.3346
 236  829.3029
 237  859.5896
 238  550.3566
 239  518.0799
 240  954.3931
 241  1003.939
 242  812.1808
 243  663.1268
 244  920.6389
 245  1064.447
 246  824.9876
 247  1095.278
 248  1301.758
 249  1229.37
 250  1097.046
 251  1268.947
 252  989.5114
 253  715.1302
 254  886.2936
 255  1147.916
 256  829.3979
 257  828.5853
 258  875.0384
 259  779.2849
 260  829.8194
 261  766.4875
 262  1133.832
 263  1154.835
 264  899.3209
 265  1240.925
 266  902.0834
 267  652.8356
 268  881.4823
 269  1109.44
 270  1113.933
 271  1005.993
 272  929.1864
 273  948.7863
 274  1203.442
 275  1230.449
 276  1139.723
 277  1313.816
 278  1055.392
 279  1026.315
 280  1251.264
 281  1294.665
 282  1126.595
 283  1028.826
 284  679.4928
 285  702.8143
 286  889.6148
 287  1079.533
 288  1375.654
 289  1146.582
 290  1114.776
 291  762.2232
 292  865.3692
 293  928.6281
 294  1170.372
 295  1157.822
 296  995.2322
 297  1287.063
 298  1186.494
 299  1160.555
 300  1465.218
 301  1423.096
 302  1558.957
 303  1718.138
 304  1790.324
 305  2154.351
 306  2557.915
 307  2819.532
 308  2738.16
 309  2184.927
 310  1680.333
 311  1619.477
 312  1698.036
 313  1163.514
 314  1409.894
 315  1437.8
 316  1414.25
 317  1142.663
 318  1117.979
 319  1291.011
 320  1521.748
 321  1678.75
 322  1612.05
 323  1462.101
 324  1326.909
 325  1042.595
 326  1175.791
 327  1059.106
 328  1188.285
 329  1223.435
 330  1472.239
 331  1300.839
 332  939.357
 333  742.7374
 334  784.9695
 335  1163.929
 336  1202.344
 337  1197.354
 338  1277.647
 339  1158.721
 340  1436.212
 341  1186.898
 342  1053.822
 343  882.4608
 344  829.599
 345  1036.559
 346  1173.38
 347  933.3005
 348  1048.797
 349  917.6954
 350  661.0145
 351  891.9684
 352  1033.111
 353  1183.149
 354  1031.073
 355  1091.794
 356  1093.223
 357  1186.984
 358  1241.703
 359  791.4624
 360  925.8746
 361  1281.334
 362  1336.066
 363  1165.464
 364  1413.284
 365  1371.241
 366  994.0546
 367  1093.545
 368  1050.916
 369  1022.116
 370  1304.792
 371  1142.084
 372  806.1315
 373  954.777
 374  1108.75
 375  980.3135
 376  886.7321
 377  1095.74
 378  1174.975
 379  761.4211
 380  1001.219
 381  1227.123
 382  931.9075
 383  775.5269
 384  818.4385
 385  659.8232
 386  760.7784
 387  937.4148
 388  981.4235
 389  1009.227
 390  1062.541
 391  1272.832
 392  1200.865
 393  1059.214
 394  959.5698
 395  777.146
 396  728.1826
 397  900.7266
 398  1020.315
 399  779.6737
 400  956.1318
 401  1132.076
 402  892.5753
 403  1100.858
 404  1268.211
 405  1267.652
 406  1310.211
 407  1444.709
 408  1141.805
 409  1262.765
 410  1401.709
 411  1368.021
 412  1214.989
 413  1299.503
 414  1127.938
 415  1017.56
 416  979.4863
 417  1139.134
 418  937.0621
 419  602.4669
 420  1140.302
 421  1183.599
 422  664.6114
 423  888.0877
 424  873.3188
 425  883.6426
 426  1324.226
 427  1403.146
 428  1484.135
 429  981.7482
 430  1275.168
 431  1621.327
 432  1269.49
 433  1283.1
 434  1375.325
 435  1328.438
 436  1567.816
 437  1124.43
 438  1134.103
 439  1171.38
 440  937.2301
 441  965.6588
 442  662.4031
 443  867.2104
 444  787.9169
 445  899.6562
 446  1063.415
 447  1069.435
 448  837.0865
 449  813.5223
 450  842.3663
 451  1086.018
 452  1020.406
 453  1036.967
 454  1081.845
 455  1035.471
 456  1372.207
 457  1176.415
 458  1480.531
 459  1126.392
 460  1403.026
 461  1403.758
 462  1384.326
 463  1363.085
 464  1230.552
 465  1041.523
 466  1010.751
 467  1102.622
 468  1094.769
 469  1062.109
 470  1436.45
 471  1440.605
 472  1454.495
 473  1435.438
 474  1005.331
 475  1098.7
 476  1088.767
 477  1295.192
 478  1395.789
 479  1223.742
 480  1332.813
 481  1258.285
 482  1209.696
 483  1092.679
 484  984.3557
 485  718.5047
 486  1069.952
 487  1072.488
 488  1274.927
 489  1452.678
 490  1326.354
 491  1065.52
 492  965.1703
 493  946.3112
 494  841.0078
 495  1131.888
 496  1317.27
 497  1157.995
 498  1014.231
 499  1124.344
 500  971.7903
 501  937.4874
 502  1400.378
 503  1444.176
 504  1337.516
 505  1112.68
 506  1182.628
 507  1074.305
 508  806.9601
 509  1028.105
 510  1252.537
 511  1204.23
