# Input file       =  1201376082.115093_cleaned.dat
# Candidate        =  PSR_0332+5434
# Telescope        =  AR
# Epoch_topo       =  58148.815985128393
# Epoch_bary       =  N/A
# T_sample         =  0.002
# Data Folded      =  7340032
# Data Avg         =  0.0879487656441465
# Data StdDev      =  3.39311078156397 
# Profile Bins     =  512
# Profile Avg      =  1260.87353529356 
# Profile StdDev   =  406.267456639396 
# Reduced chi-sqr  =  0.897
# Prob(Noise)      <  0.954   (~0.0 sigma)
# P_topo (ms)      =  714.575743197128  +/- 0.000412
# P'_topo (s/s)    =  -0                +/- 2.17e-10
# P''_topo (s/s^2) =  0                 +/- 9.6e-14
# P_bary (ms)      =  N/A
# P'_bary (s/s)    =  N/A
# P''_bary (s/s^2) =  N/A
# P_orb (s)        =  N/A
# asin(i)/c (s)    =  N/A
# eccentricity     =  N/A
# w (rad)          =  N/A
# T_peri           =  N/A
######################################################
   0  1218.399
   1  1358.162
   2  1995.903
   3  1690.409
   4  1497.522
   5  1689.872
   6  1571.274
   7  1368.195
   8  1271.642
   9  1020.402
  10  1352.06
  11  1538.336
  12  1558.45
  13  1418.111
  14  1526.854
  15  1316.542
  16  818.1251
  17  1035.686
  18  1253.187
  19  1226.854
  20  1097.024
  21  1391.247
  22  1370.929
  23  1032.459
  24  846.327
  25  1166.22
  26  1260.674
  27  1473.447
  28  1294.939
  29  999.5594
  30  827.571
  31  1103.995
  32  1341.594
  33  1204.327
  34  1540.273
  35  1686.058
  36  1237.076
  37  718.0446
  38  980.4603
  39  1498.124
  40  1231.802
  41  1226.429
  42  1477.209
  43  1456.719
  44  1315.132
  45  1077.196
  46  1132.789
  47  1278.98
  48  1123.539
  49  1386.736
  50  1135.99
  51  1024.843
  52  948.3094
  53  963.502
  54  899.4337
  55  789.1271
  56  715.0589
  57  763.7922
  58  999.4005
  59  1075.851
  60  1296.878
  61  1481.469
  62  1449.246
  63  1177.185
  64  1171.697
  65  1240.552
  66  1301.173
  67  1333.267
  68  1485.542
  69  1515.653
  70  1429.042
  71  1386.578
  72  1342.393
  73  1388.664
  74  1306.868
  75  1168.748
  76  1204.371
  77  1164.268
  78  872.6226
  79  994.321
  80  737.5283
  81  768.6253
  82  1328.459
  83  1277.203
  84  1199.266
  85  1040.607
  86  1323.004
  87  1593.25
  88  1437.919
  89  1461.547
  90  1547.719
  91  1546.495
  92  1223.425
  93  1137.01
  94  1341.133
  95  1378.084
  96  1292.8
  97  1112.79
  98  1016.194
  99  941.6525
 100  1402.364
 101  1376.191
 102  1102.27
 103  1015.53
 104  914.1123
 105  638.6996
 106  948.9097
 107  1218.772
 108  1213.552
 109  1083.234
 110  1147.214
 111  1345.031
 112  1421.503
 113  1102.976
 114  945.0977
 115  1062.364
 116  1168.958
 117  660.9443
 118  749.3642
 119  1129.955
 120  1230.333
 121  774.2593
 122  631.2353
 123  1048.872
 124  1254.785
 125  1197.465
 126  1169.024
 127  1257.528
 128  1160.66
 129  947.8179
 130  700.9114
 131  1028.433
 132  1030.78
 133  940.2429
 134  1094.154
 135  1356.966
 136  1297.711
 137  1210.595
 138  1044.897
 139  1480.379
 140  1352.802
 141  1174.622
 142  1514.718
 143  1306.895
 144  1195.587
 145  1258.066
 146  1114.111
 147  1173.406
 148  992.3729
 149  1044.735
 150  1175.372
 151  1131.537
 152  1194.047
 153  1094.562
 154  1254.987
 155  1353.445
 156  1153.47
 157  1220.683
 158  1176.559
 159  1491.732
 160  1248.31
 161  1202.794
 162  1191.785
 163  1285.918
 164  1267.272
 165  1404.198
 166  1522.889
 167  1592.175
 168  1271.257
 169  1380.773
 170  1492.508
 171  1588.753
 172  1254.564
 173  1101.748
 174  1147.689
 175  1324.221
 176  1476.738
 177  1767.605
 178  1980.738
 179  1568.391
 180  1317.876
 181  1227.998
 182  1406.769
 183  1402.383
 184  1522.889
 185  1279.107
 186  1369.718
 187  1136.131
 188  1104.121
 189  1236.542
 190  1074.091
 191  904.0146
 192  1281.415
 193  1203.8
 194  1373.386
 195  1500.668
 196  1474.466
 197  1446.513
 198  1480.755
 199  1573.721
 200  1806.318
 201  1981.485
 202  1527.178
 203  1789.413
 204  1533.771
 205  1372.254
 206  1525.601
 207  1371.776
 208  1457.497
 209  1099.293
 210  1477.496
 211  1331.937
 212  1095.554
 213  1088.789
 214  1376.664
 215  1211.463
 216  1107.471
 217  901.0358
 218  972.8145
 219  1178.987
 220  1175.063
 221  1291.109
 222  1280
 223  986.5983
 224  1001.567
 225  1322.802
 226  1382.917
 227  1454.16
 228  1498.696
 229  858.4698
 230  1227.003
 231  1721.893
 232  1257.546
 233  1036.715
 234  1475.77
 235  1681.504
 236  1356.628
 237  1122.195
 238  1407.159
 239  1279.204
 240  1353.434
 241  1649.824
 242  1660.847
 243  1246.442
 244  1271.094
 245  1183.201
 246  1059.224
 247  1298.026
 248  1492.26
 249  1438.001
 250  1484.307
 251  1191.599
 252  1089.478
 253  1420.88
 254  1036.976
 255  910.8436
 256  1110.908
 257  1340.671
 258  1105.986
 259  1060.082
 260  971.6251
 261  664.9001
 262  901.6095
 263  953.199
 264  1159.657
 265  1145.988
 266  1119.201
 267  1320.209
 268  994.1344
 269  1262.985
 270  1280.829
 271  1388.385
 272  1415.1
 273  1476.978
 274  1403.149
 275  1197.936
 276  937.7322
 277  1410.4
 278  1484.905
 279  1428.558
 280  1542.29
 281  1409.904
 282  1365.269
 283  1438.998
 284  1252.44
 285  1171.659
 286  1185.948
 287  1238.12
 288  1329.167
 289  1479.205
 290  1343.224
 291  1565.934
 292  1643.393
 293  1203.911
 294  1116.565
 295  1251.222
 296  1254.568
 297  1310.37
 298  1086.445
 299  979.7252
 300  1080.331
 301  1416.198
 302  1507.629
 303  1443.202
 304  1690.996
 305  2095.915
 306  2468.083
 307  2826.308
 308  3209.986
 309  3110.66
 310  2614.224
 311  1705.559
 312  1063.019
 313  1400.737
 314  1613.806
 315  1461.34
 316  1419.872
 317  1533.48
 318  1488.512
 319  1784.886
 320  1752.485
 321  1644.472
 322  1190.3
 323  1267.485
 324  1329.487
 325  1334.475
 326  1407.114
 327  1077.037
 328  1355.591
 329  1344.281
 330  1004.26
 331  863.1129
 332  1046.334
 333  1257.644
 334  1431.292
 335  1284.341
 336  1317.003
 337  1210.123
 338  1498.47
 339  1515.866
 340  1331.032
 341  1275.674
 342  1072.629
 343  1176.069
 344  1239.541
 345  1172.114
 346  954.8417
 347  961.9431
 348  741.7125
 349  1029.827
 350  1055.244
 351  1141.661
 352  1286.257
 353  1167.725
 354  1105.475
 355  1145.555
 356  1123.773
 357  1170.451
 358  848.8546
 359  947.8593
 360  1004.221
 361  1254.492
 362  1161.102
 363  1148.926
 364  1126.679
 365  1104.423
 366  1015.626
 367  933.8214
 368  979.0932
 369  1266.874
 370  1174.589
 371  1012.283
 372  935.9937
 373  1110.458
 374  1227.104
 375  1102.258
 376  1775.165
 377  1826.111
 378  1427.441
 379  1417.316
 380  1241.346
 381  1264.991
 382  1089.834
 383  1326.57
 384  1386.471
 385  1308.815
 386  1322.769
 387  1197.563
 388  838.3508
 389  1162.962
 390  1447.163
 391  1266.094
 392  955.484
 393  950.9592
 394  1414.158
 395  1489.344
 396  973.0445
 397  1224.259
 398  1192.653
 399  1106.254
 400  1031.247
 401  1227.705
 402  1095.55
 403  907.3267
 404  989.1271
 405  1209.153
 406  1405.782
 407  1113.319
 408  1135.392
 409  1326.785
 410  928.9711
 411  711.7397
 412  845.0519
 413  951.2058
 414  1039.723
 415  998.564
 416  986.0583
 417  1341.558
 418  1179.577
 419  929.9798
 420  865.0848
 421  963.8602
 422  996.5943
 423  1315.488
 424  1264.275
 425  1108.836
 426  1402.897
 427  1134.688
 428  1199.114
 429  1182.752
 430  1178.605
 431  1302.435
 432  1410.05
 433  1446.595
 434  1504.918
 435  1339.016
 436  1324.148
 437  1220.285
 438  1302.505
 439  1374.607
 440  1591.896
 441  1408.997
 442  1393.604
 443  1543.34
 444  1381.758
 445  1059.651
 446  987.7913
 447  1548.336
 448  1441.37
 449  1238.194
 450  1346.014
 451  1344.788
 452  1145.878
 453  1187.159
 454  982.1528
 455  1070.277
 456  1128.733
 457  1505.715
 458  1322.377
 459  1423.898
 460  1143.366
 461  892.3913
 462  943.3418
 463  944.5983
 464  1197.506
 465  1432.678
 466  1365.613
 467  1125.177
 468  1368.965
 469  920.2931
 470  825.3008
 471  1220.471
 472  1082.787
 473  929.1256
 474  984.9109
 475  1552.306
 476  1460.765
 477  1367.29
 478  1641.379
 479  1397.714
 480  1263.417
 481  1480.479
 482  1686.205
 483  1412.397
 484  1316.042
 485  1139.11
 486  1113.156
 487  1604.457
 488  1318.016
 489  1201.495
 490  1160.261
 491  1362.52
 492  1328.607
 493  1010.042
 494  1261.928
 495  1220.964
 496  1220.194
 497  1373.58
 498  1226.793
 499  1268.952
 500  1318.659
 501  1184.045
 502  954.4506
 503  956.6328
 504  1489.741
 505  1487.841
 506  1312.365
 507  1114.792
 508  1214.339
 509  1400.277
 510  1473.619
 511  1464.56
