# Input file       =  1201102552.109643_cleaned.dat
# Candidate        =  PSR_0332+5434
# Telescope        =  AR
# Epoch_topo       =  58145.650128583831
# Epoch_bary       =  N/A
# T_sample         =  0.002
# Data Folded      =  7340032
# Data Avg         =  0.0881908185827861
# Data StdDev      =  3.77320965332353 
# Profile Bins     =  512
# Profile Avg      =  1264.32776969627 
# Profile StdDev   =  451.777848678551 
# Reduced chi-sqr  =  0.898
# Prob(Noise)      <  0.952   (~0.0 sigma)
# P_topo (ms)      =  714.573966443824  +/- 0.000221
# P'_topo (s/s)    =  -0                +/- 1.17e-10
# P''_topo (s/s^2) =  0                 +/- 5.15e-14
# P_bary (ms)      =  N/A
# P'_bary (s/s)    =  N/A
# P''_bary (s/s^2) =  N/A
# P_orb (s)        =  N/A
# asin(i)/c (s)    =  N/A
# eccentricity     =  N/A
# w (rad)          =  N/A
# T_peri           =  N/A
######################################################
   0  438.5132
   1  184.4997
   2  697.6427
   3  917.5164
   4  1126.588
   5  913.8773
   6  795.1928
   7  911.948
   8  647.0483
   9  924.8625
  10  655.2867
  11  762.985
  12  1164.608
  13  1238.147
  14  1476.435
  15  1248.608
  16  1596.938
  17  1560.217
  18  993.5425
  19  1011.139
  20  1352.273
  21  1258.615
  22  1177.562
  23  1464.994
  24  1384.774
  25  1356.65
  26  1203.728
  27  1051.681
  28  1131.101
  29  1178.554
  30  1563.289
  31  1949.285
  32  1686.869
  33  1101.774
  34  1134.93
  35  887.4157
  36  1185.693
  37  1617.624
  38  1522.137
  39  1468.465
  40  867.1139
  41  685.7433
  42  1111.526
  43  1092.065
  44  1404.838
  45  1592.287
  46  1469.941
  47  1330.296
  48  1216.863
  49  1550.324
  50  1697.008
  51  1534.278
  52  1535.498
  53  1672.461
  54  1791.307
  55  1540.431
  56  1477.626
  57  2232.58
  58  2157.376
  59  1574.806
  60  1529.775
  61  1386.543
  62  1687.263
  63  1761.315
  64  1917.147
  65  1923.11
  66  1355.671
  67  1103.438
  68  1269.156
  69  1156.416
  70  1383.291
  71  1624.234
  72  1711.206
  73  1645.905
  74  1509.904
  75  1546.456
  76  1327.207
  77  1169.714
  78  1502.28
  79  1529.826
  80  1419.155
  81  1423.75
  82  1372.244
  83  1447.881
  84  1479.062
  85  1723.462
  86  1342.758
  87  1070.26
  88  1243.08
  89  1171.051
  90  1438.071
  91  1524.882
  92  1631.484
  93  1603.744
  94  866.6196
  95  1027.218
  96  1110.891
  97  1201.724
  98  1211.922
  99  1213.13
 100  1467.693
 101  1701.089
 102  1645.317
 103  1371.006
 104  843.3044
 105  1101.457
 106  1135.689
 107  1420.439
 108  1309.698
 109  1095.906
 110  1019.181
 111  1106.648
 112  1171.595
 113  1285.309
 114  1444.321
 115  1018.873
 116  999.2
 117  835.4998
 118  1009.836
 119  1162.455
 120  825.566
 121  805.4169
 122  680.429
 123  709.6939
 124  1007.783
 125  832.3925
 126  1330.693
 127  1616.609
 128  1663.301
 129  1506.748
 130  1362.798
 131  1029.611
 132  1319.679
 133  1240.133
 134  1766.71
 135  1722.966
 136  1598.514
 137  1065.117
 138  479.0564
 139  771.6321
 140  1132.829
 141  1217.322
 142  1444.636
 143  1908.831
 144  1275.204
 145  893.972
 146  1140.945
 147  932.4949
 148  1261.775
 149  1006.211
 150  1024.053
 151  1239.943
 152  1252.511
 153  1255.353
 154  1063.159
 155  1119.733
 156  1306.522
 157  1620.755
 158  1531.67
 159  1488.147
 160  1640.766
 161  1216.787
 162  916.2349
 163  1182.538
 164  1419.818
 165  1506.186
 166  1525.574
 167  1641.793
 168  1656.87
 169  1452.247
 170  1245.338
 171  1591.16
 172  1441.047
 173  1615.239
 174  1606.387
 175  1733.644
 176  1390.366
 177  1057.993
 178  1001.794
 179  1272.302
 180  1312.11
 181  1478.958
 182  1210.242
 183  1040.711
 184  1316.828
 185  1381.801
 186  1513.091
 187  1684.034
 188  1699.018
 189  1466.805
 190  1619.511
 191  1811.749
 192  1367.246
 193  1445.74
 194  1590.288
 195  1271.718
 196  1454.048
 197  1748.33
 198  1818.724
 199  1403.847
 200  1091.208
 201  1456.982
 202  1589.281
 203  1260.764
 204  1323.541
 205  1183.578
 206  1262.62
 207  1084.652
 208  1029.781
 209  1059.545
 210  1271.44
 211  1399.744
 212  1289.987
 213  950.7704
 214  1492.045
 215  1409.241
 216  1382.392
 217  1458.15
 218  1091.743
 219  1007.547
 220  1108.584
 221  821.9542
 222  982.9598
 223  946.8883
 224  940.6862
 225  1124.972
 226  1341.577
 227  1282.139
 228  1085.85
 229  1098.267
 230  1127.581
 231  835.1498
 232  781.2
 233  1039.671
 234  1289.524
 235  1377.884
 236  1437.403
 237  1272.69
 238  1241.669
 239  1315.288
 240  982.7712
 241  1102.87
 242  1407.948
 243  1262.171
 244  1349.302
 245  1372.24
 246  1229.898
 247  1122.848
 248  992.1747
 249  1226.237
 250  1262.83
 251  1277.09
 252  1095.774
 253  1153.657
 254  1390.914
 255  1377.127
 256  918.8755
 257  1271.638
 258  1331.931
 259  1202.721
 260  1347.84
 261  1368.701
 262  941.7827
 263  987.8828
 264  1396.985
 265  1248.296
 266  1027.36
 267  1439.71
 268  1090.729
 269  1143.192
 270  1110.346
 271  1323.965
 272  1283.035
 273  1068.583
 274  1066.043
 275  1055.305
 276  1033.407
 277  1651.191
 278  1273.765
 279  1580.662
 280  1438.44
 281  1181.604
 282  1283.25
 283  1117.15
 284  1427.354
 285  1140.485
 286  1385.702
 287  1412.285
 288  1328.099
 289  1164.036
 290  1157.507
 291  1380.974
 292  1669.036
 293  2062.805
 294  2049.341
 295  1199.688
 296  1183.934
 297  1457.581
 298  1454.563
 299  1128.354
 300  1303.043
 301  1575.386
 302  1131.713
 303  1346.682
 304  2025.008
 305  2318.495
 306  2614.653
 307  2558.154
 308  2540.873
 309  2258.286
 310  2001.234
 311  1793.293
 312  1649.424
 313  1542.816
 314  1605.337
 315  1258.316
 316  1120.734
 317  1233.888
 318  962.0876
 319  921.5322
 320  1543.009
 321  1504.646
 322  1389.28
 323  1108.707
 324  947.0728
 325  1243.867
 326  1311.348
 327  1171.286
 328  1273.872
 329  1046.786
 330  1061.708
 331  1312.331
 332  1608.605
 333  1316.181
 334  1255.878
 335  1358.176
 336  1353.317
 337  1354.366
 338  1133.26
 339  1004.292
 340  956.4103
 341  1508.863
 342  1523.324
 343  1543.013
 344  1530.265
 345  1522.183
 346  1012.68
 347  731.6808
 348  703.2101
 349  1430.72
 350  1176.852
 351  1279.77
 352  1453.915
 353  1659.684
 354  1669.929
 355  1714.103
 356  1857.646
 357  1318.821
 358  1716.376
 359  1513.822
 360  1474.814
 361  1459.846
 362  1332.007
 363  1342.394
 364  1089.621
 365  1344.388
 366  1656.766
 367  1185.084
 368  1147.115
 369  1193.337
 370  1080.672
 371  1054.297
 372  1138.758
 373  907.8267
 374  608.8211
 375  779.5583
 376  1020.838
 377  1040.229
 378  1011.872
 379  1071.136
 380  1269.976
 381  1043.493
 382  748.5594
 383  930.2585
 384  1238.363
 385  1114.298
 386  613.1649
 387  665.4963
 388  1071.619
 389  1107.827
 390  1423.707
 391  1041.483
 392  1243.463
 393  1491.325
 394  1300.332
 395  1004.036
 396  1183.289
 397  1306.456
 398  1177.883
 399  1606.68
 400  1120.472
 401  1124.917
 402  1411.197
 403  1509.316
 404  1250.526
 405  938.5731
 406  1126.931
 407  1034.647
 408  1133.03
 409  1239.183
 410  1169.667
 411  1295.781
 412  1244.275
 413  1311.34
 414  938.2629
 415  1150.131
 416  1313.948
 417  1197.05
 418  1075.379
 419  1152.114
 420  1506.835
 421  796.4144
 422  944.027
 423  1017.446
 424  1139.346
 425  734.8176
 426  798.9377
 427  984.4243
 428  1011.559
 429  862.0533
 430  518.8325
 431  914.8254
 432  1106.236
 433  655.3228
 434  1029.771
 435  969.7
 436  838.957
 437  781.4761
 438  676.1992
 439  1071.729
 440  1522.518
 441  1451.731
 442  1388.366
 443  1027.71
 444  1080.378
 445  997.1193
 446  948.1321
 447  976.5089
 448  623.0245
 449  778.315
 450  923.3298
 451  1309.892
 452  1539.392
 453  1384.427
 454  1574.544
 455  1378.832
 456  880.5299
 457  1069.694
 458  1152.312
 459  871.0035
 460  1026.651
 461  1236.15
 462  1029.217
 463  997.3377
 464  926.3806
 465  852.381
 466  1321.876
 467  973.0162
 468  1137.297
 469  1364.041
 470  1157.314
 471  872.3406
 472  791.658
 473  849.1829
 474  1296.672
 475  1154.748
 476  1159.854
 477  983.8661
 478  949.2998
 479  1169.686
 480  1060.335
 481  1203.768
 482  1275.164
 483  1652.55
 484  1423.504
 485  1282.413
 486  1084.599
 487  1258.82
 488  1309.28
 489  1420.955
 490  1604.007
 491  1111.5
 492  1375.284
 493  1266.734
 494  1439.345
 495  1425.135
 496  1604.179
 497  1653.455
 498  1464.886
 499  1766.545
 500  1746.915
 501  1489.609
 502  1385.215
 503  1239.565
 504  946.7781
 505  980.0157
 506  1212.589
 507  1436.527
 508  1054.851
 509  950.8273
 510  1145.734
 511  1116.189
