# Input file       =  1201964296.100175_cleaned.dat
# Candidate        =  PSR_0332+5434
# Telescope        =  AR
# Epoch_topo       =  58155.624017363138
# Epoch_bary       =  N/A
# T_sample         =  0.002
# Data Folded      =  7340032
# Data Avg         =  0.185612347909357
# Data StdDev      =  7.16108947696701 
# Profile Bins     =  1024
# Profile Avg      =  1330.33311763776 
# Profile StdDev   =  606.286779914762 
# Reduced chi-sqr  =  0.748
# Prob(Noise)      <  1   (~0.0 sigma)
# P_topo (ms)      =  714.577961160395  +/- 0.000586
# P'_topo (s/s)    =  -0                +/- 3.09e-10
# P''_topo (s/s^2) =  0                 +/- 1.36e-13
# P_bary (ms)      =  N/A
# P'_bary (s/s)    =  N/A
# P''_bary (s/s^2) =  N/A
# P_orb (s)        =  N/A
# asin(i)/c (s)    =  N/A
# eccentricity     =  N/A
# w (rad)          =  N/A
# T_peri           =  N/A
######################################################
   0  1077.816
   1  864.1714
   2  1072.493
   3  1038.384
   4  1225.358
   5  1273.207
   6  1530.223
   7  1487.273
   8  1248.672
   9  1218.826
  10  1175.332
  11  1284.583
  12  1363.821
  13  1219.124
  14  1022.845
  15  898.7633
  16  1158.603
  17  1213.254
  18  1204.849
  19  1276.939
  20  1417.255
  21  1521.582
  22  1730.055
  23  1681.469
  24  1811.929
  25  1484.923
  26  1680.724
  27  1620.283
  28  1394.184
  29  1194.22
  30  1039.676
  31  1144.147
  32  1154.123
  33  1406.006
  34  1705.098
  35  1612.07
  36  1298.175
  37  1420.346
  38  1707.594
  39  1744.724
  40  1496.659
  41  1333.017
  42  1056.513
  43  977.2465
  44  1010.258
  45  1224.986
  46  1378.843
  47  1328.13
  48  1510.296
  49  1446.357
  50  1439.29
  51  1520.94
  52  1648.05
  53  1829.906
  54  1694.037
  55  1680.746
  56  1638.845
  57  1652.933
  58  1602.926
  59  1649.398
  60  1570.859
  61  1661.106
  62  1665.989
  63  1645.281
  64  1610.371
  65  1436.609
  66  1662.424
  67  1749.821
  68  1558.093
  69  1522.206
  70  1463.909
  71  1578.25
  72  1522.791
  73  1301.457
  74  1308.618
  75  1410.871
  76  1461.378
  77  1694.913
  78  1671.009
  79  1797.676
  80  1716.811
  81  1592.724
  82  1546.198
  83  1475.101
  84  1416.166
  85  1457.066
  86  1470.625
  87  1311.365
  88  1396.729
  89  1473.371
  90  1581.874
  91  1591.084
  92  1631.182
  93  1614.161
  94  1566.044
  95  1456.098
  96  1236.862
  97  1120.723
  98  1319.918
  99  1399.874
 100  1431.479
 101  1392.16
 102  1448.92
 103  1607.174
 104  1758.505
 105  1617.92
 106  1563.502
 107  1637.307
 108  1770.05
 109  1657.142
 110  1531.216
 111  1457.759
 112  1563.163
 113  1374.671
 114  1228.589
 115  1268.992
 116  1417.608
 117  1424.036
 118  1330.816
 119  1414.089
 120  1429.502
 121  1463.735
 122  1409.66
 123  1353.008
 124  1221.867
 125  1169.88
 126  1508.598
 127  1471.372
 128  1299.475
 129  874.6805
 130  823.5006
 131  1094.1
 132  1146.36
 133  1087.868
 134  938.8599
 135  777.1689
 136  693.6793
 137  815.7936
 138  855.4041
 139  943.515
 140  992.4733
 141  1196.166
 142  1245.677
 143  1170.133
 144  974.3604
 145  1103.656
 146  999.9476
 147  1147.551
 148  1094.214
 149  1131.094
 150  1281.345
 151  1162.443
 152  1280.572
 153  1391.048
 154  1395.549
 155  1266.995
 156  985.7201
 157  1010.925
 158  996.3729
 159  876.031
 160  787.1724
 161  950.349
 162  1028.863
 163  1178.644
 164  1159.414
 165  1062.756
 166  1032.908
 167  890.2808
 168  1153.281
 169  1217.292
 170  1469.458
 171  1419.348
 172  1418.1
 173  1275.294
 174  1248.552
 175  1170.421
 176  1170.285
 177  1006.519
 178  854.1473
 179  953.6992
 180  1074.227
 181  1294.381
 182  1398.717
 183  1387.986
 184  1341.848
 185  1202.758
 186  1178.027
 187  1115.794
 188  994.427
 189  1073.309
 190  1145.113
 191  1400.289
 192  1469.584
 193  1619.902
 194  1696.789
 195  1895.439
 196  1825.029
 197  1583.065
 198  1435.86
 199  1515.904
 200  1571.802
 201  1414.107
 202  1437.505
 203  1424.794
 204  1461.527
 205  1497.102
 206  1587.023
 207  1476.866
 208  1402.658
 209  1455.06
 210  1509.882
 211  1554.429
 212  1582.445
 213  1693.687
 214  1530.236
 215  1449.962
 216  1284.443
 217  1463.817
 218  1437.325
 219  1380.427
 220  1444.952
 221  1640.464
 222  1712.481
 223  1687.676
 224  1803.848
 225  1829.319
 226  1860.719
 227  1760.748
 228  1638.941
 229  1369.363
 230  1246.381
 231  1337.438
 232  1533.471
 233  1613.688
 234  1670.239
 235  1507.672
 236  1315.237
 237  1187.481
 238  1399.23
 239  1493.973
 240  1388.402
 241  1528.927
 242  1476.902
 243  1244.196
 244  1119.541
 245  1260.875
 246  1235.497
 247  1052.132
 248  1231.325
 249  1419.236
 250  1342.546
 251  1242.471
 252  1586.862
 253  1555.506
 254  1432.527
 255  1348.321
 256  1311.614
 257  1052.778
 258  889.1711
 259  890.1342
 260  1322.695
 261  1382.541
 262  1615.74
 263  1613.957
 264  1436.922
 265  1394.245
 266  1448.214
 267  1546.216
 268  1556.757
 269  1498.392
 270  1582.568
 271  1473.019
 272  1281.351
 273  1106.275
 274  1158.857
 275  1133.083
 276  1177.918
 277  1585.313
 278  1833.669
 279  1903.252
 280  1573.757
 281  1616.447
 282  1705.875
 283  1775.165
 284  1674.386
 285  1642.612
 286  1344.533
 287  1200.385
 288  1118.67
 289  1293.4
 290  1505.305
 291  1411.024
 292  1331.764
 293  1276.608
 294  1213.723
 295  1179.426
 296  1090.376
 297  1056.413
 298  1227.899
 299  1193.782
 300  1299.464
 301  1148.544
 302  1089.837
 303  1186.204
 304  1146.615
 305  1068.51
 306  893.1821
 307  1055.851
 308  1289.313
 309  1435.599
 310  1343.86
 311  1263.885
 312  1163.469
 313  1150.047
 314  1345.381
 315  1371.399
 316  1324.283
 317  1343.053
 318  1326.549
 319  1445.954
 320  1308.945
 321  1169.064
 322  1200.457
 323  1402.52
 324  1768.384
 325  1720.539
 326  1547.174
 327  1549.545
 328  1456.319
 329  1194.004
 330  1068.632
 331  1208.508
 332  1432.459
 333  1438.537
 334  1420.774
 335  1503.801
 336  1415.542
 337  1521.422
 338  1534.689
 339  1594.511
 340  1702.504
 341  1541.632
 342  1709.074
 343  1592.973
 344  1660.188
 345  1393.633
 346  1554.485
 347  1502.742
 348  1843.336
 349  1768.057
 350  1709.787
 351  1390.003
 352  1584.641
 353  1862.511
 354  1920.386
 355  1638.114
 356  1615.878
 357  1758.037
 358  1776.675
 359  1574.575
 360  1522.514
 361  1614.571
 362  1723.201
 363  1704.871
 364  1659.064
 365  1484.634
 366  1393.064
 367  1334.558
 368  1467.378
 369  1555.237
 370  1493.83
 371  1337.87
 372  1171.909
 373  1341.188
 374  1259.734
 375  1229.43
 376  1347.092
 377  1688.702
 378  1549.731
 379  1225.052
 380  1036.298
 381  1069.336
 382  1247.224
 383  1298.463
 384  1413.805
 385  1208.408
 386  1399.651
 387  1474.092
 388  1406.174
 389  1306.693
 390  1332.002
 391  1390.413
 392  1150.174
 393  962.0035
 394  910.8864
 395  1031.069
 396  1120.552
 397  1342.192
 398  1438.393
 399  1179.628
 400  1178.9
 401  1229.487
 402  1460.856
 403  1323.238
 404  1161.654
 405  1310.653
 406  1270.443
 407  1193.452
 408  869.192
 409  1095.55
 410  1372.293
 411  1605.325
 412  1497.064
 413  1513.197
 414  1444.366
 415  1441.316
 416  1499.95
 417  1425.966
 418  1528.25
 419  1420.272
 420  1603.716
 421  1609.299
 422  1657.016
 423  1670.66
 424  1709.103
 425  1726.133
 426  1528.772
 427  1481.533
 428  1312.879
 429  1211.38
 430  1191.215
 431  1155.147
 432  1255.659
 433  1171.201
 434  1269.781
 435  1349.153
 436  1222.136
 437  1008.591
 438  1067.296
 439  1218.983
 440  1200.331
 441  1142.252
 442  1271.422
 443  1335.046
 444  1225.43
 445  972.5062
 446  1052.783
 447  1263.278
 448  1592.507
 449  1785.857
 450  1527.381
 451  1287.689
 452  1003.472
 453  1159.719
 454  1297.463
 455  1234.043
 456  1167.184
 457  1228.105
 458  1186.167
 459  1158.116
 460  1335.564
 461  1393.766
 462  1378.983
 463  1273.634
 464  1307.595
 465  1154.917
 466  739.0964
 467  694.1277
 468  916.7361
 469  1018.399
 470  890.5792
 471  608.2144
 472  783.9781
 473  881.2409
 474  1030.523
 475  1146.987
 476  1283.663
 477  1132.661
 478  920.0405
 479  903.5013
 480  978.6667
 481  998.8209
 482  800.0782
 483  881.7145
 484  1062.874
 485  987.4874
 486  906.1767
 487  777.4457
 488  993.2101
 489  1078.452
 490  1213.276
 491  1175.136
 492  1167.292
 493  1318.81
 494  1298.01
 495  1415.643
 496  1474.186
 497  1696.646
 498  1586.637
 499  1489.937
 500  1332.9
 501  1400.523
 502  1545.742
 503  1624.646
 504  1403.028
 505  1338.278
 506  1307.195
 507  1417.177
 508  1466.902
 509  1572.297
 510  1602.873
 511  1534.709
 512  1442.817
 513  1545.388
 514  1429.264
 515  1526.343
 516  1571.136
 517  1660.186
 518  1617.915
 519  1373.401
 520  1575.048
 521  1655.368
 522  1563.895
 523  987.5952
 524  997.5266
 525  1427.788
 526  1538.805
 527  1757.384
 528  1809.771
 529  1791.889
 530  1469.551
 531  1442.818
 532  1539.379
 533  1517.381
 534  1482.72
 535  1404.854
 536  1582.372
 537  1706.13
 538  1813.853
 539  1719.35
 540  1775.71
 541  1786.397
 542  1678.293
 543  1480.928
 544  1284.562
 545  1237.708
 546  1278.499
 547  1228.987
 548  1181.641
 549  1376.316
 550  1368.67
 551  1105.522
 552  941.4841
 553  973.5197
 554  1477.06
 555  1615.693
 556  1944.256
 557  1602.499
 558  1495.459
 559  1269.116
 560  1080.448
 561  1118.559
 562  1176.733
 563  1269.482
 564  1245.298
 565  1263.589
 566  1360.67
 567  1164.876
 568  1032.927
 569  1044.104
 570  1108.805
 571  1199.246
 572  1346.056
 573  1169.719
 574  1388.258
 575  1471.979
 576  1617.596
 577  1580.644
 578  1509.453
 579  1446.554
 580  1201.18
 581  1019.296
 582  1159.82
 583  1301.147
 584  1255.623
 585  1337.536
 586  1487.134
 587  1647.274
 588  1372.961
 589  1015.676
 590  955.757
 591  1050.114
 592  1254.967
 593  1350.508
 594  1412.504
 595  1454.497
 596  1592.454
 597  1602.43
 598  1641.216
 599  1681.164
 600  1472.577
 601  1168.55
 602  1038.582
 603  1062.013
 604  1175.4
 605  1138.656
 606  1514.532
 607  1819.829
 608  1952.303
 609  1852.733
 610  1693.096
 611  1993.861
 612  2228.039
 613  2550.686
 614  2320.378
 615  2251.435
 616  1997.935
 617  2006.8
 618  1776.282
 619  1798.124
 620  1648.554
 621  1655.177
 622  1610.967
 623  1814.104
 624  1968.571
 625  1980.828
 626  1960.323
 627  2001.997
 628  2126.417
 629  2054.465
 630  1914.089
 631  1825.993
 632  1803.254
 633  1758.627
 634  1864.531
 635  2120.796
 636  2033.401
 637  2066.422
 638  1952.142
 639  2116.419
 640  2121.946
 641  2202.925
 642  2244.475
 643  2105.264
 644  2012.999
 645  1866.921
 646  1636.846
 647  1645.765
 648  1639.877
 649  1764.4
 650  1685.678
 651  1573.982
 652  1533.505
 653  1608.628
 654  1512.024
 655  1560.254
 656  1592.269
 657  1673.054
 658  1549.475
 659  1577.606
 660  1561.351
 661  1432.977
 662  1285.218
 663  1844.487
 664  2006.928
 665  1858.516
 666  1492.27
 667  1320.852
 668  1401.724
 669  1429.12
 670  1485.005
 671  1520.444
 672  1282.374
 673  1272.819
 674  1314.865
 675  1417.114
 676  1443.15
 677  1223.609
 678  1627.65
 679  1799.203
 680  1784.461
 681  1552.252
 682  1483.585
 683  1783.892
 684  1870.723
 685  1925.776
 686  1516.542
 687  1362.549
 688  1342.15
 689  1351.068
 690  1246.16
 691  1166.922
 692  1595.194
 693  1861.222
 694  1842.873
 695  1545.481
 696  1419.385
 697  1419.855
 698  1340.935
 699  1305.217
 700  1288.759
 701  1345.878
 702  1133.833
 703  1227.339
 704  1130.683
 705  1051.373
 706  1099.737
 707  1298.092
 708  1407.517
 709  1312.798
 710  1272.75
 711  1432.668
 712  1425.3
 713  1403.161
 714  1265.982
 715  1285.753
 716  1313.154
 717  1180.515
 718  1236.653
 719  1456.077
 720  1702.922
 721  1748.095
 722  1605.516
 723  1334.812
 724  1099.045
 725  1212.814
 726  1306.795
 727  1097.871
 728  919.1096
 729  1008.179
 730  1167.309
 731  1167.768
 732  1286.941
 733  1427.485
 734  1391.426
 735  1258.106
 736  1394.495
 737  1471.036
 738  1552.192
 739  1523.802
 740  1462.978
 741  1426.787
 742  1250.719
 743  966.7009
 744  896.7207
 745  849.8949
 746  812.454
 747  733.8102
 748  793.7496
 749  1085.886
 750  1315.667
 751  1190.178
 752  965.0145
 753  682.128
 754  767.1312
 755  872.0345
 756  881.2736
 757  1126.576
 758  1027.87
 759  1128.425
 760  1229.553
 761  1206.512
 762  1078.178
 763  942.7707
 764  1010.058
 765  855.7839
 766  783.7826
 767  730.296
 768  1135.336
 769  1245.957
 770  1192.19
 771  1054.517
 772  883.8258
 773  957.4919
 774  1100.009
 775  1192.294
 776  1296.644
 777  1158.496
 778  1185.693
 779  1245.106
 780  1313.259
 781  1195.556
 782  1067.308
 783  1055.601
 784  1100.598
 785  1335.692
 786  1348.996
 787  1251.382
 788  1259.206
 789  1468.26
 790  1582.991
 791  1558.207
 792  1411.472
 793  1354.388
 794  1362.325
 795  1227.146
 796  1018.237
 797  895.2242
 798  1194.272
 799  1380.595
 800  1430.269
 801  1226.445
 802  966.5956
 803  944.7684
 804  1029.874
 805  982.3441
 806  1106.81
 807  1487.784
 808  1474.597
 809  1371.161
 810  1081.585
 811  1108.545
 812  820.6807
 813  754.0994
 814  1035.18
 815  1211.437
 816  1408.058
 817  1544.212
 818  1488.156
 819  1480.875
 820  1346.824
 821  1406.646
 822  1262.383
 823  1123.636
 824  942.3363
 825  1030.123
 826  1174.017
 827  1391.416
 828  1449.894
 829  1202.364
 830  1108.794
 831  1151.283
 832  1317.418
 833  1445.398
 834  1164.314
 835  1480.948
 836  1486.308
 837  1473.117
 838  1255.429
 839  1104.407
 840  1059.434
 841  995.2712
 842  1037.889
 843  966.8251
 844  910.1288
 845  928.3726
 846  1126.719
 847  1239.378
 848  1477.605
 849  1273.322
 850  1334.454
 851  1085.649
 852  1162.785
 853  1012.783
 854  1342.074
 855  1224.172
 856  1065.908
 857  1028.625
 858  833.3005
 859  776.48
 860  613.1188
 861  797.0894
 862  978.1229
 863  840.9913
 864  977.6677
 865  802.2024
 866  785.7137
 867  567.1259
 868  598.2911
 869  840.0101
 870  814.0726
 871  668.223
 872  481.7704
 873  620.1015
 874  657.0859
 875  906.8078
 876  836.0957
 877  784.7111
 878  652.0322
 879  805.223
 880  659.1703
 881  742.8459
 882  869.2508
 883  1027.759
 884  957.0444
 885  1018.831
 886  853.4113
 887  936.0897
 888  1094.536
 889  1283.949
 890  1395.707
 891  1274.887
 892  1348.824
 893  1307.576
 894  1098.03
 895  1005.712
 896  919.1545
 897  1060.827
 898  848.7672
 899  731.8701
 900  1058.641
 901  1203.393
 902  1297.985
 903  1035.825
 904  966.2665
 905  1081.304
 906  1221.579
 907  1145.231
 908  1165.69
 909  1125.002
 910  1307.18
 911  1352.824
 912  1325.472
 913  1204.972
 914  1181.278
 915  1195.839
 916  1139.526
 917  917.0423
 918  1034.66
 919  1213.442
 920  1303.352
 921  1352.163
 922  1484.559
 923  1395.734
 924  1262.303
 925  1257.431
 926  1428.223
 927  1613.623
 928  1471.54
 929  1344.968
 930  1191.331
 931  1269.034
 932  1310.041
 933  1205.753
 934  1299.229
 935  1290.142
 936  1400.801
 937  1310.878
 938  1190.107
 939  1160.903
 940  1285.275
 941  1416.631
 942  1349.765
 943  1238.657
 944  1128.088
 945  1265.089
 946  1486.493
 947  1377.315
 948  1454.923
 949  1405.435
 950  1636.073
 951  1558.809
 952  1409.933
 953  1182.513
 954  1293.561
 955  1562.826
 956  1530.695
 957  1494.128
 958  1602.918
 959  1616.782
 960  1335.516
 961  1245.289
 962  1358.339
 963  1479.404
 964  1600.781
 965  1674.281
 966  1511.621
 967  1330.897
 968  1134.127
 969  1388.473
 970  1478.36
 971  1557.511
 972  1347.858
 973  1363.737
 974  1371.704
 975  1223.586
 976  1026.185
 977  857.1954
 978  1005.014
 979  1233.297
 980  1359.429
 981  1287.688
 982  1190.184
 983  1204.648
 984  1166.115
 985  959.612
 986  898.7886
 987  729.2723
 988  788.4193
 989  924.7294
 990  785.6459
 991  669.0932
 992  715.7615
 993  1070.508
 994  1224.359
 995  1023.527
 996  928.89
 997  865.8033
 998  821.3211
 999  945.947
1000  1094.082
1001  1109.496
1002  1027.561
1003  849.6004
1004  1107.447
1005  1190.994
1006  1005.835
1007  964.3229
1008  1302.239
1009  1272.642
1010  1215.394
1011  1075.944
1012  1164.157
1013  1115.143
1014  1179.765
1015  1215.489
1016  1180.758
1017  934.2819
1018  1012.247
1019  1189.49
1020  1306.642
1021  1427.801
1022  1374.253
1023  1220.281
