# Input file       =  1202739893.132749_cleaned.dat
# Candidate        =  PSR_0332+5434
# Telescope        =  AR
# Epoch_topo       =  58164.600834869780
# Epoch_bary       =  N/A
# T_sample         =  0.002
# Data Folded      =  7340032
# Data Avg         =  -0.395791905713849
# Data StdDev      =  5.09468254446359 
# Profile Bins     =  1024
# Profile Avg      =  -2837.2787170107 
# Profile StdDev   =  431.336416687118 
# Reduced chi-sqr  =  0.419
# Prob(Noise)      <  1   (~0.0 sigma)
# P_topo (ms)      =  714.580109508009  +/- 0.00139
# P'_topo (s/s)    =  -0                +/- 7.34e-10
# P''_topo (s/s^2) =  0                 +/- 3.24e-13
# P_bary (ms)      =  N/A
# P'_bary (s/s)    =  N/A
# P''_bary (s/s^2) =  N/A
# P_orb (s)        =  N/A
# asin(i)/c (s)    =  N/A
# eccentricity     =  N/A
# w (rad)          =  N/A
# T_peri           =  N/A
######################################################
   0  -2656.401
   1  -2584.03
   2  -2603.371
   3  -2685.277
   4  -2702.75
   5  -2668.831
   6  -2655.517
   7  -2686.543
   8  -2681.146
   9  -2736.584
  10  -2822.253
  11  -2888.216
  12  -2934.316
  13  -2896.461
  14  -2859.1
  15  -2819.89
  16  -2800.633
  17  -2872.927
  18  -2891.578
  19  -2892.19
  20  -2886.621
  21  -2852.303
  22  -2910.485
  23  -2819.747
  24  -2829.807
  25  -2865.647
  26  -2933.048
  27  -2966.14
  28  -2895.395
  29  -2893.912
  30  -2810.707
  31  -2736.298
  32  -2714.204
  33  -2818.063
  34  -2879.919
  35  -2936.832
  36  -2879.6
  37  -2871.735
  38  -2925.538
  39  -2914.248
  40  -2808.584
  41  -2736.186
  42  -2757.789
  43  -2810.655
  44  -2854.951
  45  -2911.894
  46  -2829.242
  47  -2774.724
  48  -2662.768
  49  -2702.124
  50  -2757.15
  51  -2848.514
  52  -2861.464
  53  -2913.919
  54  -3128.593
  55  -3207.794
  56  -3210.076
  57  -3141.781
  58  -3089.493
  59  -3047.635
  60  -3095.111
  61  -3151.359
  62  -3111.786
  63  -3064.66
  64  -3028.89
  65  -2916.319
  66  -2948.176
  67  -2840.615
  68  -2913.542
  69  -2970.162
  70  -3004.738
  71  -2958.144
  72  -2939.83
  73  -3044.589
  74  -3160.52
  75  -3091.417
  76  -2976.627
  77  -2936.334
  78  -3029.821
  79  -3155.693
  80  -3101.299
  81  -2999.353
  82  -2839.878
  83  -2862.903
  84  -3001.325
  85  -3048.76
  86  -3028.992
  87  -2918.931
  88  -2921.131
  89  -2797.25
  90  -2799.194
  91  -2863.868
  92  -2999.988
  93  -3131.229
  94  -3196.393
  95  -3137.26
  96  -3017.451
  97  -2922.701
  98  -2971.646
  99  -2948.554
 100  -2865.757
 101  -2858.893
 102  -2799.58
 103  -2794.903
 104  -2693.586
 105  -2660.096
 106  -2751.748
 107  -2825.096
 108  -2943.161
 109  -2856.175
 110  -2861.138
 111  -2873.134
 112  -2902.904
 113  -2878.274
 114  -2892.331
 115  -2876.623
 116  -2943.638
 117  -2973.331
 118  -3064.756
 119  -3045.511
 120  -3062.489
 121  -2989.902
 122  -2937.95
 123  -2825.875
 124  -2790.841
 125  -2741.251
 126  -2700.682
 127  -2744.012
 128  -2853.473
 129  -2804.646
 130  -2625.826
 131  -2572.301
 132  -2634.458
 133  -2748.142
 134  -2804.303
 135  -2819.999
 136  -2754.041
 137  -2688.071
 138  -2800.107
 139  -2791.684
 140  -2831.468
 141  -2795.51
 142  -2790.433
 143  -2785.574
 144  -2768.657
 145  -2822.217
 146  -2833.694
 147  -2781.401
 148  -2741.394
 149  -2803.708
 150  -2869.03
 151  -2857.041
 152  -2830.859
 153  -2762.611
 154  -2711.117
 155  -2760.816
 156  -2916.725
 157  -2972.375
 158  -2812.553
 159  -2736.078
 160  -2875.043
 161  -2781.97
 162  -2760.709
 163  -2610.105
 164  -2669.219
 165  -2703.946
 166  -2667.241
 167  -2699.025
 168  -2669.017
 169  -2560.974
 170  -2533.401
 171  -2521.081
 172  -2674.671
 173  -2686.67
 174  -2698.111
 175  -2659.054
 176  -2777.688
 177  -2835.132
 178  -2904.195
 179  -2827.591
 180  -2683.966
 181  -2790.955
 182  -2896.643
 183  -2980.756
 184  -2813.846
 185  -2790.099
 186  -2775.578
 187  -2852.022
 188  -2872.89
 189  -2925.249
 190  -2901.033
 191  -3030.021
 192  -3088.975
 193  -3127.31
 194  -2958.561
 195  -2853.194
 196  -2739.542
 197  -2681.297
 198  -2756.056
 199  -2904.912
 200  -2951.729
 201  -2917.445
 202  -2874.054
 203  -2921.958
 204  -2813.921
 205  -2684.839
 206  -2676.824
 207  -2846.192
 208  -2923.79
 209  -2922.629
 210  -2905.075
 211  -2914.927
 212  -2916.287
 213  -2983.885
 214  -2962.417
 215  -2877.805
 216  -2901.905
 217  -3097.932
 218  -3044.723
 219  -2982.713
 220  -2892.838
 221  -3084.854
 222  -3182.847
 223  -3114.627
 224  -3008.469
 225  -2851.865
 226  -2834.599
 227  -2915.152
 228  -3004.267
 229  -3045.229
 230  -2978.354
 231  -2926.177
 232  -2856.006
 233  -2872.743
 234  -2739.256
 235  -2775.954
 236  -2849.948
 237  -3002.504
 238  -3002.032
 239  -2914.262
 240  -2944.91
 241  -3021.982
 242  -3120.113
 243  -3242.53
 244  -3323.404
 245  -3307.732
 246  -3277.025
 247  -3096.455
 248  -3070.858
 249  -2965.961
 250  -2955.116
 251  -3015.024
 252  -3036.64
 253  -3093.359
 254  -3039.892
 255  -3048.98
 256  -3050.287
 257  -2996.634
 258  -2957.414
 259  -3070.178
 260  -3141.43
 261  -3126.077
 262  -3072.256
 263  -3053.099
 264  -2995.125
 265  -2830.622
 266  -2782.017
 267  -2775.01
 268  -2794.525
 269  -2720.911
 270  -2820.892
 271  -2893.233
 272  -2891.715
 273  -2839.49
 274  -2837.268
 275  -2867.704
 276  -2800.644
 277  -2851.873
 278  -2898.21
 279  -2950.296
 280  -2974.548
 281  -2926.58
 282  -2812.335
 283  -2678.465
 284  -2809.132
 285  -2908.737
 286  -2950.81
 287  -2902.394
 288  -3009.256
 289  -2988.638
 290  -3013.984
 291  -2956.013
 292  -2979.816
 293  -2890.133
 294  -2942.247
 295  -2987.15
 296  -2953.297
 297  -2937.585
 298  -3058.579
 299  -3118.456
 300  -3063.777
 301  -3036.799
 302  -3047.738
 303  -2992.905
 304  -2754.801
 305  -2805.784
 306  -2897.385
 307  -2941.377
 308  -2867.288
 309  -2858.425
 310  -2827.391
 311  -2882.737
 312  -2919.211
 313  -3035.462
 314  -2928.599
 315  -2854.924
 316  -2808.102
 317  -2922.073
 318  -2926.526
 319  -2900.878
 320  -2827.135
 321  -2828.962
 322  -2841.265
 323  -2883.406
 324  -2822.961
 325  -2878.908
 326  -2808.09
 327  -2923.824
 328  -2942.117
 329  -2941.361
 330  -2785.452
 331  -2789.335
 332  -2888.343
 333  -2971.219
 334  -2940.135
 335  -2836.983
 336  -2837.117
 337  -2808.565
 338  -2871.036
 339  -2859.115
 340  -2849.674
 341  -2874.058
 342  -2872.701
 343  -2974.589
 344  -2947.802
 345  -2840.154
 346  -2869.421
 347  -2954.149
 348  -3006.311
 349  -2960.205
 350  -2942.72
 351  -2932.604
 352  -2891.542
 353  -2872.32
 354  -2865.45
 355  -2892.813
 356  -2943.701
 357  -2955.521
 358  -2930.095
 359  -2909.947
 360  -2854.199
 361  -2869.519
 362  -2816.618
 363  -2803.229
 364  -2796.763
 365  -2865.898
 366  -2884.908
 367  -2792.7
 368  -2811.811
 369  -2890.885
 370  -2975.229
 371  -2969.952
 372  -2879.844
 373  -2864.832
 374  -2817.827
 375  -2807.067
 376  -2874.021
 377  -2872.557
 378  -2841.804
 379  -2738.312
 380  -2876.307
 381  -2987.804
 382  -3004.675
 383  -2974.011
 384  -2973.04
 385  -3054.702
 386  -3106.135
 387  -3063.67
 388  -2966.447
 389  -2917.406
 390  -2879.645
 391  -2806.231
 392  -2825.334
 393  -2862.441
 394  -2902.879
 395  -2959.521
 396  -3026.439
 397  -3095.415
 398  -2961.084
 399  -3061.59
 400  -3069.636
 401  -3079.059
 402  -2906.906
 403  -2877.369
 404  -2992.552
 405  -3045.327
 406  -3013.825
 407  -2980.446
 408  -3073.791
 409  -3031.986
 410  -2986.683
 411  -2856.963
 412  -2876.242
 413  -2885.911
 414  -2964.766
 415  -2989.803
 416  -2955.789
 417  -2913.089
 418  -2958.773
 419  -2915.38
 420  -2817.519
 421  -2699.691
 422  -2709.223
 423  -2766.692
 424  -2750.317
 425  -2776.131
 426  -2790.579
 427  -2807.053
 428  -2871.096
 429  -2955.077
 430  -2939.677
 431  -2895.003
 432  -2832.633
 433  -2959.672
 434  -2963.348
 435  -2978.452
 436  -2962.288
 437  -2974.71
 438  -2942.057
 439  -2878.612
 440  -2860.771
 441  -2895.627
 442  -2904.092
 443  -2918.313
 444  -2954.135
 445  -3055.059
 446  -2993.848
 447  -2989.161
 448  -2879.515
 449  -2860.436
 450  -2850.534
 451  -2836.172
 452  -2833.571
 453  -2855.816
 454  -3013.741
 455  -3000.316
 456  -2949.341
 457  -2883.688
 458  -2848.881
 459  -2739.19
 460  -2767.58
 461  -2904.158
 462  -2970.071
 463  -3011.841
 464  -2998.223
 465  -2954.039
 466  -2885.345
 467  -2883.562
 468  -2802.138
 469  -2765.32
 470  -2799.575
 471  -2762.391
 472  -2734.741
 473  -2688.787
 474  -2721.797
 475  -2769.998
 476  -2866.17
 477  -2852.736
 478  -2890.62
 479  -2910.609
 480  -2888.12
 481  -2762.684
 482  -2726.153
 483  -2838.219
 484  -2793.322
 485  -2671.748
 486  -2558.249
 487  -2687.221
 488  -2665.698
 489  -2676.739
 490  -2512.648
 491  -2506.963
 492  -2508.791
 493  -2554.067
 494  -2515.796
 495  -2488.14
 496  -2610.597
 497  -2653.289
 498  -2671.467
 499  -2633.654
 500  -2682.707
 501  -2624.792
 502  -2518.031
 503  -2409.787
 504  -2435.988
 505  -2497.063
 506  -2497.217
 507  -2496.841
 508  -2424.686
 509  -2462.757
 510  -2477.568
 511  -2567.519
 512  -2569.299
 513  -2655.557
 514  -2678.069
 515  -2630.735
 516  -2494.299
 517  -2553.389
 518  -2584.614
 519  -2660.194
 520  -2665.767
 521  -2685.984
 522  -2666.789
 523  -2610.371
 524  -2589.005
 525  -2686.097
 526  -2651.865
 527  -2696.786
 528  -2702.676
 529  -2797.341
 530  -2713.621
 531  -2680.936
 532  -2568.624
 533  -2563.565
 534  -2637.415
 535  -2750.047
 536  -2719.104
 537  -2742.842
 538  -2713.424
 539  -2771.005
 540  -2809.052
 541  -2866.825
 542  -2838.302
 543  -2746.135
 544  -2727.297
 545  -2737.22
 546  -2671.164
 547  -2700.44
 548  -2676.549
 549  -2745.878
 550  -2728.475
 551  -2630.423
 552  -2650.305
 553  -2716.622
 554  -2802.244
 555  -2792.44
 556  -2835.628
 557  -2788.885
 558  -2834.582
 559  -2783.031
 560  -2829.718
 561  -2772.305
 562  -2831.315
 563  -2844.977
 564  -2838.898
 565  -2723.542
 566  -2677.711
 567  -2636.592
 568  -2784.165
 569  -2837.742
 570  -2869.908
 571  -2935.049
 572  -3113.843
 573  -3076.727
 574  -3031.044
 575  -2977.427
 576  -2990.627
 577  -2939.957
 578  -2949.187
 579  -2974.303
 580  -3020.959
 581  -2934.683
 582  -2967.777
 583  -2961.196
 584  -2883.234
 585  -2896.539
 586  -3007.072
 587  -3010.619
 588  -2942.242
 589  -2841.705
 590  -2963.168
 591  -2972.234
 592  -2951.431
 593  -2929.304
 594  -2892.017
 595  -2893.895
 596  -2923.87
 597  -2988.094
 598  -2946.709
 599  -2929.684
 600  -2955.292
 601  -2987.633
 602  -2870.367
 603  -2763.903
 604  -2846.661
 605  -2807.589
 606  -2651.175
 607  -2500.184
 608  -2382.632
 609  -2298.614
 610  -2087.334
 611  -2178.357
 612  -2141.024
 613  -2221.305
 614  -2212.892
 615  -2226.521
 616  -2281.736
 617  -2333.842
 618  -2643.925
 619  -2850.788
 620  -2970.979
 621  -3052.165
 622  -3083.769
 623  -3169.14
 624  -3130.368
 625  -3112.867
 626  -2941.129
 627  -3001.003
 628  -3001.995
 629  -3099.098
 630  -3098.786
 631  -3087.98
 632  -3017.535
 633  -2980.186
 634  -2912.82
 635  -2927.527
 636  -2812.539
 637  -2818.422
 638  -2789.515
 639  -2762.587
 640  -2737.051
 641  -2795.304
 642  -2923.926
 643  -3045.092
 644  -2972.308
 645  -2909.22
 646  -2880.291
 647  -2873.525
 648  -2844.334
 649  -2728.515
 650  -2741.542
 651  -2732.243
 652  -2776.357
 653  -2838.393
 654  -2843.938
 655  -2838.433
 656  -2836.431
 657  -2850.568
 658  -2819.233
 659  -2762.809
 660  -2755.115
 661  -2841.351
 662  -2960.235
 663  -3109.663
 664  -3145.705
 665  -3169.801
 666  -3039.927
 667  -3034.821
 668  -2984.969
 669  -3015.574
 670  -2892.837
 671  -2896.506
 672  -2876.5
 673  -2942.175
 674  -2941.031
 675  -2842.442
 676  -2849.366
 677  -2904.016
 678  -3122.09
 679  -3113.258
 680  -3054.35
 681  -3022.488
 682  -2973.176
 683  -2912.241
 684  -2849.14
 685  -2820.046
 686  -2912.325
 687  -2929.037
 688  -2999.234
 689  -3025.465
 690  -2987.529
 691  -2892.874
 692  -2867.578
 693  -2838.851
 694  -2889.956
 695  -2979.653
 696  -2965.72
 697  -2800.041
 698  -2706.581
 699  -2762.98
 700  -2879.267
 701  -2919.345
 702  -2916.93
 703  -2947.499
 704  -2954.427
 705  -3015.764
 706  -3081.429
 707  -3136.741
 708  -3102.35
 709  -3014.433
 710  -2949.653
 711  -2966.184
 712  -2942.954
 713  -2956.917
 714  -2889.868
 715  -2831.788
 716  -2815.127
 717  -2832.341
 718  -2906.379
 719  -3035.032
 720  -3018.301
 721  -2890.855
 722  -2863.854
 723  -2811.412
 724  -2896.418
 725  -2854.938
 726  -2903.314
 727  -2810.893
 728  -2787.475
 729  -2702.381
 730  -2620.061
 731  -2575.035
 732  -2650.238
 733  -2720.89
 734  -2746.163
 735  -2758.419
 736  -2774.173
 737  -2817.203
 738  -2824.719
 739  -2817.817
 740  -2829.233
 741  -2893.632
 742  -2888.635
 743  -2792.661
 744  -2778.253
 745  -2734.425
 746  -2735.286
 747  -2720.943
 748  -2733.745
 749  -2792.033
 750  -2848.703
 751  -2822.166
 752  -2859.952
 753  -2777.59
 754  -2776.6
 755  -2654.215
 756  -2712.613
 757  -2811.229
 758  -2775.75
 759  -2803.182
 760  -2785.285
 761  -2886.196
 762  -2786.714
 763  -2611.181
 764  -2537.81
 765  -2612.599
 766  -2788.917
 767  -2950.021
 768  -3016.078
 769  -3011.038
 770  -2828.932
 771  -2714.417
 772  -2602.15
 773  -2536.164
 774  -2654.211
 775  -2777.291
 776  -2868.18
 777  -2872.947
 778  -2900.685
 779  -2844.715
 780  -2832.986
 781  -2743.942
 782  -2758.602
 783  -2757.637
 784  -2686.356
 785  -2599.652
 786  -2526.945
 787  -2536.633
 788  -2478.367
 789  -2485.811
 790  -2482.321
 791  -2603.129
 792  -2608.174
 793  -2679.033
 794  -2744.148
 795  -2746.232
 796  -2707.61
 797  -2704.727
 798  -2708.816
 799  -2622.242
 800  -2663.398
 801  -2686.76
 802  -2757.359
 803  -2739.216
 804  -2810.244
 805  -2906.242
 806  -2916.505
 807  -2890.432
 808  -2824.829
 809  -2791.523
 810  -2880.863
 811  -2913.411
 812  -2853.08
 813  -2782.051
 814  -2667.612
 815  -2520.032
 816  -2501.874
 817  -2610.416
 818  -2769.557
 819  -2856.331
 820  -2850.197
 821  -2791.954
 822  -2752.167
 823  -2737.145
 824  -2747.01
 825  -2732.182
 826  -2661.099
 827  -2577.18
 828  -2568.109
 829  -2511.5
 830  -2471.051
 831  -2496.325
 832  -2645.641
 833  -2754.721
 834  -2788.129
 835  -2714.934
 836  -2709.889
 837  -2614.559
 838  -2725.594
 839  -2749.761
 840  -2758.405
 841  -2711.966
 842  -2675.62
 843  -2777.911
 844  -2753.033
 845  -2747.316
 846  -2606.569
 847  -2683.743
 848  -2725.615
 849  -2691.135
 850  -2642.004
 851  -2697.801
 852  -2741.059
 853  -2682.566
 854  -2653.375
 855  -2664.378
 856  -2763.295
 857  -2791.825
 858  -2736.233
 859  -2640.456
 860  -2504.161
 861  -2497.02
 862  -2610.363
 863  -2731.977
 864  -2766.885
 865  -2794.169
 866  -2810.564
 867  -2805.525
 868  -2774.051
 869  -2825.71
 870  -2793.478
 871  -2858.762
 872  -2945.747
 873  -2897.547
 874  -2843.794
 875  -2732.732
 876  -2746.533
 877  -2822.229
 878  -2818.871
 879  -2930.108
 880  -2880.18
 881  -2977.609
 882  -2936.41
 883  -2895.919
 884  -2895.249
 885  -2916.515
 886  -3015.438
 887  -3027.5
 888  -2920.497
 889  -2853.688
 890  -2740.259
 891  -2725.296
 892  -2838.752
 893  -2954.025
 894  -2992.897
 895  -2946.529
 896  -2947.868
 897  -2950.226
 898  -2905.072
 899  -2910.489
 900  -2933.322
 901  -2911.752
 902  -2804.631
 903  -2741.853
 904  -2727.062
 905  -2726.225
 906  -2698.363
 907  -2724.266
 908  -2786.838
 909  -2850.525
 910  -2789.338
 911  -2728.627
 912  -2837.646
 913  -2867.911
 914  -2826.922
 915  -2724.532
 916  -2765.735
 917  -2830.573
 918  -2843.649
 919  -2889.073
 920  -2832.296
 921  -2883.104
 922  -2914.063
 923  -2964.619
 924  -2878.868
 925  -2707.337
 926  -2667.882
 927  -2772.625
 928  -2819.232
 929  -2849.951
 930  -2891.875
 931  -2880.12
 932  -2908.28
 933  -2894.55
 934  -3036.939
 935  -2958.927
 936  -2805.639
 937  -2771.373
 938  -2787.753
 939  -2818.746
 940  -2734.8
 941  -2790.812
 942  -2853.848
 943  -2854.948
 944  -2938.897
 945  -2929.596
 946  -2863.784
 947  -2792.781
 948  -2687.849
 949  -2664.654
 950  -2626.943
 951  -2744.269
 952  -2846.658
 953  -2883.812
 954  -2757.486
 955  -2733.908
 956  -2578.506
 957  -2597.582
 958  -2555.393
 959  -2685.496
 960  -2699.115
 961  -2695.22
 962  -2663.148
 963  -2727.956
 964  -2840.95
 965  -2888.842
 966  -2812.378
 967  -2776.471
 968  -2783.404
 969  -2894.402
 970  -2996.488
 971  -2858.268
 972  -2769.475
 973  -2633.264
 974  -2578.752
 975  -2552.534
 976  -2563.987
 977  -2721.711
 978  -2660.055
 979  -2638.055
 980  -2639.809
 981  -2805.662
 982  -2790.395
 983  -2796.728
 984  -2733.999
 985  -2752.057
 986  -2708.42
 987  -2670.621
 988  -2756.405
 989  -2757.361
 990  -2683.414
 991  -2679.549
 992  -2798.776
 993  -2824.372
 994  -2829.932
 995  -2865.154
 996  -2882.551
 997  -2844.196
 998  -2823.619
 999  -2815.816
1000  -2797.73
1001  -2762.715
1002  -2869.719
1003  -2940.921
1004  -3003.713
1005  -2997.969
1006  -2974.418
1007  -2989.568
1008  -2967.666
1009  -2951.894
1010  -3027.832
1011  -3000.898
1012  -2893.278
1013  -2869.112
1014  -2798.588
1015  -2802.044
1016  -2745.641
1017  -2823.691
1018  -2769.057
1019  -2664.295
1020  -2737.994
1021  -2800.325
1022  -2883.334
1023  -2806.96
