# Input file       =  1202294239.113467_cleaned.dat
# Candidate        =  PSR_0332+5434
# Telescope        =  AR
# Epoch_topo       =  58159.442802239202
# Epoch_bary       =  N/A
# T_sample         =  0.002
# Data Folded      =  7143424
# Data Avg         =  0.144242390149717
# Data StdDev      =  4.6263453245231  
# Profile Bins     =  1024
# Profile Avg      =  1006.23388440878 
# Profile StdDev   =  386.403705632692 
# Reduced chi-sqr  =  2.897
# Prob(Noise)      <  6.13e-188   (~29.2 sigma)
# P_topo (ms)      =  714.579036465884  +/- 1.34e-05
# P'_topo (s/s)    =  -0                +/- 7.27e-12
# P''_topo (s/s^2) =  0                 +/- 3.3e-15
# P_bary (ms)      =  N/A
# P'_bary (s/s)    =  N/A
# P''_bary (s/s^2) =  N/A
# P_orb (s)        =  N/A
# asin(i)/c (s)    =  N/A
# eccentricity     =  N/A
# w (rad)          =  N/A
# T_peri           =  N/A
######################################################
   0  705.9268
   1  797.4489
   2  1017.671
   3  1208.67
   4  1411.565
   5  1536.062
   6  1565.506
   7  1571.296
   8  1492.405
   9  1352.982
  10  1114.8
  11  946.1257
  12  877.6888
  13  871.0226
  14  830.1797
  15  718.5812
  16  593.6766
  17  563.5847
  18  640.1605
  19  829.381
  20  973.024
  21  1249.934
  22  1575.95
  23  1624.554
  24  1543.349
  25  1147.061
  26  868.8931
  27  727.1299
  28  730.4066
  29  741.9974
  30  767.2558
  31  746.1037
  32  709.9708
  33  605.3956
  34  681.6405
  35  757.9058
  36  1028.63
  37  1435.092
  38  1771.732
  39  1822.484
  40  1757.456
  41  1612.686
  42  1383.703
  43  1088.408
  44  864.0803
  45  739.3014
  46  726.543
  47  789.1252
  48  683.9348
  49  611.0989
  50  586.3254
  51  686.4559
  52  923.5745
  53  1110.744
  54  1401.235
  55  1531.864
  56  1539.197
  57  1314.275
  58  971.8676
  59  847.6447
  60  779.2614
  61  664.2468
  62  537.4431
  63  427.6115
  64  585.9982
  65  644.4633
  66  571.731
  67  677.3017
  68  778.2154
  69  1092.297
  70  1213.89
  71  1513.238
  72  1694.029
  73  1651.637
  74  1549.94
  75  1337.841
  76  1143.553
  77  969.3538
  78  910.2217
  79  957.5464
  80  1037.66
  81  923.738
  82  682.2717
  83  535.2606
  84  655.6854
  85  821.5797
  86  948.0278
  87  1115.991
  88  1276.424
  89  1291.68
  90  1109.576
  91  1053.514
  92  940.2899
  93  856.1725
  94  684.1238
  95  673.2377
  96  739.2266
  97  665.238
  98  570.1993
  99  511.1388
 100  561.8961
 101  767.7883
 102  1035.553
 103  1344.354
 104  1574.036
 105  1679.122
 106  1742.367
 107  1454.114
 108  1189.003
 109  886.9554
 110  753.6984
 111  669.3016
 112  659.1042
 113  830.1505
 114  1019.309
 115  1000.9
 116  957.09
 117  785.0681
 118  852.133
 119  945.2592
 120  1149.745
 121  1398.93
 122  1387.541
 123  1300.05
 124  934.049
 125  671.3737
 126  603.157
 127  606.0696
 128  614.4888
 129  552.3243
 130  675.3516
 131  777.2149
 132  757.5483
 133  803.6188
 134  942.6163
 135  1288.854
 136  1558.581
 137  1729.672
 138  1682.149
 139  1530.978
 140  1426.609
 141  1295.62
 142  1136.769
 143  931.7772
 144  867.6232
 145  926.7407
 146  1032.162
 147  990.3615
 148  787.921
 149  628.9387
 150  582.7838
 151  727.9976
 152  824.3915
 153  1020.197
 154  1078.742
 155  1087.172
 156  1078.664
 157  971.6141
 158  979.0934
 159  884.2847
 160  820.7186
 161  657.655
 162  592.9943
 163  668.1412
 164  672.7069
 165  707.2219
 166  902.995
 167  1172.304
 168  1221.225
 169  1310.449
 170  1576.07
 171  1729.768
 172  1633.693
 173  1456.141
 174  1377.536
 175  1193.391
 176  892.9352
 177  729.0015
 178  559.0211
 179  666.037
 180  720.9163
 181  791.9852
 182  669.0623
 183  606.0975
 184  692.6711
 185  983.7856
 186  1185.498
 187  1294.943
 188  1313.196
 189  1269.419
 190  1115.74
 191  833.3164
 192  643.0183
 193  509.5825
 194  553.7531
 195  525.0958
 196  409.1757
 197  385.6683
 198  542.179
 199  696.5115
 200  864.054
 201  1089.803
 202  1330.026
 203  1596.639
 204  1807.385
 205  1926.726
 206  1784.506
 207  1505.255
 208  1314.215
 209  1044.233
 210  903.0078
 211  638.96
 212  532.8802
 213  459.0835
 214  466.5524
 215  394.985
 216  377.614
 217  572.9096
 218  847.3815
 219  1175.499
 220  1452.717
 221  1589.756
 222  1610.87
 223  1318.346
 224  1031.836
 225  734.1022
 226  688.12
 227  681.4508
 228  648.0919
 229  641.2124
 230  595.0333
 231  642.8175
 232  682.1749
 233  832.2756
 234  1051.873
 235  1249.624
 236  1494.072
 237  1562.177
 238  1618.931
 239  1560.196
 240  1338.479
 241  1046.18
 242  640.9389
 243  574.8705
 244  794.1195
 245  1068.503
 246  1089.54
 247  896.4117
 248  808.2418
 249  804.9919
 250  846.5024
 251  1022.248
 252  1085.171
 253  1237.634
 254  1279.722
 255  1235.135
 256  1058.178
 257  884.4799
 258  777.5776
 259  710.3337
 260  642.1267
 261  628.036
 262  515.7961
 263  500.1428
 264  605.4169
 265  693.1927
 266  820.8987
 267  910.5306
 268  1306.697
 269  1655.178
 270  1763.159
 271  1722.561
 272  1515.733
 273  1383.547
 274  1079.3
 275  870.2112
 276  786.5428
 277  669.3599
 278  846.3991
 279  824.6906
 280  696.4927
 281  514.3454
 282  497.8344
 283  633.0104
 284  793.26
 285  984.8531
 286  1295.148
 287  1384.766
 288  1432.866
 289  1188.208
 290  969.9406
 291  771.6303
 292  631.9913
 293  700.9294
 294  592.3068
 295  515.6803
 296  465.4703
 297  580.6362
 298  673.2675
 299  775.9558
 300  920.5676
 301  1057.923
 302  1272.116
 303  1533.846
 304  1697.417
 305  1485.998
 306  1134.198
 307  876.4335
 308  748.8693
 309  745.9148
 310  775.6228
 311  742.9411
 312  804.0391
 313  841.4608
 314  812.6655
 315  764.5016
 316  807.1799
 317  915.6025
 318  1215.896
 319  1390.937
 320  1528.45
 321  1312.771
 322  1180.697
 323  915.3528
 324  766.4083
 325  638.5169
 326  583.7931
 327  629.2398
 328  686.9337
 329  641.5696
 330  666.1273
 331  709.3106
 332  889.1201
 333  1047.249
 334  1232.101
 335  1346.443
 336  1515.913
 337  1679.089
 338  1677.293
 339  1458.387
 340  1206.938
 341  1002.568
 342  806.3515
 343  712.2155
 344  571.618
 345  529.1211
 346  530.0853
 347  680.3902
 348  746.117
 349  849.4785
 350  922.244
 351  1137.927
 352  1297.964
 353  1396.536
 354  1352.558
 355  1144.725
 356  899.3464
 357  755.5297
 358  558.5941
 359  521.3846
 360  467.512
 361  432.845
 362  358.3872
 363  441.785
 364  544.7346
 365  750.7721
 366  1017.899
 367  1286.923
 368  1458.195
 369  1559.03
 370  1553.038
 371  1518.938
 372  1286.99
 373  1011.227
 374  825.951
 375  798.0897
 376  728.002
 377  778.1719
 378  795.9309
 379  784.8306
 380  685.9167
 381  726.0535
 382  884.1335
 383  1025.724
 384  1201.171
 385  1277.238
 386  1303.307
 387  1212.502
 388  1047.656
 389  900.1123
 390  769.6458
 391  780.4169
 392  766.9642
 393  592.8207
 394  549.5929
 395  490.8396
 396  709.7144
 397  744.0992
 398  846.1357
 399  1081.042
 400  1334.024
 401  1733.429
 402  1823.924
 403  1805.856
 404  1644.117
 405  1391.005
 406  1163.845
 407  839.0333
 408  735.1245
 409  662.9037
 410  546.481
 411  752.5489
 412  834.3974
 413  887.0797
 414  744.004
 415  686.6696
 416  819.077
 417  889.7733
 418  1049.818
 419  1082.298
 420  1085.466
 421  1082.81
 422  942.3271
 423  777.2916
 424  623.5768
 425  629.6768
 426  773.79
 427  649.9157
 428  629.9032
 429  616.1306
 430  731.4835
 431  822.6039
 432  1013.205
 433  1252.713
 434  1417.802
 435  1564.158
 436  1671.782
 437  1535.37
 438  1348.53
 439  1255.306
 440  1191.007
 441  1047.714
 442  959.588
 443  931.4382
 444  920.2567
 445  865.5439
 446  747.9745
 447  564.8262
 448  631.9279
 449  884.9193
 450  1088.61
 451  1229.057
 452  1356.218
 453  1326.394
 454  1180.884
 455  939.1223
 456  788.5405
 457  657.2762
 458  699.6208
 459  737.7379
 460  822.3654
 461  859.8823
 462  800.1305
 463  830.7385
 464  885.2548
 465  1104.765
 466  1187.632
 467  1484.323
 468  1653.851
 469  1797.205
 470  1715.345
 471  1539.89
 472  1227.966
 473  961.5529
 474  923.8848
 475  995.0366
 476  942.34
 477  896.9765
 478  935.731
 479  869.2936
 480  861.6837
 481  791.8573
 482  1090.907
 483  1209.098
 484  1360.378
 485  1364.004
 486  1326.948
 487  1143.546
 488  857.951
 489  648.2568
 490  532.3762
 491  523.1141
 492  529.1082
 493  641.6378
 494  593.9916
 495  679.9803
 496  713.9355
 497  980.8934
 498  1149.383
 499  1348.027
 500  1567.23
 501  1621.679
 502  1802.01
 503  1676.2
 504  1474.096
 505  1083.335
 506  955.725
 507  890.9611
 508  866.2442
 509  788.2405
 510  822.1848
 511  817.8968
 512  794.2669
 513  679.7129
 514  662.1271
 515  823.1515
 516  1151.943
 517  1480.389
 518  1658.606
 519  1537.123
 520  1324.794
 521  1017.166
 522  907.7961
 523  686.9437
 524  563.17
 525  461.8271
 526  440.1585
 527  521.8229
 528  590.9818
 529  778.9729
 530  807.6102
 531  979.8748
 532  1255.976
 533  1509.842
 534  1656.072
 535  1594.651
 536  1515.112
 537  1260.912
 538  1060.075
 539  866.7554
 540  633.23
 541  648.5708
 542  781.6599
 543  899.9101
 544  900.9684
 545  811.8885
 546  842.6863
 547  831.8137
 548  938.368
 549  1175.786
 550  1307.962
 551  1450.132
 552  1403.886
 553  1208.038
 554  991.3041
 555  654.5343
 556  577.2751
 557  479.2165
 558  467.1693
 559  450.9039
 560  382.9414
 561  564.4133
 562  790.6953
 563  1000.474
 564  1101.589
 565  1257.639
 566  1509.261
 567  1742.495
 568  1727.846
 569  1731.455
 570  1481.171
 571  1293.914
 572  1164.686
 573  996.6141
 574  965.622
 575  849.7372
 576  961.0222
 577  787.2996
 578  673.7886
 579  695.2156
 580  771.6639
 581  973.733
 582  1231.234
 583  1533.995
 584  1662.01
 585  1422.716
 586  1270.022
 587  1099.313
 588  942.6105
 589  778.3906
 590  688.5126
 591  690.7432
 592  558.3171
 593  495.8881
 594  611.4994
 595  798.54
 596  783.4416
 597  769.2266
 598  959.258
 599  1332.32
 600  1613.798
 601  1622.757
 602  1570.41
 603  1587.554
 604  1564.198
 605  1421.233
 606  1192.235
 607  1175.96
 608  1380.533
 609  1591.349
 610  1599.6
 611  1540.765
 612  1449.684
 613  1519.065
 614  1573.98
 615  1874.692
 616  1921.968
 617  1933.061
 618  1648.251
 619  1503.982
 620  1223.595
 621  995.0448
 622  824.6959
 623  800.7864
 624  730.1873
 625  701.6013
 626  778.9855
 627  815.4789
 628  847.055
 629  955.8174
 630  1243.124
 631  1396.99
 632  1517.278
 633  1692.903
 634  1799.398
 635  1748.961
 636  1526.266
 637  1282.049
 638  964.6795
 639  781.422
 640  763.0034
 641  908.6656
 642  812.1926
 643  686.8581
 644  622.8719
 645  661.0178
 646  700.5675
 647  733.0635
 648  1024.707
 649  1273.977
 650  1488.536
 651  1351.543
 652  1122.223
 653  862.0874
 654  776.5956
 655  710.0549
 656  605.0833
 657  628.5939
 658  605.8026
 659  585.5991
 660  460.8023
 661  396.8123
 662  664.5203
 663  891.4857
 664  1234.814
 665  1440.964
 666  1619.576
 667  1717.489
 668  1513.969
 669  1388.649
 670  1094.996
 671  969.7007
 672  910.9799
 673  896.3108
 674  1041.537
 675  980.7815
 676  1019.771
 677  929.3513
 678  927.0969
 679  899.22
 680  953.3025
 681  1031.398
 682  1338.445
 683  1431.475
 684  1398.225
 685  971.025
 686  681.1083
 687  647.0283
 688  637.8594
 689  633.1919
 690  522.9574
 691  532.9729
 692  539.7893
 693  439.5765
 694  594.4462
 695  775.6793
 696  990.1341
 697  1129.457
 698  1343.298
 699  1666.999
 700  1655.358
 701  1545.348
 702  1405.228
 703  1048.506
 704  781.6201
 705  525.5315
 706  546.4487
 707  561.1259
 708  566.9399
 709  778.8668
 710  736.5006
 711  690.3911
 712  744.5389
 713  893.9978
 714  1334.845
 715  1517.025
 716  1661.503
 717  1549.54
 718  1249.072
 719  1012.085
 720  675.7393
 721  599.1803
 722  551.1707
 723  600.7018
 724  483.3963
 725  359.0905
 726  402.7217
 727  577.3737
 728  653.3474
 729  846.0283
 730  1062.933
 731  1449.976
 732  1648.54
 733  1683.294
 734  1473.059
 735  1289.92
 736  1182.337
 737  1126.128
 738  859.8253
 739  775.0474
 740  721.9789
 741  788.6297
 742  742.0117
 743  713.7013
 744  646.1047
 745  729.2901
 746  916.9728
 747  1162.025
 748  1237.134
 749  1225.903
 750  1213.689
 751  1088.732
 752  1016.489
 753  727.0819
 754  598.323
 755  479.7841
 756  517.2649
 757  572.1761
 758  582.2148
 759  720.3872
 760  686.5941
 761  829.7557
 762  955.7612
 763  1267.259
 764  1489.222
 765  1667.751
 766  1734.933
 767  1589.22
 768  1406.269
 769  1060.563
 770  947.2316
 771  754.0985
 772  729.2179
 773  844.3713
 774  972.013
 775  963.0173
 776  862.9067
 777  909.8492
 778  1047.727
 779  1088.523
 780  1229.465
 781  1405.91
 782  1591.859
 783  1571.835
 784  1365.021
 785  1052.373
 786  763.9752
 787  649.4557
 788  643.3597
 789  663.9822
 790  700.4431
 791  704.5014
 792  711.5663
 793  720.7632
 794  742.4686
 795  870.9104
 796  1058.618
 797  1440.386
 798  1563.159
 799  1770.158
 800  1652.486
 801  1544.786
 802  1132.467
 803  886.8305
 804  741.3898
 805  846.8464
 806  818.3159
 807  905.5899
 808  833.3906
 809  886.3331
 810  854.2838
 811  763.215
 812  785.9471
 813  882.5091
 814  1184.812
 815  1372.948
 816  1459.254
 817  1332.24
 818  1152.552
 819  912.5277
 820  788.1566
 821  571.041
 822  631.1302
 823  617.8852
 824  742.6974
 825  771.1337
 826  817.5464
 827  840.784
 828  938.4202
 829  1261.427
 830  1610.272
 831  1687.303
 832  1672.212
 833  1478.521
 834  1330.263
 835  1080.155
 836  874.5237
 837  766.8299
 838  584.4581
 839  667.1837
 840  783.1766
 841  949.4218
 842  912.4664
 843  747.5356
 844  833.7949
 845  1013.599
 846  1250.49
 847  1408.168
 848  1486.107
 849  1414.866
 850  1186.375
 851  834.9787
 852  592.6475
 853  445.2838
 854  443.3116
 855  339.1313
 856  317.8298
 857  561.677
 858  641.7393
 859  777.6813
 860  756.6915
 861  1027.832
 862  1256.206
 863  1364.737
 864  1511.538
 865  1682.252
 866  1806.558
 867  1660.296
 868  1362.866
 869  1044.464
 870  937.7495
 871  772.83
 872  865.7903
 873  840.8159
 874  892.6074
 875  747.272
 876  622.1334
 877  642.5724
 878  810.6566
 879  941.8264
 880  1244.713
 881  1497.918
 882  1797.991
 883  1663.552
 884  1451.105
 885  1058.924
 886  879.7335
 887  852.1029
 888  959.7953
 889  912.1182
 890  739.1985
 891  634.2682
 892  676.2579
 893  906.7141
 894  1085.67
 895  1342.008
 896  1569.535
 897  1802.317
 898  1826.947
 899  1709.687
 900  1540.551
 901  1292.409
 902  1007.882
 903  882.7892
 904  853.5098
 905  867.4636
 906  823.6957
 907  795.0867
 908  691.9655
 909  619.4828
 910  611.1204
 911  868.9753
 912  1020.191
 913  1275.67
 914  1358.276
 915  1447.142
 916  1370.172
 917  1086.429
 918  873.0776
 919  589.0204
 920  611.8553
 921  637.4236
 922  721.4937
 923  676.0668
 924  545.9896
 925  571.0607
 926  715.4957
 927  965.7049
 928  1120.659
 929  1344.321
 930  1680.27
 931  1952.208
 932  1839.596
 933  1712.872
 934  1414.227
 935  1227.161
 936  921.8497
 937  815.2573
 938  857.0087
 939  741.4334
 940  770.1207
 941  675.7026
 942  716.7783
 943  699.7794
 944  829.2781
 945  1062.523
 946  1328.747
 947  1518.017
 948  1594.046
 949  1460.771
 950  1252.528
 951  974.1539
 952  862.8151
 953  799.8522
 954  704.6075
 955  672.5332
 956  642.5942
 957  686.8015
 958  751.331
 959  867.8549
 960  1015.986
 961  1283.18
 962  1540.937
 963  1768.197
 964  1759.868
 965  1640.843
 966  1343.541
 967  1255.833
 968  1059.051
 969  958.7682
 970  802.358
 971  840.5639
 972  1005.055
 973  1019.023
 974  970.8804
 975  905.8972
 976  798.3425
 977  859.0905
 978  914.525
 979  1070.89
 980  1227.356
 981  1137.2
 982  1062.173
 983  788.7123
 984  658.0612
 985  632.5808
 986  546.485
 987  605.9053
 988  602.3988
 989  621.5011
 990  617.496
 991  603.8306
 992  819.6514
 993  1013.049
 994  1265.079
 995  1504.692
 996  1669.876
 997  1777.783
 998  1766.865
 999  1528.938
1000  1370.177
1001  1023.799
1002  929.6579
1003  652.2673
1004  587.9132
1005  709.9752
1006  777.5952
1007  937.3085
1008  926.1331
1009  937.2623
1010  994.1492
1011  1151.065
1012  1470.336
1013  1528.73
1014  1561.678
1015  1433.117
1016  1230.798
1017  913.4476
1018  563.5551
1019  419.6617
1020  422.5709
1021  476.5865
1022  549.5464
1023  549.2134
