# Input file       =  1202639010.116768_cleaned.dat
# Candidate        =  PSR_0332+5434
# Telescope        =  AR
# Epoch_topo       =  58163.433207369999
# Epoch_bary       =  N/A
# T_sample         =  0.002
# Data Folded      =  7208960
# Data Avg         =  0.0147789006354043
# Data StdDev      =  1.00005346709426 
# Profile Bins     =  512
# Profile Avg      =  208.192924744578 
# Profile StdDev   =  118.665520154867 
# Reduced chi-sqr  =  1.909
# Prob(Noise)      <  2.14e-31   (~11.6 sigma)
# P_topo (ms)      =  714.579894081289  +/- 0.000105
# P'_topo (s/s)    =  -0                +/- 5.64e-11
# P''_topo (s/s^2) =  0                 +/- 2.54e-14
# P_bary (ms)      =  N/A
# P'_bary (s/s)    =  N/A
# P''_bary (s/s^2) =  N/A
# P_orb (s)        =  N/A
# asin(i)/c (s)    =  N/A
# eccentricity     =  N/A
# w (rad)          =  N/A
# T_peri           =  N/A
######################################################
   0  167.9328
   1  196.8655
   2  33.23017
   3  73.52188
   4  123.3212
   5  184.2114
   6  47.14705
   7  105.9225
   8  100.9552
   9  156.941
  10  166.0667
  11  102.5339
  12  72.27348
  13  187.3421
  14  235.7451
  15  222.5137
  16  176.9864
  17  158.5243
  18  153.766
  19  59.65874
  20  126.2492
  21  53.48404
  22  105.2061
  23  236.4242
  24  285.6051
  25  172.5141
  26  254.9292
  27  186.5991
  28  182.1775
  29  218.7315
  30  96.55711
  31  109.3782
  32  182.0494
  33  164.6642
  34  163.2508
  35  222.8014
  36  68.77538
  37  241.958
  38  311.661
  39  285.6447
  40  189.8334
  41  102.7748
  42  167.7681
  43  39.63876
  44  -61.02763
  45  131.2966
  46  201.6138
  47  213.5254
  48  242.1746
  49  107.8975
  50  118.9651
  51  88.91052
  52  110.3008
  53  233.865
  54  244.3266
  55  327.1233
  56  22.30093
  57  37.67149
  58  87.45541
  59  -2.824258
  60  42.52394
  61  187.0578
  62  252.2228
  63  296.9644
  64  352.2596
  65  411.3259
  66  291.1735
  67  166.8485
  68  202.6605
  69  163.4548
  70  215.9171
  71  122.8412
  72  171.2139
  73  202.2044
  74  88.59458
  75  88.81441
  76  86.53313
  77  217.224
  78  195.0889
  79  231.3554
  80  322.7234
  81  297.1001
  82  144.7487
  83  332.8179
  84  352.8022
  85  244.1734
  86  189.2681
  87  149.9934
  88  99.5862
  89  117.1321
  90  115.7193
  91  275.674
  92  194.0196
  93  117.2479
  94  155.1239
  95  314.2361
  96  341.726
  97  240.7701
  98  234.837
  99  178.0697
 100  180.838
 101  168.826
 102  195.7941
 103  257.4988
 104  353.8776
 105  279.9002
 106  182.0276
 107  302.7332
 108  468.7986
 109  651.9652
 110  877.4187
 111  939.3171
 112  808.8639
 113  588.4543
 114  435.0844
 115  434.3366
 116  277.631
 117  371.3139
 118  413.6167
 119  241.0141
 120  328.6581
 121  256.0899
 122  136.8718
 123  147.8665
 124  264.3876
 125  220.8726
 126  211.3408
 127  354.642
 128  288.1591
 129  288.6997
 130  370.2708
 131  334.3494
 132  315.9513
 133  330.0104
 134  287.828
 135  309.5591
 136  305.9384
 137  339.606
 138  326.0909
 139  235.1057
 140  139.2529
 141  201.5623
 142  116.7102
 143  229.151
 144  240.8934
 145  241.7929
 146  356.936
 147  329.8835
 148  211.9956
 149  265.2145
 150  411.0768
 151  274.2919
 152  180.7639
 153  331.9871
 154  284.3662
 155  257.7407
 156  197.7937
 157  67.08267
 158  231.5141
 159  259.0835
 160  271.0658
 161  483.0664
 162  351.9109
 163  395.822
 164  352.231
 165  396.6472
 166  377.9358
 167  233.7796
 168  259.5042
 169  297.9487
 170  338.5145
 171  331.2456
 172  222.8862
 173  230.3101
 174  240.1409
 175  248.7356
 176  123.241
 177  221.671
 178  296.8271
 179  368.2458
 180  290.9889
 181  270.4533
 182  288.2325
 183  380.9481
 184  354.0422
 185  126.1552
 186  173.0911
 187  218.792
 188  283.2142
 189  192.547
 190  141.3196
 191  192.521
 192  205.4198
 193  116.3009
 194  215.9534
 195  287.0969
 196  189.1465
 197  118.6301
 198  163.3883
 199  230.4281
 200  91.80878
 201  128.87
 202  209.957
 203  267.5063
 204  324.915
 205  285.2166
 206  333.1593
 207  307.1897
 208  244.6683
 209  333.4149
 210  349.8409
 211  377.3864
 212  307.4643
 213  338.5055
 214  450.7562
 215  311.9854
 216  269.34
 217  116.0052
 218  67.10716
 219  186.0903
 220  281.9692
 221  313.5488
 222  158.9533
 223  187.0933
 224  358.2176
 225  374.9642
 226  276.7477
 227  214.7605
 228  383.4742
 229  488.629
 230  207.241
 231  121.536
 232  210.8078
 233  216.0079
 234  120.9074
 235  129.0355
 236  348.5516
 237  333.9798
 238  293.644
 239  282.6106
 240  282.4005
 241  181.7123
 242  179.3994
 243  307.902
 244  356.1871
 245  350.4027
 246  252.7642
 247  380.276
 248  470.6916
 249  378.6518
 250  266.8942
 251  228.7514
 252  416.4159
 253  356.1157
 254  268.2719
 255  141.5185
 256  238.9757
 257  215.0029
 258  127.4081
 259  178.5028
 260  262.0428
 261  250.6421
 262  298.4957
 263  414.6311
 264  380.4482
 265  334.3673
 266  319.382
 267  310.0253
 268  383.2158
 269  399.6638
 270  300.1176
 271  191.2867
 272  134.6709
 273  237.5421
 274  218.0306
 275  207.8166
 276  285.2873
 277  375.5876
 278  326.6429
 279  189.0456
 280  170.1163
 281  171.436
 282  293.9463
 283  178.4032
 284  203.0887
 285  307.939
 286  267.3895
 287  228.7307
 288  182.3245
 289  183.0155
 290  174.7848
 291  196.4945
 292  311.751
 293  207.4016
 294  344.2207
 295  332.4718
 296  458.6046
 297  281.3527
 298  232.3184
 299  283.3946
 300  130.6806
 301  105.5825
 302  221.9017
 303  219.0071
 304  71.4304
 305  60.6606
 306  119.874
 307  140.0744
 308  62.81795
 309  49.56248
 310  174.6838
 311  232.534
 312  210.2743
 313  45.96843
 314  193.6251
 315  272.0006
 316  201.1392
 317  197.8685
 318  112.4716
 319  212.963
 320  284.3182
 321  197.7382
 322  337.446
 323  265.0264
 324  211.4456
 325  175.2017
 326  179.0646
 327  227.0376
 328  239.3203
 329  283.5823
 330  242.2795
 331  78.40376
 332  89.29231
 333  182.4476
 334  307.6298
 335  326.4039
 336  331.965
 337  175.1896
 338  207.1333
 339  263.9275
 340  247.0865
 341  237.1789
 342  386.1917
 343  323.1075
 344  365.9828
 345  377.0584
 346  257.5517
 347  162.8569
 348  192.4628
 349  173.6895
 350  216.8957
 351  220.2436
 352  220.3782
 353  263.4748
 354  216.6335
 355  96.29337
 356  81.5333
 357  129.8654
 358  212.0958
 359  188.5497
 360  191.2893
 361  166.5533
 362  286.3113
 363  210.9303
 364  227.1662
 365  251.9102
 366  117.3587
 367  192.534
 368  158.4514
 369  50.9002
 370  121.4812
 371  142.6929
 372  123.0478
 373  137.1205
 374  119.6269
 375  168.0333
 376  223.7503
 377  260.8229
 378  430.2982
 379  331.9532
 380  271.3805
 381  292.5721
 382  139.6965
 383  131.2319
 384  219.7673
 385  289.7898
 386  233.0691
 387  94.60005
 388  -10.68176
 389  67.14632
 390  173.3556
 391  207.9497
 392  225.4587
 393  246.6009
 394  221.0661
 395  228.4561
 396  133.8228
 397  167.5601
 398  214.8413
 399  103.5112
 400  41.14389
 401  -23.64144
 402  96.94176
 403  149.7715
 404  26.24972
 405  137.3885
 406  214.0351
 407  132.4667
 408  98.48769
 409  240.4007
 410  276.6458
 411  259.8125
 412  145.154
 413  44.54841
 414  38.36381
 415  98.04048
 416  144.5155
 417  140.507
 418  184.7858
 419  217.9452
 420  73.06216
 421  15.96499
 422  -13.67121
 423  -30.89245
 424  50.74603
 425  196.6977
 426  161.0206
 427  103.0333
 428  73.43214
 429  89.38934
 430  133.1538
 431  88.07572
 432  87.93435
 433  142.7668
 434  133.6331
 435  198.7021
 436  110.5502
 437  110.2643
 438  47.68242
 439  66.58614
 440  -11.24591
 441  99.90067
 442  117.7932
 443  119.2901
 444  101.1334
 445  128.6113
 446  147.1548
 447  38.4538
 448  -0.2048617
 449  -22.75747
 450  39.89106
 451  129.1592
 452  149.9106
 453  69.50082
 454  100.5064
 455  22.47449
 456  -85.72165
 457  -73.75603
 458  9.861013
 459  166.44
 460  184.362
 461  64.83859
 462  92.47038
 463  207.0652
 464  217.3605
 465  155.7551
 466  278.5959
 467  70.15728
 468  -32.78979
 469  22.52987
 470  66.78251
 471  -31.0219
 472  -40.1531
 473  71.67615
 474  95.06438
 475  243.1863
 476  343.2454
 477  237.8713
 478  137.3666
 479  217.3429
 480  90.27041
 481  4.95764
 482  157.6616
 483  269.6534
 484  154.3809
 485  -20.72805
 486  151.9966
 487  88.03593
 488  70.96792
 489  91.43127
 490  104.1905
 491  134.6299
 492  128.4169
 493  240.5843
 494  316.781
 495  257.7046
 496  185.3366
 497  73.59594
 498  156.378
 499  96.89868
 500  144.2677
 501  127.1918
 502  113.5797
 503  182.3342
 504  220.9622
 505  155.188
 506  68.29239
 507  40.14786
 508  248.8984
 509  243.0473
 510  201.4734
 511  170.8312
