# Input file       =  1202567454.139856_cleaned.dat
# Candidate        =  PSR_0332+5434
# Telescope        =  AR
# Epoch_topo       =  58162.605013192777
# Epoch_bary       =  N/A
# T_sample         =  0.002
# Data Folded      =  7340032
# Data Avg         =  0.055005163838374
# Data StdDev      =  1.00058035949512 
# Profile Bins     =  512
# Profile Avg      =  788.590870020476 
# Profile StdDev   =  119.802524581307 
# Reduced chi-sqr  =  0.781
# Prob(Noise)      <  1   (~0.0 sigma)
# P_topo (ms)      =  714.579759075603  +/- 0.000499
# P'_topo (s/s)    =  -0                +/- 2.63e-10
# P''_topo (s/s^2) =  0                 +/- 1.16e-13
# P_bary (ms)      =  N/A
# P'_bary (s/s)    =  N/A
# P''_bary (s/s^2) =  N/A
# P_orb (s)        =  N/A
# asin(i)/c (s)    =  N/A
# eccentricity     =  N/A
# w (rad)          =  N/A
# T_peri           =  N/A
######################################################
   0  735.2496
   1  809.1648
   2  839.8265
   3  804.1716
   4  823.8327
   5  850.089
   6  827.6332
   7  805.8229
   8  771.3262
   9  808.1105
  10  773.6752
  11  769.6634
  12  823.3201
  13  848.001
  14  892.1531
  15  823.8672
  16  770.4603
  17  849.5345
  18  832.9922
  19  900.4266
  20  905.6857
  21  787.3223
  22  789.3992
  23  788.4216
  24  866.6759
  25  839.1551
  26  860.548
  27  849.9278
  28  879.5686
  29  835.7972
  30  844.8318
  31  836.5398
  32  876.5214
  33  889.4472
  34  887.7822
  35  903.446
  36  926.697
  37  910.5287
  38  892.8326
  39  924.9252
  40  903.9737
  41  895.2538
  42  930.5304
  43  910.9016
  44  852.244
  45  807.0391
  46  746.9695
  47  840.5251
  48  903.0363
  49  920.3162
  50  884.3877
  51  764.0232
  52  655.2396
  53  734.2982
  54  862.2347
  55  873.1272
  56  806.0879
  57  781.5117
  58  747.1567
  59  824.1247
  60  864.7635
  61  776.835
  62  728.1004
  63  721.7144
  64  679.5612
  65  669.6489
  66  744.511
  67  784.0292
  68  690.8615
  69  751.7303
  70  716.0847
  71  778.6749
  72  767.2062
  73  691.3154
  74  695.579
  75  708.034
  76  658.0886
  77  639.9907
  78  708.6917
  79  732.3601
  80  734.4236
  81  783.6014
  82  803.2279
  83  725.1895
  84  708.7363
  85  746.8658
  86  773.8898
  87  803.2473
  88  770.0845
  89  634.8267
  90  758.7813
  91  773.526
  92  662.2617
  93  742.9131
  94  755.3043
  95  770.2197
  96  724.6471
  97  721.127
  98  757.5006
  99  835.0703
 100  791.338
 101  774.3239
 102  725.8407
 103  742.077
 104  702.0292
 105  728.148
 106  671.0892
 107  678.9473
 108  799.3876
 109  772.522
 110  719.7194
 111  739.4946
 112  765.4404
 113  737.808
 114  762.3346
 115  762.4745
 116  688.4964
 117  740.5291
 118  767.5945
 119  725.3605
 120  768.0722
 121  760.4786
 122  779.8276
 123  727.953
 124  755.5137
 125  745.6942
 126  713.1335
 127  721.7648
 128  683.5078
 129  709.9421
 130  675.598
 131  696.5025
 132  726.0074
 133  775.5244
 134  792.8948
 135  808.1475
 136  819.0839
 137  781.1846
 138  783.2883
 139  809.4594
 140  668.9068
 141  651.7394
 142  776.7038
 143  782.2706
 144  720.8434
 145  773.6387
 146  760.1535
 147  801.4299
 148  815.0873
 149  835.5745
 150  985.8487
 151  994.527
 152  1068.913
 153  1023.906
 154  1103.039
 155  1125.614
 156  878.7393
 157  662.9286
 158  723.3481
 159  742.1509
 160  705.7935
 161  742.914
 162  780.408
 163  739.6512
 164  743.8932
 165  807.6012
 166  791.8796
 167  819.3575
 168  762.12
 169  717.9427
 170  711.1699
 171  687.3315
 172  654.7021
 173  747.8229
 174  757.0474
 175  575.0485
 176  570.3081
 177  649.3793
 178  751.5943
 179  721.1842
 180  748.8809
 181  783.5501
 182  741.5496
 183  700.2235
 184  666.4237
 185  660.5999
 186  600.1066
 187  636.4409
 188  635.3942
 189  567.241
 190  610.6565
 191  653.8553
 192  629.8864
 193  620.6089
 194  719.377
 195  767.2401
 196  791.6847
 197  759.5438
 198  720.5593
 199  799.7111
 200  769.6848
 201  768.756
 202  751.0046
 203  778.7133
 204  819.9984
 205  853.9333
 206  752.8693
 207  742.7146
 208  802.9428
 209  700.5183
 210  785.8809
 211  820.4974
 212  810.1965
 213  801.7673
 214  872.0716
 215  851.3979
 216  878.0126
 217  905.4153
 218  836.7455
 219  798.3469
 220  865.8065
 221  764.394
 222  704.8624
 223  768.9456
 224  790.0776
 225  785.0417
 226  834.6148
 227  826.4024
 228  853.0615
 229  840.7277
 230  862.3599
 231  798.5159
 232  842.814
 233  803.239
 234  767.7463
 235  808.0634
 236  825.8057
 237  751.4807
 238  820.0334
 239  779.7201
 240  750.5302
 241  771.5256
 242  772.8189
 243  769.7937
 244  870.9681
 245  791.0402
 246  858.3693
 247  933.1137
 248  965.4254
 249  923.379
 250  797.5212
 251  839.2841
 252  810.6783
 253  858.7255
 254  898.9054
 255  929.305
 256  898.6498
 257  883.1259
 258  910.217
 259  925.902
 260  930.2592
 261  903.6636
 262  787.5155
 263  833.5093
 264  910.668
 265  871.4171
 266  829.631
 267  824.0151
 268  840.5931
 269  870.6603
 270  862.5229
 271  911.5717
 272  834.7098
 273  730.5809
 274  808.6688
 275  939.2286
 276  932.3423
 277  816.8206
 278  851.0026
 279  860.1374
 280  840.3297
 281  836.5903
 282  865.0388
 283  818.7371
 284  813.5677
 285  803.065
 286  786.838
 287  824.4551
 288  835.6735
 289  786.4073
 290  761.0392
 291  789.4152
 292  782.274
 293  854.1439
 294  865.3036
 295  808.9642
 296  789.8832
 297  850.6633
 298  865.904
 299  795.6653
 300  768.5529
 301  829.1981
 302  868.2779
 303  788.4876
 304  712.0823
 305  754.3204
 306  848.4881
 307  846.5769
 308  714.0729
 309  854.0149
 310  842.3867
 311  774.0249
 312  844.4355
 313  817.0025
 314  869.4659
 315  872.4003
 316  844.4534
 317  822.2883
 318  831.6228
 319  878.2947
 320  763.7856
 321  754.6225
 322  812.2795
 323  784.6257
 324  745.1028
 325  782.4474
 326  787.1462
 327  701.7685
 328  700.3246
 329  772.757
 330  827.6015
 331  820.1737
 332  893.8445
 333  852.0164
 334  783.1096
 335  849.4948
 336  807.8666
 337  871.6285
 338  863.8378
 339  859.314
 340  855.8586
 341  883.9506
 342  828.3044
 343  842.112
 344  905.1541
 345  906.1333
 346  910.6718
 347  864.926
 348  861.4927
 349  919.4498
 350  929.5704
 351  925.5066
 352  839.7484
 353  846.1471
 354  809.7198
 355  792.8875
 356  823.2962
 357  839.8039
 358  839.1085
 359  793.8624
 360  767.4045
 361  751.6299
 362  772.8491
 363  710.7393
 364  802.1605
 365  820.5839
 366  779.3916
 367  872.4902
 368  811.166
 369  766.663
 370  773.6875
 371  783.7355
 372  784.3723
 373  772.2955
 374  783.6026
 375  795.9042
 376  778.6531
 377  747.849
 378  746.1845
 379  747.2821
 380  718.1589
 381  709.0832
 382  679.5914
 383  732.3464
 384  759.4753
 385  800.4462
 386  790.9402
 387  675.5021
 388  757.221
 389  782.2209
 390  726.8163
 391  778.0729
 392  751.6194
 393  784.2467
 394  846.7087
 395  813.6541
 396  790.3257
 397  757.2405
 398  761.7388
 399  746.3849
 400  762.9559
 401  729.0369
 402  655.0707
 403  632.4974
 404  605.7381
 405  594.9852
 406  668.0422
 407  684.8731
 408  675.8946
 409  716.9214
 410  759.1184
 411  772.1424
 412  708.8996
 413  756.5783
 414  718.2179
 415  787.0013
 416  794.7722
 417  781.0848
 418  756.9829
 419  864.8226
 420  925.9462
 421  847.7711
 422  812.3829
 423  808.0321
 424  791.2124
 425  781.4977
 426  787.9194
 427  807.3945
 428  798.3903
 429  766.1664
 430  768.2858
 431  769.8839
 432  756.9416
 433  818.8769
 434  802.8982
 435  798.7975
 436  826.9281
 437  803.3178
 438  798.7302
 439  826.0924
 440  779.8093
 441  741.2369
 442  726.2497
 443  804.1097
 444  882.6887
 445  865.848
 446  864.5355
 447  916.5406
 448  875.9457
 449  811.7775
 450  750.4796
 451  778.9155
 452  813.258
 453  780.5059
 454  946.8044
 455  983.3225
 456  909.218
 457  751.8249
 458  768.7698
 459  800.0983
 460  806.6248
 461  800.6475
 462  821.3671
 463  786.9841
 464  756.1078
 465  775.0981
 466  780.0586
 467  771.691
 468  791.8323
 469  735.4788
 470  641.7103
 471  758.135
 472  709.9
 473  659.8815
 474  718.1214
 475  728.7169
 476  788.9792
 477  814.316
 478  822.2082
 479  686.691
 480  718.215
 481  743.0236
 482  783.341
 483  771.5815
 484  727.1886
 485  736.1752
 486  760.2148
 487  778.2226
 488  731.7582
 489  620.3506
 490  652.8253
 491  654.225
 492  644.4564
 493  735.3527
 494  678.2862
 495  732.9162
 496  727.9642
 497  795.2575
 498  762.3654
 499  751.1794
 500  719.9351
 501  742.6416
 502  711.0885
 503  717.5665
 504  727.7523
 505  755.4119
 506  703.4326
 507  735.349
 508  846.7386
 509  850.4417
 510  786.223
 511  721.0266
