# Input file       =  1202050963.106889_cleaned.dat
# Candidate        =  PSR_0332+5434
# Telescope        =  AR
# Epoch_topo       =  58156.627107718625
# Epoch_bary       =  N/A
# T_sample         =  0.002
# Data Folded      =  7340032
# Data Avg         =  0.0458034286988054
# Data StdDev      =  1.00020822908992 
# Profile Bins     =  512
# Profile Avg      =  656.492214714309 
# Profile StdDev   =  119.757968277965 
# Reduced chi-sqr  =  1.039
# Prob(Noise)      <  0.26   (~0.6 sigma)
# P_topo (ms)      =  714.578279410874  +/- 0.000495
# P'_topo (s/s)    =  -0                +/- 2.61e-10
# P''_topo (s/s^2) =  0                 +/- 1.15e-13
# P_bary (ms)      =  N/A
# P'_bary (s/s)    =  N/A
# P''_bary (s/s^2) =  N/A
# P_orb (s)        =  N/A
# asin(i)/c (s)    =  N/A
# eccentricity     =  N/A
# w (rad)          =  N/A
# T_peri           =  N/A
######################################################
   0  1102.401
   1  1138.323
   2  1038.62
   3  785.8511
   4  641.2102
   5  627.4024
   6  593.2675
   7  645.0692
   8  640.5035
   9  545.4894
  10  606.0707
  11  718.7323
  12  749.6823
  13  664.0435
  14  673.8625
  15  700.1954
  16  707.0914
  17  697.8835
  18  684.6635
  19  726.797
  20  790.2294
  21  736.5343
  22  673.7064
  23  732.857
  24  672.097
  25  693.351
  26  665.5502
  27  712.9057
  28  612.3048
  29  610.7705
  30  541.3483
  31  550.7267
  32  630.168
  33  715.0012
  34  687.3438
  35  476.2448
  36  616.8055
  37  612.073
  38  519.5818
  39  562.5852
  40  664.4678
  41  642.819
  42  600.0872
  43  569.3771
  44  614.7031
  45  695.7425
  46  693.7231
  47  705.0007
  48  642.205
  49  585.5321
  50  590.5648
  51  540.7802
  52  612.0281
  53  643.8026
  54  764.4908
  55  702.2875
  56  589.1246
  57  592.6103
  58  649.9828
  59  637.0955
  60  618.4665
  61  649.2314
  62  771.1632
  63  776.882
  64  643.1082
  65  592.2257
  66  673.8848
  67  707.9523
  68  588.9587
  69  567.8134
  70  613.4008
  71  707.3966
  72  693.7165
  73  581.3538
  74  614.1523
  75  608.6243
  76  570.9213
  77  686.7092
  78  699.3593
  79  634.5074
  80  623.5156
  81  702.9075
  82  678.7158
  83  630.8727
  84  543.6012
  85  480.1963
  86  509.6583
  87  504.356
  88  530.9241
  89  551.9886
  90  489.6813
  91  557.3953
  92  627.877
  93  561.7945
  94  494.2788
  95  462.8387
  96  560.6439
  97  598.649
  98  510.4708
  99  543.8401
 100  579.8746
 101  704.9372
 102  651.3708
 103  653.3483
 104  649.9872
 105  614.1501
 106  609.6641
 107  614.1615
 108  694.6547
 109  620.7307
 110  574.4937
 111  529.7289
 112  534.7812
 113  466.3056
 114  520.8336
 115  659.8579
 116  707.4224
 117  601.548
 118  681.3615
 119  667.1258
 120  611.4108
 121  596.2001
 122  650.6819
 123  607.097
 124  592.9701
 125  567.3678
 126  519.3151
 127  570.7615
 128  622.119
 129  694.2728
 130  603.5433
 131  719.9977
 132  782.5402
 133  742.9572
 134  715.31
 135  695.8677
 136  664.602
 137  688.2308
 138  689.631
 139  564.7487
 140  594.1831
 141  702.0598
 142  622.1685
 143  681.4635
 144  608.184
 145  571.4882
 146  623.3057
 147  595.5916
 148  560.3557
 149  512.9357
 150  538.0559
 151  628.3261
 152  670.116
 153  572.7679
 154  636.0724
 155  641.8322
 156  659.6857
 157  671.617
 158  649.7934
 159  636.0245
 160  746.7027
 161  743.8717
 162  735.1265
 163  643.8738
 164  548.1567
 165  616.0631
 166  689.6511
 167  642.8287
 168  646.2635
 169  688.8865
 170  706.3417
 171  659.0394
 172  570.4723
 173  651.7029
 174  642.1257
 175  677.9483
 176  787.6131
 177  713.7169
 178  705.9985
 179  720.0309
 180  739.9455
 181  809.2228
 182  841.0034
 183  702.9323
 184  669.0023
 185  653.5605
 186  688.9246
 187  737.1102
 188  773.0775
 189  746.7911
 190  719.2662
 191  655.5124
 192  722.2419
 193  693.9624
 194  675.5662
 195  644.4553
 196  720.0297
 197  646.7559
 198  622.9675
 199  570.9787
 200  683.8058
 201  688.014
 202  637.2859
 203  650.8522
 204  674.4057
 205  524.0064
 206  483.9336
 207  548.5864
 208  542.6601
 209  538.0911
 210  553.0432
 211  683.6871
 212  772.7749
 213  859.5704
 214  636.8126
 215  599.626
 216  606.3898
 217  679.4471
 218  686.2072
 219  682.0158
 220  716.18
 221  725.7736
 222  738.0653
 223  673.9297
 224  626.9008
 225  693.5029
 226  707.6511
 227  702.734
 228  689.4556
 229  581.7458
 230  583.4563
 231  642.8214
 232  650.654
 233  681.8224
 234  805.2534
 235  707.686
 236  733.7223
 237  758.342
 238  690.1536
 239  593.5051
 240  716.9423
 241  713.8586
 242  688.5229
 243  772.7437
 244  746.0668
 245  780.6298
 246  758.0856
 247  748.938
 248  747.9557
 249  664.0699
 250  691.3815
 251  683.6196
 252  705.0357
 253  740.6927
 254  677.3243
 255  728.2436
 256  719.7188
 257  706.2596
 258  760.8381
 259  638.9246
 260  606.1058
 261  749.7739
 262  687.335
 263  737.0389
 264  695.6909
 265  738.7746
 266  690.4787
 267  732.182
 268  763.1859
 269  816.212
 270  825.2855
 271  754.9018
 272  739.9528
 273  681.8992
 274  666.2949
 275  634.6038
 276  595.2534
 277  668.4929
 278  695.0441
 279  752.6973
 280  729.174
 281  668.3058
 282  718.8176
 283  780.9459
 284  831.4278
 285  766.0865
 286  776.7401
 287  700.8128
 288  696.9037
 289  698.8389
 290  779.3479
 291  737.1152
 292  830.2471
 293  754.4034
 294  637.2993
 295  656.9849
 296  620.59
 297  592.9799
 298  610.9069
 299  690.4869
 300  688.5594
 301  755.1343
 302  675.6564
 303  613.7857
 304  651.6854
 305  717.6497
 306  617.5692
 307  629.5464
 308  612.3008
 309  659.3878
 310  728.2064
 311  676.9243
 312  609.5304
 313  605.9642
 314  692.087
 315  598.3309
 316  676.0922
 317  655.8321
 318  595.8128
 319  671.0038
 320  797.8917
 321  757.4191
 322  713.6475
 323  726.4034
 324  679.3242
 325  704.2489
 326  731.2905
 327  733.9883
 328  700.6168
 329  647.9686
 330  605.0168
 331  614.6513
 332  600.1964
 333  614.0797
 334  624.884
 335  644.5213
 336  666.0266
 337  642.6918
 338  626.9792
 339  639.6516
 340  655.2003
 341  659.6112
 342  679.726
 343  726.5369
 344  747.0428
 345  697.7684
 346  605.1804
 347  662.3557
 348  646.7378
 349  609.534
 350  723.3508
 351  731.7148
 352  723.7036
 353  759.9356
 354  703.9435
 355  709.1539
 356  698.201
 357  762.5056
 358  647.4033
 359  557.2098
 360  647.7405
 361  747.1794
 362  647.5753
 363  580.1431
 364  629.6423
 365  604.2233
 366  611.1199
 367  656.5499
 368  690.9106
 369  647.816
 370  656.8072
 371  628.6559
 372  678.1736
 373  666.6627
 374  685.8704
 375  667.8402
 376  709.4371
 377  691.4593
 378  746.0797
 379  764.9215
 380  662.4715
 381  633.1144
 382  673.5751
 383  741.4089
 384  792.7247
 385  785.8785
 386  839.7254
 387  802.5248
 388  716.106
 389  747.2277
 390  665.5784
 391  680.8252
 392  812.3795
 393  776.4344
 394  676.9083
 395  715.6736
 396  670.0839
 397  762.5038
 398  769.0955
 399  671.0676
 400  729.7898
 401  721.791
 402  723.6816
 403  668.2415
 404  733.0231
 405  831.4498
 406  646.0298
 407  598.8806
 408  641.7246
 409  679.9736
 410  624.4927
 411  553.1113
 412  672.1068
 413  801.6387
 414  705.2302
 415  580.2366
 416  618.5746
 417  610.9857
 418  631.3539
 419  610.3658
 420  572.9922
 421  575.7609
 422  604.0357
 423  573.7014
 424  583.878
 425  607.6657
 426  639.3584
 427  571.3981
 428  611.5668
 429  563.5074
 430  524.5629
 431  536.475
 432  622.4872
 433  587.113
 434  581.8421
 435  650.2041
 436  637.8696
 437  695.1146
 438  610.3235
 439  584.6786
 440  573.8271
 441  576.4671
 442  616.4669
 443  569.0085
 444  600.9924
 445  572.0002
 446  556.4547
 447  539.7031
 448  487.1787
 449  558.1069
 450  648.6903
 451  665.5265
 452  648.7212
 453  551.0102
 454  456.3677
 455  553.7773
 456  578.5948
 457  660.9545
 458  643.3262
 459  633.9048
 460  566.444
 461  502.5908
 462  449.7314
 463  570.4122
 464  612.7617
 465  552.2906
 466  545.0214
 467  472.2533
 468  477.6163
 469  496.7004
 470  670.293
 471  624.3049
 472  579.5624
 473  585.639
 474  550.1777
 475  540.4589
 476  583.6804
 477  584.2784
 478  549.6228
 479  639.8362
 480  672.4756
 481  690.6271
 482  555.7904
 483  501.6322
 484  536.8789
 485  496.1187
 486  537.5094
 487  586.2971
 488  582.3177
 489  576.5494
 490  534.0031
 491  523.7629
 492  567.5712
 493  607.4144
 494  641.2825
 495  664.4645
 496  553.2241
 497  554.6903
 498  667.9393
 499  704.7291
 500  572.1877
 501  552.2629
 502  569.0716
 503  563.622
 504  653.4389
 505  674.5127
 506  679.7914
 507  789.1694
 508  882.9958
 509  957.2446
 510  1060.979
 511  1072.45
