# Input file       =  1202208038.118441_cleaned.dat
# Candidate        =  PSR_0332+5434
# Telescope        =  AR
# Epoch_topo       =  58158.445105537510
# Epoch_bary       =  N/A
# T_sample         =  0.002
# Data Folded      =  7208960
# Data Avg         =  0.106182544557801
# Data StdDev      =  3.68592684043158 
# Profile Bins     =  1024
# Profile Avg      =  747.501658563688 
# Profile StdDev   =  309.266614716199 
# Reduced chi-sqr  =  2.052
# Prob(Noise)      <  1.51e-76   (~18.5 sigma)
# P_topo (ms)      =  714.5787765458    +/- 2e-05
# P'_topo (s/s)    =  -0                +/- 1.07e-11
# P''_topo (s/s^2) =  0                 +/- 4.83e-15
# P_bary (ms)      =  N/A
# P'_bary (s/s)    =  N/A
# P''_bary (s/s^2) =  N/A
# P_orb (s)        =  N/A
# asin(i)/c (s)    =  N/A
# eccentricity     =  N/A
# w (rad)          =  N/A
# T_peri           =  N/A
######################################################
   0  879.3928
   1  820.3502
   2  751.8855
   3  639.5044
   4  713.7092
   5  660.3474
   6  700.0013
   7  615.0164
   8  610.5015
   9  620.1038
  10  722.4415
  11  750.7237
  12  903.7438
  13  904.4297
  14  979.2526
  15  929.2384
  16  865.6536
  17  674.3342
  18  499.7909
  19  534.635
  20  609.123
  21  655.9025
  22  625.2388
  23  555.1979
  24  644.7762
  25  786.4373
  26  957.6314
  27  1007.918
  28  1090.043
  29  1193.166
  30  1185.404
  31  1030.443
  32  960.1226
  33  732.8596
  34  607.9178
  35  427.7356
  36  532.7217
  37  654.9659
  38  811.4003
  39  808.8186
  40  785.007
  41  683.9388
  42  645.0779
  43  670.3067
  44  965.3322
  45  1211.489
  46  1179.614
  47  922.066
  48  672.0148
  49  474.6183
  50  266.2289
  51  187.1097
  52  299.868
  53  394.8513
  54  395.7721
  55  412.3653
  56  562.3132
  57  680.8453
  58  754.9022
  59  1028.215
  60  1260.486
  61  1301.667
  62  1239.002
  63  1083.009
  64  921.8811
  65  755.0577
  66  667.0654
  67  616.4484
  68  520.0907
  69  484.8781
  70  485.8248
  71  523.5164
  72  596.9444
  73  624.7245
  74  627.8537
  75  605.1394
  76  615.0509
  77  825.7874
  78  929.8866
  79  961.0487
  80  985.9537
  81  917.8554
  82  798.2948
  83  567.2838
  84  474.1665
  85  351.6174
  86  307.1426
  87  395.8136
  88  580.8929
  89  670.1685
  90  610.4098
  91  573.6655
  92  627.1644
  93  796.9223
  94  964.6737
  95  1125.121
  96  1198.065
  97  1104.875
  98  944.5999
  99  862.1913
 100  798.7606
 101  760.2222
 102  718.6576
 103  662.8674
 104  689.0292
 105  566.0057
 106  591.1854
 107  623.5427
 108  785.0937
 109  842.6632
 110  883.4886
 111  862.9916
 112  919.1366
 113  754.2708
 114  780.9942
 115  588.0976
 116  467.7591
 117  247.1755
 118  219.6559
 119  354.6275
 120  504.687
 121  579.8251
 122  575.1578
 123  658.046
 124  872.9469
 125  963.3964
 126  1076.778
 127  1161.637
 128  1267.189
 129  1243.934
 130  1143.793
 131  925.0991
 132  813.5738
 133  712.6433
 134  728.5344
 135  561.1929
 136  622.2683
 137  699.0925
 138  732.8857
 139  688.8784
 140  684.7569
 141  695.9224
 142  632.8207
 143  579.9076
 144  792.346
 145  1004.453
 146  1035.816
 147  992.9318
 148  693.8236
 149  584.8144
 150  481.5249
 151  514.5697
 152  614.1666
 153  619.5278
 154  503.3161
 155  261.4292
 156  296.5398
 157  515.2072
 158  735.868
 159  872.5558
 160  1092.472
 161  1148.734
 162  1194.694
 163  1172.288
 164  1148.462
 165  1046.447
 166  833.3049
 167  776.855
 168  809.4211
 169  866.5096
 170  736.4803
 171  714.2592
 172  581.4569
 173  535.949
 174  512.5991
 175  718.9775
 176  881.636
 177  1032.544
 178  959.4135
 179  898.4201
 180  759.4861
 181  534.4713
 182  515.1834
 183  454.0385
 184  569.7775
 185  520.5854
 186  475.2758
 187  435.1392
 188  434.8899
 189  597.396
 190  693.4466
 191  782.9985
 192  895.1143
 193  1213.534
 194  1273.38
 195  1220.45
 196  1093.424
 197  955.3557
 198  735.4886
 199  574.5468
 200  584.1145
 201  500.9209
 202  423.5044
 203  478.8138
 204  673.739
 205  746.3361
 206  753.1697
 207  675.9997
 208  749.8845
 209  892.4254
 210  1068.261
 211  1052.182
 212  1005.051
 213  891.2257
 214  739.9832
 215  465.824
 216  341.1261
 217  291.1186
 218  337.9747
 219  369.7991
 220  481.8811
 221  574.4017
 222  559.4736
 223  662.6498
 224  834.9548
 225  1034.676
 226  1054.466
 227  1024.851
 228  1116.55
 229  1238.42
 230  1116.909
 231  870.3452
 232  768.2984
 233  740.9614
 234  865.53
 235  913.3812
 236  956.3058
 237  808.817
 238  618.4875
 239  485.6497
 240  509.0415
 241  575.0439
 242  678.6219
 243  725.0649
 244  828.7178
 245  809.1227
 246  778.0378
 247  744.7497
 248  571.7438
 249  490.8787
 250  456.3678
 251  453.3879
 252  443.5993
 253  512.3458
 254  670.3763
 255  603.9683
 256  542.5591
 257  554.7603
 258  790.4029
 259  992.2299
 260  1240.517
 261  1266.454
 262  1241.314
 263  965.5575
 264  761.7989
 265  642.9903
 266  638.4038
 267  678.06
 268  691.3167
 269  713.6562
 270  710.2601
 271  695.8818
 272  627.2125
 273  607.4246
 274  799.1971
 275  969.1563
 276  1084.896
 277  1185.552
 278  1278.491
 279  1134.028
 280  938.6234
 281  702.2304
 282  676.7266
 283  552.4435
 284  460.354
 285  360.6393
 286  386.0163
 287  402.7573
 288  436.842
 289  509.7208
 290  711.5958
 291  845.4541
 292  1096.196
 293  1133.473
 294  1173.099
 295  1095.394
 296  1025.752
 297  876.1295
 298  771.6229
 299  857.1436
 300  845.2671
 301  640.8952
 302  497.0491
 303  471.4039
 304  612.5618
 305  578.6737
 306  494.7727
 307  562.9032
 308  780.0762
 309  928.2051
 310  1014.645
 311  973.0359
 312  890.1957
 313  610.4353
 314  542.1272
 315  526.3558
 316  449.3648
 317  398.0941
 318  418.3221
 319  576.8863
 320  582.7118
 321  536.4503
 322  514.8083
 323  615.0823
 324  750.498
 325  884.8824
 326  1033.575
 327  1097.182
 328  945.4263
 329  782.5568
 330  692.3369
 331  726.5087
 332  681.9102
 333  717.85
 334  818.4302
 335  936.0908
 336  960.9251
 337  818.6273
 338  782.819
 339  697.8343
 340  672.9863
 341  784.4697
 342  948.586
 343  1063.634
 344  908.9111
 345  841.2935
 346  725.4028
 347  626.8363
 348  534.9623
 349  415.8062
 350  416.7262
 351  346.1758
 352  420.0828
 353  537.5934
 354  645.3417
 355  625.6868
 356  725.9855
 357  1000.103
 358  1242.183
 359  1267.604
 360  1151.852
 361  1000.065
 362  865.4866
 363  823.1691
 364  761.9382
 365  708.6344
 366  660.4341
 367  640.9536
 368  576.4493
 369  516.6906
 370  497.6184
 371  411.2897
 372  406.7699
 373  481.8967
 374  578.0483
 375  667.373
 376  779.433
 377  966.8351
 378  965.7842
 379  875.6558
 380  738.5613
 381  649.9182
 382  499.0892
 383  461.6407
 384  381.0804
 385  496.0784
 386  547.9912
 387  674.6253
 388  669.5565
 389  742.631
 390  928.5735
 391  1011.481
 392  1077.269
 393  1043.4
 394  993.913
 395  909.0607
 396  778.2444
 397  665.4639
 398  529.9319
 399  530.6064
 400  648.4202
 401  763.4906
 402  834.1845
 403  769.0839
 404  739.1932
 405  648.7498
 406  748.9053
 407  851.5366
 408  928.6652
 409  923.1906
 410  961.0787
 411  823.9868
 412  634.1682
 413  443.5732
 414  376.3165
 415  371.8129
 416  368.7982
 417  409.813
 418  267.9494
 419  195.5087
 420  335.2862
 421  527.6061
 422  783.533
 423  839.3477
 424  1018.58
 425  1131.647
 426  1187.214
 427  1097.484
 428  915.0311
 429  790.687
 430  854.8029
 431  757.2449
 432  845.7074
 433  726.7067
 434  713.6461
 435  669.6912
 436  636.4161
 437  580.2595
 438  456.127
 439  466.7474
 440  570.0403
 441  787.8835
 442  1000.337
 443  1103.223
 444  984.7552
 445  937.6641
 446  776.8937
 447  701.3976
 448  626.9864
 449  610.798
 450  617.3956
 451  439.0623
 452  402.153
 453  351.3026
 454  437.7131
 455  494.5424
 456  635.2169
 457  858.9524
 458  1039.771
 459  1118.38
 460  1148.594
 461  1037.615
 462  895.723
 463  767.1257
 464  588.7668
 465  513.5287
 466  571.0515
 467  668.2128
 468  710.4849
 469  642.8714
 470  486.2174
 471  328.1597
 472  354.6424
 473  553.6019
 474  753.2864
 475  891.4332
 476  813.6636
 477  718.7412
 478  648.0634
 479  571.3532
 480  524.3207
 481  417.5034
 482  411.0006
 483  432.3578
 484  563.9151
 485  617.9669
 486  648.0743
 487  671.9193
 488  690.8421
 489  807.7047
 490  986.1014
 491  1170.913
 492  1221.186
 493  1070.913
 494  1010.04
 495  830.4249
 496  634.2363
 497  398.644
 498  332.2729
 499  464.2761
 500  597.7741
 501  658.1075
 502  589.1279
 503  520.9481
 504  499.925
 505  555.5193
 506  652.8676
 507  770.7581
 508  980.3219
 509  1096.287
 510  1081.432
 511  819.7471
 512  691.5451
 513  571.1425
 514  582.8673
 515  520.5378
 516  507.7357
 517  364.6769
 518  317.3358
 519  382.5257
 520  525.6691
 521  622.8436
 522  704.696
 523  827.4075
 524  925.0175
 525  1001.593
 526  1034.496
 527  1039.875
 528  980.4645
 529  852.9929
 530  875.0507
 531  955.0279
 532  978.1494
 533  812.8126
 534  685.9355
 535  590.4105
 536  570.2078
 537  519.2895
 538  524.5423
 539  566.5858
 540  671.8831
 541  772.4118
 542  823.6132
 543  767.3369
 544  696.7982
 545  538.4982
 546  387.321
 547  365.6185
 548  431.7072
 549  410.1419
 550  350.3338
 551  472.5702
 552  640.6815
 553  751.6603
 554  888.6568
 555  1057.163
 556  1174.575
 557  1179.52
 558  1203.687
 559  1154.902
 560  1078.754
 561  1009.83
 562  913.8392
 563  708.8811
 564  549.2754
 565  466.8873
 566  605.1791
 567  652.5458
 568  679.5779
 569  642.5806
 570  663.9891
 571  653.0961
 572  739.6896
 573  756.822
 574  897.3552
 575  967.3551
 576  979.0276
 577  756.0289
 578  542.6273
 579  348.2335
 580  412.7132
 581  369.1691
 582  352.8234
 583  426.0499
 584  618.8076
 585  660.6501
 586  541.0685
 587  650.4388
 588  849.211
 589  1044.042
 590  1162.315
 591  1252.727
 592  1267.28
 593  1170.807
 594  998.8783
 595  777.4775
 596  726.7724
 597  842.7689
 598  941.0038
 599  953.5436
 600  790.106
 601  649.8892
 602  503.8746
 603  546.8987
 604  674.374
 605  877.22
 606  1185.828
 607  1282.608
 608  1410.536
 609  1432.138
 610  1553.925
 611  1450.606
 612  1393.6
 613  1338.541
 614  1397.894
 615  1414.844
 616  1280.353
 617  1132.574
 618  1094.534
 619  1111.466
 620  1178.259
 621  1132.555
 622  1188.774
 623  1222.093
 624  1287.943
 625  1205.637
 626  979.7718
 627  817.0451
 628  760.0457
 629  765.9846
 630  776.551
 631  686.1127
 632  649.229
 633  595.1493
 634  756.7662
 635  827.4966
 636  903.3044
 637  982.4058
 638  1020.258
 639  1053.74
 640  1070.29
 641  1013.376
 642  888.2568
 643  720.7224
 644  545.844
 645  407.8018
 646  231.2014
 647  297.4293
 648  356.8504
 649  517.7197
 650  364.6693
 651  342.4201
 652  411.9731
 653  722.3337
 654  911.7217
 655  991.6354
 656  1040.448
 657  1136.836
 658  1194.774
 659  1157.764
 660  1055.104
 661  922.5259
 662  832.0656
 663  683.3087
 664  776.7125
 665  697.9284
 666  608.7985
 667  531.4661
 668  423.2357
 669  542.0978
 670  610.3645
 671  807.9376
 672  947.6418
 673  1101.644
 674  1116.166
 675  910.1107
 676  708.6163
 677  579.5879
 678  526.3928
 679  499.8367
 680  534.9696
 681  454.5908
 682  499.7538
 683  546.5612
 684  646.5462
 685  565.4829
 686  615.9557
 687  755.9614
 688  960.746
 689  1074.374
 690  1192.608
 691  1075.392
 692  1001.87
 693  787.5044
 694  694.188
 695  613.8401
 696  597.0991
 697  612.1864
 698  637.6409
 699  698.0278
 700  731.8373
 701  647.144
 702  667.2116
 703  698.7158
 704  712.0366
 705  828.816
 706  831.2889
 707  854.949
 708  676.6213
 709  480.5623
 710  355.4525
 711  238.3821
 712  235.4843
 713  200.4617
 714  455.5294
 715  558.8522
 716  651.8205
 717  640.9589
 718  696.4873
 719  735.0666
 720  775.5214
 721  951.2952
 722  1089.302
 723  1213.981
 724  1208.318
 725  1156.283
 726  1006.879
 727  802.4641
 728  727.7361
 729  604.9457
 730  627.4861
 731  595.0436
 732  684.5261
 733  551.9899
 734  438.0346
 735  252.519
 736  294.2571
 737  511.0031
 738  894.5654
 739  1004.82
 740  1011.141
 741  882.7476
 742  935.0352
 743  865.7105
 744  679.2712
 745  509.323
 746  454.7802
 747  560.9011
 748  641.6982
 749  597.6639
 750  627.6607
 751  694.0391
 752  855.1442
 753  987.1166
 754  1050.143
 755  1137.175
 756  1176.931
 757  1191.759
 758  1212.272
 759  1038.222
 760  952.9678
 761  821.9014
 762  739.0084
 763  684.3418
 764  715.5466
 765  862.2946
 766  859.7662
 767  811.6476
 768  799.4459
 769  818.9233
 770  934.3939
 771  1001.624
 772  1169.606
 773  1143.245
 774  1044.556
 775  902.0601
 776  724.377
 777  583.4616
 778  518.2604
 779  478.4495
 780  533.0496
 781  495.4138
 782  611.8094
 783  593.6064
 784  588.1982
 785  663.4996
 786  893.1375
 787  1116.153
 788  1255.109
 789  1280.524
 790  1235.989
 791  1026.709
 792  864.9457
 793  732.3751
 794  620.1006
 795  603.0569
 796  604.0081
 797  694.6271
 798  597.0799
 799  536.1769
 800  477.4972
 801  460.986
 802  539.5266
 803  675.2712
 804  770.8243
 805  842.3139
 806  1019.368
 807  1084.744
 808  884.6078
 809  596.4375
 810  567.2512
 811  555.7417
 812  580.9328
 813  536.1434
 814  557.5063
 815  497.5619
 816  492.743
 817  545.3621
 818  705.9614
 819  849.0669
 820  970.067
 821  1124.536
 822  1150.974
 823  1143.663
 824  1032.682
 825  1037.493
 826  924.3955
 827  879.366
 828  854.8727
 829  812.2043
 830  820.8356
 831  793.4274
 832  852.2725
 833  742.8929
 834  749.3615
 835  746.4681
 836  744.0025
 837  788.5482
 838  797.6391
 839  866.6849
 840  762.5147
 841  563.4591
 842  405.4651
 843  472.1495
 844  470.4169
 845  518.0846
 846  538.012
 847  605.1837
 848  647.3431
 849  680.1921
 850  656.6181
 851  618.1245
 852  705.3071
 853  906.5391
 854  1051.195
 855  1148.869
 856  1120.115
 857  993.8553
 858  913.2285
 859  764.8906
 860  746.9266
 861  619.3117
 862  596.2228
 863  587.8691
 864  582.2885
 865  722.2158
 866  687.923
 867  676.9888
 868  516.5268
 869  584.5281
 870  869.4052
 871  1093.073
 872  1120.916
 873  1046.947
 874  848.2115
 875  665.1862
 876  473.9582
 877  395.3119
 878  404.0834
 879  384.789
 880  556.4484
 881  551.7381
 882  636.6631
 883  609.5215
 884  591.1359
 885  724.3557
 886  854.83
 887  972.0156
 888  1115.312
 889  1087.334
 890  1071.757
 891  979.6586
 892  844.4708
 893  594.9172
 894  348.9194
 895  427.908
 896  551.5002
 897  521.5786
 898  516.3586
 899  464.399
 900  506.2322
 901  556.4828
 902  714.8107
 903  846.5455
 904  785.7811
 905  726.6805
 906  770.2408
 907  666.7473
 908  571.4212
 909  389.9058
 910  339.5432
 911  218.9635
 912  173.4429
 913  398.3014
 914  540.814
 915  639.9016
 916  630.8889
 917  699.1309
 918  867.7173
 919  951.8951
 920  978.6628
 921  971.4337
 922  900.8015
 923  917.0114
 924  837
 925  742.7234
 926  628.1573
 927  565.1407
 928  637.3243
 929  573.7097
 930  582.3643
 931  530.2627
 932  625.2554
 933  641.7709
 934  620.8257
 935  796.0433
 936  1034.225
 937  1099.503
 938  1023.285
 939  833.1801
 940  729.1296
 941  489.3578
 942  374.2979
 943  388.3914
 944  436.8603
 945  535.8726
 946  537.9946
 947  533.304
 948  478.4138
 949  508.9892
 950  686.2141
 951  880.4338
 952  1017.772
 953  1130.597
 954  1158.02
 955  1135.806
 956  1019.379
 957  894.7713
 958  872.1341
 959  793.9905
 960  709.5922
 961  648.6293
 962  752.8071
 963  830.0467
 964  769.9172
 965  684.7054
 966  594.2444
 967  529.4811
 968  535.6282
 969  617.9113
 970  694.2719
 971  682.8675
 972  631.8248
 973  583.2752
 974  607.0452
 975  589.0636
 976  554.2929
 977  483.2784
 978  531.0075
 979  624.6514
 980  726.3696
 981  712.1172
 982  764.9813
 983  754.5923
 984  914.4703
 985  957.1873
 986  1143.786
 987  1191.556
 988  1251.693
 989  1052.778
 990  919.7915
 991  796.1626
 992  774.0822
 993  741.8424
 994  843.3356
 995  929.9108
 996  920.2589
 997  782.3514
 998  688.3901
 999  632.6108
1000  750.7064
1001  812.7051
1002  824.6039
1003  843.1837
1004  872.5961
1005  875.518
1006  818.3681
1007  647.2458
1008  572.6602
1009  424.3475
1010  421.0746
1011  303.8811
1012  270.8931
1013  345.314
1014  436.1012
1015  572.726
1016  719.7299
1017  836.7043
1018  997.1146
1019  1084.474
1020  1194.143
1021  1161.176
1022  1001.477
1023  940.9242
