# Input file       =  1202725192.1155_cleaned.dat
# Candidate        =  PSR_0332+5434
# Telescope        =  AR
# Epoch_topo       =  58164.430684207175
# Epoch_bary       =  N/A
# T_sample         =  0.002
# Data Folded      =  7208960
# Data Avg         =  -0.0622853390352595
# Data StdDev      =  1.00012976451481 
# Profile Bins     =  512
# Profile Avg      =  -877.000261600914
# Profile StdDev   =  118.674573543905 
# Reduced chi-sqr  =  1.001
# Prob(Noise)      <  0.485   (~0.0 sigma)
# P_topo (ms)      =  714.580061032476  +/- 0.000372
# P'_topo (s/s)    =  -0                +/- 2e-10
# P''_topo (s/s^2) =  0                 +/- 8.99e-14
# P_bary (ms)      =  N/A
# P'_bary (s/s)    =  N/A
# P''_bary (s/s^2) =  N/A
# P_orb (s)        =  N/A
# asin(i)/c (s)    =  N/A
# eccentricity     =  N/A
# w (rad)          =  N/A
# T_peri           =  N/A
######################################################
   0  -231.3218
   1  -316.5846
   2  -484.7669
   3  -672.2009
   4  -811.7424
   5  -881.0315
   6  -806.9727
   7  -829.8463
   8  -852.3382
   9  -852.4629
  10  -837.7186
  11  -791.0874
  12  -790.1764
  13  -864.2543
  14  -930.8759
  15  -872.9993
  16  -863.0709
  17  -977.8877
  18  -985.4374
  19  -912.243
  20  -794.7144
  21  -813.7444
  22  -893.7359
  23  -905.5603
  24  -949.0089
  25  -944.3703
  26  -871.2809
  27  -916.5808
  28  -893.7217
  29  -945.8742
  30  -1018.35
  31  -915.9746
  32  -911.5923
  33  -939.6158
  34  -910.2725
  35  -900.5525
  36  -817.3102
  37  -907.4726
  38  -943.974
  39  -882.1909
  40  -881.5458
  41  -825.0284
  42  -843.7208
  43  -951.9964
  44  -910.566
  45  -869.3011
  46  -842.7843
  47  -913.6321
  48  -823.9505
  49  -834.9075
  50  -954.478
  51  -1029.277
  52  -955.2901
  53  -894.0684
  54  -872.0226
  55  -868.1276
  56  -917.5563
  57  -870.1573
  58  -821.4722
  59  -754.4637
  60  -818.7285
  61  -924.117
  62  -916.7636
  63  -885.9634
  64  -927.9199
  65  -940.5841
  66  -769.6125
  67  -777.6154
  68  -867.928
  69  -792.1707
  70  -853.2475
  71  -948.1498
  72  -827.2259
  73  -838.6721
  74  -853.6169
  75  -960.3951
  76  -998.6334
  77  -931.2336
  78  -871.0383
  79  -795.4663
  80  -820.7182
  81  -874.7357
  82  -796.923
  83  -841.5406
  84  -959.7766
  85  -856.3569
  86  -877.6422
  87  -782.4003
  88  -880.8081
  89  -873.9924
  90  -842.4269
  91  -828.8054
  92  -765.8946
  93  -844.2003
  94  -885.5629
  95  -797.2878
  96  -849.071
  97  -990.9448
  98  -970.1727
  99  -892.199
 100  -920.9591
 101  -964.0733
 102  -869.3458
 103  -917.0465
 104  -1015.348
 105  -873.0602
 106  -790.5474
 107  -824.9789
 108  -853.1182
 109  -834.8691
 110  -817.2252
 111  -942.481
 112  -950.4067
 113  -890.7012
 114  -959.8784
 115  -963.1676
 116  -899.5597
 117  -918.3274
 118  -919.6845
 119  -915.6208
 120  -781.03
 121  -855.9363
 122  -850.3123
 123  -866.8088
 124  -913.4126
 125  -835.3512
 126  -847.2929
 127  -807.7809
 128  -910.5576
 129  -838.2135
 130  -811.0755
 131  -869.3714
 132  -976.2852
 133  -970.5336
 134  -796.525
 135  -764.8199
 136  -891.2056
 137  -937.9537
 138  -895.4919
 139  -809.9399
 140  -837.8022
 141  -944.8828
 142  -875.8918
 143  -829.2705
 144  -816.5529
 145  -743.5548
 146  -778.9602
 147  -819.6484
 148  -823.6432
 149  -744.6979
 150  -815.3342
 151  -810.7458
 152  -905.2405
 153  -843.2422
 154  -945.2166
 155  -872.4754
 156  -844.0929
 157  -872.4531
 158  -824.6654
 159  -803.8869
 160  -821.1258
 161  -841.1906
 162  -820.5796
 163  -898.6017
 164  -937.0322
 165  -834.6199
 166  -705.6368
 167  -806.2617
 168  -938.6523
 169  -908.9437
 170  -832.668
 171  -785.9206
 172  -979.6667
 173  -1025.743
 174  -836.4108
 175  -861.0986
 176  -808.8414
 177  -763.3412
 178  -795.4719
 179  -800.9244
 180  -893.8073
 181  -924.6296
 182  -907.6523
 183  -846.306
 184  -767.0239
 185  -768.4951
 186  -991.3977
 187  -1009.162
 188  -974.6266
 189  -964.9231
 190  -929.5359
 191  -841.7
 192  -846.7145
 193  -823.8959
 194  -823.6838
 195  -777.1044
 196  -825.6423
 197  -861.1321
 198  -882.8328
 199  -937.702
 200  -833.3451
 201  -798.1799
 202  -718.1824
 203  -723.4612
 204  -866.108
 205  -917.3907
 206  -849.905
 207  -829.4902
 208  -918.7676
 209  -918.7125
 210  -879.3193
 211  -897.602
 212  -776.3176
 213  -744.4644
 214  -847.1058
 215  -853.8004
 216  -1048.628
 217  -1024.51
 218  -925.0408
 219  -888.6812
 220  -971.1953
 221  -933.8399
 222  -891.8907
 223  -974.8503
 224  -1062.64
 225  -861.8963
 226  -864.4408
 227  -889.106
 228  -845.893
 229  -888.7853
 230  -873.7507
 231  -878.1096
 232  -859.3828
 233  -880.9128
 234  -814.3517
 235  -934.9188
 236  -948.0697
 237  -930.6483
 238  -818.692
 239  -900.1732
 240  -913.8934
 241  -815.0433
 242  -817.5502
 243  -778.7942
 244  -788.8715
 245  -875.8779
 246  -858.2926
 247  -751.3036
 248  -839.0784
 249  -818.7172
 250  -922.4941
 251  -844.1905
 252  -866.2369
 253  -916.377
 254  -903.1231
 255  -949.9589
 256  -917.2402
 257  -968.4013
 258  -1013.249
 259  -924.8718
 260  -839.9952
 261  -859.4977
 262  -835.7745
 263  -832.3475
 264  -873.491
 265  -920.6508
 266  -949.9735
 267  -940.8273
 268  -860.2335
 269  -878.7316
 270  -896.1276
 271  -932.8448
 272  -917.3844
 273  -795.9669
 274  -939.5735
 275  -929.3477
 276  -791.5071
 277  -781.4464
 278  -838.8389
 279  -793.7839
 280  -849.8259
 281  -982.3933
 282  -1009.505
 283  -945.5422
 284  -944.0761
 285  -1004.31
 286  -982.3026
 287  -966.8134
 288  -829.8506
 289  -886.9133
 290  -859.0913
 291  -933.8875
 292  -949.0376
 293  -987.7563
 294  -1035.86
 295  -840.0315
 296  -833.5275
 297  -986.5235
 298  -967.4211
 299  -865.6524
 300  -870.8989
 301  -940.0712
 302  -946.3914
 303  -932.7546
 304  -991.6187
 305  -834.5477
 306  -824.6651
 307  -915.286
 308  -926.0297
 309  -868.5822
 310  -864.17
 311  -992.9696
 312  -952.0845
 313  -801.2911
 314  -858.4269
 315  -875.2869
 316  -906.261
 317  -933.7458
 318  -888.9343
 319  -839.4078
 320  -799.6213
 321  -920.8411
 322  -1029.31
 323  -927.343
 324  -983.0413
 325  -926.0342
 326  -874.5593
 327  -855.8527
 328  -891.4389
 329  -898.8986
 330  -955.7196
 331  -899.5256
 332  -879.7668
 333  -942.9351
 334  -901.9592
 335  -795.5626
 336  -714.3649
 337  -831.822
 338  -881.087
 339  -936.2521
 340  -943.7293
 341  -836.4968
 342  -891.7762
 343  -924.0168
 344  -906.4266
 345  -824.0505
 346  -855.5831
 347  -991.9775
 348  -954.0363
 349  -856.0836
 350  -872.1285
 351  -920.9518
 352  -927.299
 353  -885.6136
 354  -847.7312
 355  -894.4182
 356  -979.4616
 357  -837.7134
 358  -880.2882
 359  -884.9861
 360  -923.1691
 361  -979.0944
 362  -949.3936
 363  -865.614
 364  -836.3748
 365  -901.7236
 366  -975.8491
 367  -931.4536
 368  -901.1722
 369  -949.3863
 370  -936.1646
 371  -909.6164
 372  -974.2834
 373  -940.2836
 374  -855.9576
 375  -699.6319
 376  -763.8992
 377  -927.9211
 378  -920.7628
 379  -905.5677
 380  -848.2694
 381  -706.0792
 382  -806.8813
 383  -868.2534
 384  -968.5275
 385  -830.1237
 386  -754.0131
 387  -845.1516
 388  -927.9243
 389  -961.5585
 390  -911.1303
 391  -900.8705
 392  -885.8556
 393  -867.2178
 394  -909.5245
 395  -875.6991
 396  -776.8092
 397  -846.6898
 398  -902.0647
 399  -897.3827
 400  -882.7498
 401  -941.5916
 402  -1001.199
 403  -947.4452
 404  -1053.947
 405  -954.847
 406  -902.2398
 407  -989.9927
 408  -898.1818
 409  -845.4763
 410  -785.9366
 411  -880.2983
 412  -978.7767
 413  -892.0493
 414  -958.6586
 415  -927.9747
 416  -934.4662
 417  -852.9965
 418  -846.0282
 419  -947.6471
 420  -882.3324
 421  -787.3301
 422  -858.7816
 423  -865.2304
 424  -932.1471
 425  -902.4733
 426  -961.4943
 427  -858.1498
 428  -897.5648
 429  -963.7532
 430  -944.9844
 431  -860.6619
 432  -840.0574
 433  -789.3172
 434  -834.7949
 435  -926.1737
 436  -911.5028
 437  -935.5906
 438  -974.1909
 439  -980.8763
 440  -1066.561
 441  -1042.727
 442  -839.3749
 443  -832.6641
 444  -871.0264
 445  -921.0162
 446  -847.4637
 447  -925.5859
 448  -901.0931
 449  -787.072
 450  -804.199
 451  -830.3602
 452  -945.7167
 453  -838.2828
 454  -946.6556
 455  -946.9937
 456  -833.905
 457  -841.1071
 458  -902.0657
 459  -844.2666
 460  -762.0099
 461  -821.1896
 462  -875.8527
 463  -884.132
 464  -896.0095
 465  -902.8452
 466  -876.4054
 467  -913.3578
 468  -959.108
 469  -833.385
 470  -859.2332
 471  -933.2985
 472  -894.9033
 473  -906.5939
 474  -893.155
 475  -910.593
 476  -913.8629
 477  -927.1652
 478  -978.7589
 479  -892.6976
 480  -907.5948
 481  -850.2368
 482  -843.5583
 483  -830.7476
 484  -904.1271
 485  -964.119
 486  -914.4954
 487  -904.8253
 488  -883.3249
 489  -924.6198
 490  -887.5569
 491  -871.4516
 492  -910.8514
 493  -804.3339
 494  -873.1006
 495  -918.6987
 496  -907.367
 497  -835.5028
 498  -788.6035
 499  -853.675
 500  -917.6887
 501  -907.1978
 502  -975.6988
 503  -877.8248
 504  -890.6313
 505  -913.081
 506  -875.6474
 507  -783.321
 508  -613.7025
 509  -526.7742
 510  -420.6426
 511  -285.214
