# Input file       =  1202035820.10998_cleaned.dat
# Candidate        =  PSR_0332+5434
# Telescope        =  AR
# Epoch_topo       =  58156.451841550697
# Epoch_bary       =  N/A
# T_sample         =  0.002
# Data Folded      =  7405568
# Data Avg         =  0.0913689888671733
# Data StdDev      =  5.02821710885036 
# Profile Bins     =  512
# Profile Avg      =  1321.55561193985 
# Profile StdDev   =  604.725424417222 
# Reduced chi-sqr  =  0.784
# Prob(Noise)      <  1   (~0.0 sigma)
# P_topo (ms)      =  714.578201665172  +/- 5e-05
# P'_topo (s/s)    =  -0                +/- 2.61e-11
# P''_topo (s/s^2) =  0                 +/- 1.14e-14
# P_bary (ms)      =  N/A
# P'_bary (s/s)    =  N/A
# P''_bary (s/s^2) =  N/A
# P_orb (s)        =  N/A
# asin(i)/c (s)    =  N/A
# eccentricity     =  N/A
# w (rad)          =  N/A
# T_peri           =  N/A
######################################################
   0  1128.063
   1  1016.939
   2  871.9012
   3  861.8213
   4  933.451
   5  1573.518
   6  1711.937
   7  1603.084
   8  1068.806
   9  851.6957
  10  836.8307
  11  833.7371
  12  1389.726
  13  1313.031
  14  1891.792
  15  1701.851
  16  1136.194
  17  1472.249
  18  1586.734
  19  1620.401
  20  1387.299
  21  1513.27
  22  1229.865
  23  987.5709
  24  866.5502
  25  985.3529
  26  1175.306
  27  855.6715
  28  887.3271
  29  1122.631
  30  1592.621
  31  1771.977
  32  1654.287
  33  1366.749
  34  997.5067
  35  803.8083
  36  760.9185
  37  1238.057
  38  1674.77
  39  1757.662
  40  1511.418
  41  1272.748
  42  719.2347
  43  483.557
  44  901.9046
  45  980.9962
  46  1163.796
  47  1691.186
  48  1784.75
  49  1196.574
  50  1128.091
  51  1155.211
  52  832.9846
  53  782.574
  54  975.8961
  55  1080.547
  56  1479.566
  57  1242.507
  58  1289.191
  59  1327.621
  60  1218.152
  61  1419.563
  62  1792.503
  63  1733.643
  64  1952.694
  65  1721.633
  66  1524.216
  67  1221.828
  68  1482.479
  69  1442.925
  70  1302.953
  71  1402.405
  72  1623.052
  73  1220.232
  74  858.348
  75  1018.592
  76  1168.967
  77  1012.078
  78  1118.295
  79  1684.127
  80  1733.206
  81  1657.113
  82  1718.395
  83  1777.643
  84  1687.825
  85  1326.349
  86  1345.421
  87  979.9073
  88  1510.002
  89  1672.854
  90  1525.256
  91  1309.391
  92  1460.004
  93  1334.446
  94  1399.593
  95  1503.708
  96  1878.514
  97  1945.057
  98  1621.642
  99  1315.241
 100  1253.424
 101  1184.8
 102  1069.605
 103  1087.826
 104  1629.676
 105  1613.327
 106  1201.736
 107  779.3198
 108  787.249
 109  733.5753
 110  953.1212
 111  847.3672
 112  1045.144
 113  1264.729
 114  1347.315
 115  1335.567
 116  1657.107
 117  1302.979
 118  1190.129
 119  1438.962
 120  1105.337
 121  1582.585
 122  1715.733
 123  1241.943
 124  1338.415
 125  1425.798
 126  1245.4
 127  1199.434
 128  1570.109
 129  1323.917
 130  1422.444
 131  1554.112
 132  1033.603
 133  1019.089
 134  1264.826
 135  1183.032
 136  988.1379
 137  1410.15
 138  1427.245
 139  791.2971
 140  944.5123
 141  982.2522
 142  905.9692
 143  1100.786
 144  1229.666
 145  1340.145
 146  1659.458
 147  1511.643
 148  1331.062
 149  1133.692
 150  1060.467
 151  804.0513
 152  553.8211
 153  883.9897
 154  1345.511
 155  1996.144
 156  1700.597
 157  1043.5
 158  884.8866
 159  470.0862
 160  840.5151
 161  1271.191
 162  1579.742
 163  1653.699
 164  1307.547
 165  1118.819
 166  1080.417
 167  1149.482
 168  1402.862
 169  1395.606
 170  1289.411
 171  1275.025
 172  1016.339
 173  517.6667
 174  1043.2
 175  1351.811
 176  981.0546
 177  1078.817
 178  1500.475
 179  1731.442
 180  1651.029
 181  1545.412
 182  1276.713
 183  759.2286
 184  1024.437
 185  699.3631
 186  1079.489
 187  2058.132
 188  1811.497
 189  1589.953
 190  1308.89
 191  1083.065
 192  1054.826
 193  878.2845
 194  1126.846
 195  1465.053
 196  1529.615
 197  1477.546
 198  1025.663
 199  1291.321
 200  1344.589
 201  975.9484
 202  1119.278
 203  1263.386
 204  1368.641
 205  1398.934
 206  1216.41
 207  1067.82
 208  1096.601
 209  1003.417
 210  1272.915
 211  1536.75
 212  2033.234
 213  2225.467
 214  1701.665
 215  1291.87
 216  1078.088
 217  1302.927
 218  1216.223
 219  1421.332
 220  1554.585
 221  2140.87
 222  1286.08
 223  766.9572
 224  576.8619
 225  955.8305
 226  784.3436
 227  1180.917
 228  1388.223
 229  1580.411
 230  1448.775
 231  1493.379
 232  1272.17
 233  1342.541
 234  840.6982
 235  496.9425
 236  820.2134
 237  1146.354
 238  786.1647
 239  896.7659
 240  1248.435
 241  910.8066
 242  837.7469
 243  985.8985
 244  1514.952
 245  1919.937
 246  1689.226
 247  1403.994
 248  935.0396
 249  854.5252
 250  1108.649
 251  1067.155
 252  1108.97
 253  1965.099
 254  1939.061
 255  1016.823
 256  707.5979
 257  928.636
 258  691.0616
 259  742.9947
 260  1099.776
 261  1283.005
 262  1116.219
 263  1539.082
 264  1818.159
 265  1489.151
 266  1044.51
 267  992.4153
 268  754.3906
 269  1152.754
 270  1500.835
 271  1648.134
 272  1123.577
 273  1485.356
 274  1444.095
 275  1291.457
 276  1633.647
 277  1652.317
 278  1644.698
 279  1792.991
 280  1570.842
 281  1105.471
 282  981.7789
 283  1310.724
 284  1484.392
 285  1279.592
 286  1756.074
 287  2070.11
 288  1528.803
 289  1208.53
 290  943.6136
 291  979.9872
 292  1172.702
 293  1279.471
 294  1602.653
 295  1589.075
 296  1667.68
 297  1768.922
 298  1724.568
 299  1705.393
 300  1708.611
 301  1349.172
 302  1193.75
 303  2040.707
 304  2653.106
 305  2655.642
 306  2952.106
 307  3092.356
 308  2950.013
 309  2622.962
 310  2362.478
 311  2172.028
 312  1801.047
 313  1269.504
 314  1310.116
 315  1424.256
 316  1480.388
 317  1282.772
 318  1639.922
 319  2064.773
 320  1870.093
 321  1604.99
 322  1416.324
 323  1149.804
 324  1303.806
 325  1305.402
 326  1636.806
 327  1694.053
 328  1974.23
 329  1928.6
 330  1730.064
 331  898.9322
 332  1125.45
 333  715.8041
 334  554.4521
 335  1130.98
 336  1917.904
 337  1750.999
 338  1401.115
 339  851.2184
 340  1013.415
 341  923.7502
 342  925.2742
 343  987.6614
 344  1456.786
 345  1834.484
 346  1523.131
 347  1239.156
 348  1389.507
 349  1286.286
 350  1028.514
 351  1004.712
 352  1398.642
 353  1499.711
 354  1223.309
 355  888.6811
 356  1033.752
 357  827.1285
 358  449.2494
 359  676.2507
 360  1248.763
 361  1574.742
 362  1923.645
 363  1447.459
 364  1224.869
 365  643.5704
 366  727.9282
 367  981.9656
 368  1275.331
 369  1692.056
 370  1567.842
 371  1071.114
 372  1138.862
 373  947.1184
 374  703.484
 375  608.706
 376  1234.332
 377  1778.639
 378  1524.181
 379  773.8141
 380  1135.073
 381  1492.378
 382  1452.3
 383  758.7155
 384  1053.515
 385  789.4908
 386  1008.423
 387  709.5997
 388  1145.45
 389  1273.519
 390  1272.119
 391  1260.834
 392  1327.532
 393  1670.062
 394  1656.165
 395  1442.167
 396  1536.625
 397  1096.413
 398  902.2794
 399  994.4512
 400  1051.851
 401  1400.833
 402  1749.337
 403  1841.422
 404  1300.222
 405  865.6935
 406  964.1792
 407  855.7187
 408  996.7498
 409  1416.576
 410  1958.688
 411  1706.538
 412  988.6663
 413  1268.892
 414  1368.148
 415  1098.144
 416  1327.588
 417  1323.309
 418  1247.6
 419  1325.024
 420  1233.885
 421  1225.252
 422  1357.684
 423  1336.465
 424  1367.094
 425  1522.376
 426  1705.695
 427  1761.639
 428  1334.313
 429  1410.026
 430  1097.831
 431  713.5328
 432  1032.869
 433  1328.123
 434  2038.837
 435  2320.474
 436  2066.434
 437  1374.816
 438  1046.94
 439  772.6387
 440  1025.726
 441  1382.463
 442  1544.514
 443  2019.522
 444  1607.613
 445  1773.173
 446  1758.501
 447  1220.373
 448  1422.754
 449  1277.688
 450  1343.878
 451  1258.49
 452  1501.068
 453  1803.227
 454  1326.603
 455  1661.046
 456  1436.133
 457  1458.204
 458  1659.362
 459  1689.645
 460  1854.812
 461  1717.646
 462  1421.689
 463  1337.684
 464  1617.219
 465  1519.551
 466  1316.896
 467  1765.35
 468  1902.245
 469  1506.967
 470  1036.832
 471  580.8508
 472  1003.237
 473  1561.799
 474  1515.255
 475  1578.735
 476  1808.488
 477  1642.013
 478  1563.379
 479  1481.064
 480  1184.253
 481  890.2115
 482  589.4415
 483  862.6881
 484  1267.055
 485  1922.867
 486  1631.101
 487  1208.855
 488  886.8318
 489  1020.759
 490  435.0603
 491  797.4517
 492  1697.744
 493  1539.35
 494  1742.983
 495  1374.142
 496  935.0092
 497  1578.768
 498  1497.049
 499  1652.496
 500  1345.476
 501  1822.829
 502  1544.432
 503  921.7094
 504  847.5305
 505  1111.752
 506  1043.18
 507  856.8503
 508  1323.776
 509  1370.04
 510  1685.865
 511  1452.458
