# Input file       =  1202395033.118852_cleaned.dat
# Candidate        =  PSR_0332+5434
# Telescope        =  AR
# Epoch_topo       =  58160.609399523746
# Epoch_bary       =  N/A
# T_sample         =  0.002
# Data Folded      =  7340032
# Data Avg         =  0.0424869302110841
# Data StdDev      =  1.00009295069038 
# Profile Bins     =  512
# Profile Avg      =  609.137666805184 
# Profile StdDev   =  119.744165645159 
# Reduced chi-sqr  =  1.126
# Prob(Noise)      <  0.0249   (~2.0 sigma)
# P_topo (ms)      =  714.579334308242  +/- 0.000456
# P'_topo (s/s)    =  -0                +/- 2.41e-10
# P''_topo (s/s^2) =  0                 +/- 1.06e-13
# P_bary (ms)      =  N/A
# P'_bary (s/s)    =  N/A
# P''_bary (s/s^2) =  N/A
# P_orb (s)        =  N/A
# asin(i)/c (s)    =  N/A
# eccentricity     =  N/A
# w (rad)          =  N/A
# T_peri           =  N/A
######################################################
   0  709.1207
   1  743.6387
   2  632.6143
   3  623.1993
   4  606.4736
   5  630.7048
   6  667.919
   7  540.951
   8  518.0878
   9  555.6415
  10  577.6861
  11  619.7677
  12  556.4595
  13  568.9318
  14  621.4535
  15  651.8907
  16  580.3083
  17  517.0073
  18  578.175
  19  663.7429
  20  631.6087
  21  578.6487
  22  545.6155
  23  490.656
  24  475.3946
  25  546.9331
  26  553.4265
  27  562.6412
  28  543.3657
  29  572.2729
  30  455.4485
  31  454.3166
  32  498.257
  33  545.2986
  34  522.3672
  35  484.547
  36  493.5467
  37  575.3179
  38  563.0421
  39  424.4374
  40  451.1716
  41  488.0739
  42  530.2007
  43  546.7324
  44  606.9958
  45  578.5214
  46  577.8911
  47  572.5803
  48  603.8588
  49  532.2903
  50  612.0909
  51  713.9331
  52  727.1034
  53  777.3477
  54  751.6238
  55  699.0945
  56  600.4566
  57  617.974
  58  655.9881
  59  697.5981
  60  649.1168
  61  648.2019
  62  681.4279
  63  576.8248
  64  539.4686
  65  629.7988
  66  633.0491
  67  578.8747
  68  537.2405
  69  707.5643
  70  687.0639
  71  594.491
  72  630.1721
  73  629.1891
  74  577.2543
  75  540.128
  76  575.3933
  77  591.9667
  78  609.3841
  79  543.9943
  80  502.0065
  81  594.3253
  82  646.7151
  83  559.0676
  84  557.0742
  85  618.8388
  86  622.452
  87  555.9337
  88  665.3616
  89  594.313
  90  458.6892
  91  543.5242
  92  541.322
  93  588.6463
  94  658.9843
  95  691.2783
  96  654.8249
  97  672.3826
  98  660.2477
  99  617.3217
 100  697.9752
 101  696.9009
 102  627.192
 103  599.1095
 104  641.7864
 105  614.1703
 106  640.1295
 107  647.2385
 108  627.774
 109  664.9697
 110  637.6497
 111  587.3741
 112  731.1946
 113  628.3259
 114  603.0404
 115  621.879
 116  690.8356
 117  643.4527
 118  640.6115
 119  621.6547
 120  611.1343
 121  632.2304
 122  645.8028
 123  559.0673
 124  512.9643
 125  581.303
 126  494.6471
 127  542.1442
 128  638.8176
 129  562.7667
 130  453.1833
 131  578.5627
 132  599.3735
 133  553.6243
 134  572.1493
 135  615.4412
 136  655.3959
 137  650.5915
 138  651.1891
 139  556.553
 140  596.4991
 141  653.8645
 142  598.8192
 143  617.3444
 144  644.1632
 145  581.5257
 146  585.8
 147  664.1222
 148  490.8743
 149  321.8986
 150  471.2801
 151  531.6222
 152  563.2554
 153  520.7213
 154  461.7734
 155  493.2035
 156  467.7784
 157  514.1735
 158  558.3445
 159  556.871
 160  412.8439
 161  522.0233
 162  605.2266
 163  440.4825
 164  436.2665
 165  525.3062
 166  639.6433
 167  582.9122
 168  597.5833
 169  580.5545
 170  652.4428
 171  630.1145
 172  572.4527
 173  536.9642
 174  504.0464
 175  588.6807
 176  581.067
 177  689.5621
 178  749.5334
 179  672.592
 180  686.6682
 181  748.8492
 182  793.4054
 183  676.0502
 184  730.1762
 185  887.6584
 186  1025.669
 187  1140.434
 188  1197.259
 189  1100.18
 190  967.8591
 191  832.9503
 192  791.4934
 193  778.9354
 194  799.3503
 195  718.7696
 196  588.3006
 197  677.129
 198  663.5089
 199  695.7526
 200  639.6948
 201  555.8447
 202  640.2286
 203  670.7129
 204  683.2997
 205  646.3997
 206  578.3539
 207  561.9085
 208  557.4231
 209  633.6516
 210  590.4476
 211  464.6956
 212  485.4498
 213  524.7173
 214  633.4006
 215  539.5774
 216  536.509
 217  614.4466
 218  701.9439
 219  614.011
 220  533.9358
 221  500.1748
 222  608.8374
 223  610.4396
 224  578.5396
 225  613.6243
 226  563.351
 227  553.2217
 228  530.6021
 229  604.9632
 230  656.4867
 231  594.3079
 232  638.4297
 233  654.7684
 234  695.129
 235  655.4984
 236  613.566
 237  608.9006
 238  549.3492
 239  671.4759
 240  680.882
 241  607.4894
 242  571.6837
 243  486.8633
 244  467.6333
 245  554.7697
 246  521.6899
 247  569.6357
 248  528.9879
 249  566.954
 250  475.1647
 251  484.4495
 252  511.9982
 253  599.1739
 254  523.9863
 255  516.3837
 256  519.3591
 257  496.899
 258  478.6449
 259  585.8308
 260  625.5776
 261  661.4054
 262  639.6843
 263  667.154
 264  734.0124
 265  631.7689
 266  612.2999
 267  659.5378
 268  649.8057
 269  688.3201
 270  667.433
 271  660.3846
 272  695.7074
 273  696.9706
 274  714.5403
 275  712.585
 276  676.6148
 277  772.868
 278  791.6866
 279  697.4558
 280  742.3226
 281  662.0932
 282  653.3426
 283  654.7579
 284  669.8098
 285  628.0471
 286  559.0395
 287  544.4612
 288  606.1634
 289  551.1807
 290  688.7258
 291  849.7161
 292  707.971
 293  639.0334
 294  648.4572
 295  554.3148
 296  642.6005
 297  714.6722
 298  671.074
 299  656.3135
 300  591.8708
 301  512.2673
 302  396.6554
 303  543.7184
 304  753.6031
 305  664.5068
 306  610.5176
 307  610.2867
 308  516.5643
 309  530.7683
 310  519.6135
 311  512.8274
 312  474.5898
 313  525.9263
 314  508.2874
 315  544.8112
 316  608.0449
 317  677.0638
 318  714.4396
 319  661.3434
 320  533.3279
 321  556.7203
 322  501.1959
 323  540.1412
 324  627.6321
 325  656.8813
 326  583.737
 327  591.3002
 328  618.2147
 329  549.576
 330  643.532
 331  736.6463
 332  740.3492
 333  559.5066
 334  558.5984
 335  604.2925
 336  624.4204
 337  573.8435
 338  599.5427
 339  494.0426
 340  478.7296
 341  574.469
 342  600.7667
 343  490.5742
 344  376.318
 345  492.0498
 346  529.813
 347  621.0239
 348  510.4557
 349  556.2292
 350  538.0476
 351  525.3187
 352  514.0222
 353  484.4154
 354  476.2956
 355  511.4955
 356  544.54
 357  620.9031
 358  631.0117
 359  634.929
 360  550.2169
 361  548.6871
 362  578.9139
 363  654.9971
 364  647.0066
 365  545.2561
 366  553.9219
 367  616.937
 368  498.4089
 369  402.0423
 370  487.7763
 371  462.9384
 372  442.0294
 373  543.4917
 374  570.2618
 375  641.7438
 376  560.7966
 377  653.9585
 378  574.8954
 379  415.4139
 380  535.6746
 381  541.3607
 382  568.7515
 383  578.3355
 384  548.4679
 385  567.3214
 386  536.1492
 387  533.4505
 388  487.0377
 389  607.1288
 390  621.8623
 391  537.4026
 392  559.4055
 393  695.2576
 394  602.1984
 395  670.6036
 396  604.6878
 397  543.5931
 398  625.0015
 399  713.6298
 400  674.3701
 401  638.152
 402  657.5822
 403  618.715
 404  677.7136
 405  780.1412
 406  734.1828
 407  547.1507
 408  587.7955
 409  689.3708
 410  689.4059
 411  678.9827
 412  550.7131
 413  558.7561
 414  661.1055
 415  634.1379
 416  643.1438
 417  625.8052
 418  572.6687
 419  550.1751
 420  554.6569
 421  633.1556
 422  704.2462
 423  661.5829
 424  703.7487
 425  699.321
 426  637.5059
 427  607.6568
 428  684.9881
 429  717.7083
 430  666.6609
 431  729.3949
 432  650.1831
 433  645.4188
 434  739.7669
 435  664.1602
 436  649.3915
 437  564.1344
 438  683.4716
 439  775.4207
 440  793.532
 441  733.3286
 442  655.498
 443  704.613
 444  662.3387
 445  658.4813
 446  659.4115
 447  684.116
 448  681.3515
 449  645.1619
 450  645.4644
 451  588.4128
 452  696.5158
 453  681.8609
 454  600.5444
 455  614.2247
 456  626.0566
 457  602.6704
 458  592.9257
 459  557.791
 460  556.7933
 461  646.3387
 462  692.8613
 463  537.1033
 464  614.3737
 465  655.6113
 466  610.9699
 467  615.9349
 468  617.2129
 469  605.2953
 470  709.8763
 471  761.4885
 472  614.7462
 473  610.0054
 474  552.8851
 475  564.6509
 476  667.0152
 477  655.0288
 478  621.0384
 479  596.7759
 480  586.9767
 481  630.7428
 482  594.9724
 483  658.0172
 484  527.3257
 485  617.101
 486  561.1133
 487  534.7468
 488  686.7911
 489  697.0859
 490  742.7404
 491  655.4615
 492  612.0553
 493  614.5616
 494  566.9577
 495  563.0125
 496  682.4234
 497  745.3613
 498  694.4382
 499  593.8252
 500  550.0686
 501  698.4702
 502  696.3668
 503  651.707
 504  561.9604
 505  562.7718
 506  493.6791
 507  499.1899
 508  512.8099
 509  506.5827
 510  518.482
 511  630.213
