# Input file       =  1202496185.116841_cleaned.dat
# Candidate        =  PSR_0332+5434
# Telescope        =  AR
# Epoch_topo       =  58161.780140241215
# Epoch_bary       =  N/A
# T_sample         =  0.002
# Data Folded      =  7340032
# Data Avg         =  0.0530250048863569
# Data StdDev      =  2.89828259922996 
# Profile Bins     =  512
# Profile Avg      =  760.08229068355  
# Profile StdDev   =  347.02017588375  
# Reduced chi-sqr  =  0.916
# Prob(Noise)      <  0.912   (~0.0 sigma)
# P_topo (ms)      =  714.57992968998   +/- 0.000169
# P'_topo (s/s)    =  -0                +/- 8.9e-11
# P''_topo (s/s^2) =  0                 +/- 3.93e-14
# P_bary (ms)      =  N/A
# P'_bary (s/s)    =  N/A
# P''_bary (s/s^2) =  N/A
# P_orb (s)        =  N/A
# asin(i)/c (s)    =  N/A
# eccentricity     =  N/A
# w (rad)          =  N/A
# T_peri           =  N/A
######################################################
   0  974.5784
   1  634.2646
   2  396.6834
   3  474.9067
   4  435.6963
   5  713.2015
   6  653.3475
   7  947.1561
   8  751.7898
   9  662.2451
  10  393.3189
  11  583.8044
  12  688.028
  13  842.136
  14  824.1299
  15  884.2598
  16  899.0858
  17  611.8254
  18  558.4998
  19  825.6136
  20  1090.4
  21  581.3344
  22  553.7819
  23  445.631
  24  541.8649
  25  668.7402
  26  780.3512
  27  788.8287
  28  723.0587
  29  657.8065
  30  507.1361
  31  524.5074
  32  1040.751
  33  1220.592
  34  963.47
  35  979.2361
  36  775.0671
  37  495.826
  38  286.158
  39  282.4727
  40  495.6563
  41  715.0937
  42  546.861
  43  577.5924
  44  751.5368
  45  1004.622
  46  699.6843
  47  890.3771
  48  697.3145
  49  570.5807
  50  568.3951
  51  664.0745
  52  610.3451
  53  654.8895
  54  740.6413
  55  585.8287
  56  534.7745
  57  662.399
  58  512.6319
  59  618.4578
  60  321.7347
  61  402.0753
  62  516.6055
  63  748.4995
  64  635.0404
  65  843.1715
  66  1016.628
  67  696.3436
  68  791.3745
  69  444.325
  70  778.3506
  71  568.6989
  72  656.343
  73  762.7185
  74  552.7347
  75  606.2615
  76  631.4635
  77  710.776
  78  896.2239
  79  728.1642
  80  626.9207
  81  569.3843
  82  731.3344
  83  520.7888
  84  629.4957
  85  855.9512
  86  909.0938
  87  1047.259
  88  669.7051
  89  757.902
  90  710.9671
  91  639.8922
  92  542.7911
  93  589.5554
  94  794.5581
  95  592.4595
  96  376.2726
  97  443.4056
  98  495.0075
  99  813.3771
 100  1016.083
 101  830.4512
 102  966.2679
 103  840.9261
 104  920.9234
 105  807.1365
 106  540.4296
 107  816.2044
 108  1037.098
 109  1126.709
 110  1276.856
 111  1255.566
 112  1223.104
 113  1014.945
 114  806.0053
 115  731.746
 116  911.1487
 117  710.9189
 118  978.1613
 119  1183.269
 120  1204.456
 121  952.6393
 122  850.3148
 123  909.1212
 124  1160.564
 125  1070.967
 126  1071.006
 127  1233.116
 128  1090.678
 129  1091.21
 130  605.7585
 131  533.2064
 132  646.2533
 133  779.2086
 134  965.5984
 135  964.9139
 136  912.8665
 137  928.3169
 138  1186.075
 139  844.1846
 140  1174.081
 141  1189.654
 142  812.418
 143  905.3543
 144  957.0709
 145  1126.529
 146  996.2836
 147  962.5969
 148  1092.97
 149  773.5681
 150  521.2002
 151  831.2836
 152  813.3457
 153  1063.823
 154  1249.118
 155  709.5859
 156  642.3589
 157  681.6046
 158  634.1546
 159  613.6279
 160  724.34
 161  851.3436
 162  791.1716
 163  683.3464
 164  635.1943
 165  891.2732
 166  770.9975
 167  759.7099
 168  607.1334
 169  768.5676
 170  721.0313
 171  463.5626
 172  393.3701
 173  487.0436
 174  485.6901
 175  459.4442
 176  631.1633
 177  782.0568
 178  1052.811
 179  1020.675
 180  520.4616
 181  236.9284
 182  532.6882
 183  709.8718
 184  392.8076
 185  444.892
 186  478.6408
 187  689.8528
 188  929.6279
 189  760.3813
 190  517.9158
 191  501.5372
 192  479.1626
 193  593.8411
 194  1003.713
 195  596.6454
 196  643.8782
 197  1042.122
 198  760.9895
 199  833.231
 200  1053.354
 201  746.4754
 202  286.4866
 203  284.9921
 204  615.7595
 205  604.9833
 206  951.3831
 207  1150.255
 208  801.2164
 209  613.8929
 210  990.5778
 211  1216.597
 212  1020.408
 213  854.9797
 214  1010.347
 215  1030.015
 216  1113.779
 217  1006.91
 218  860.5805
 219  642.2505
 220  675.0358
 221  536.8759
 222  911.8448
 223  625.957
 224  390.8789
 225  544.8143
 226  417.1947
 227  656.8374
 228  905.5718
 229  963.0474
 230  874.2422
 231  725.0676
 232  767.9159
 233  709.3107
 234  525.5045
 235  633.798
 236  664.0387
 237  573.1209
 238  687.4165
 239  872.7255
 240  671.8528
 241  576.6451
 242  572.6896
 243  512.6281
 244  587.6628
 245  978.8568
 246  1030.626
 247  800.0262
 248  606.3146
 249  1059.764
 250  706.0874
 251  410.6557
 252  722.5579
 253  1038.352
 254  1080.512
 255  783.7448
 256  775.3802
 257  886.3834
 258  779.5381
 259  670.5245
 260  685.1768
 261  544.658
 262  753.3055
 263  752.4987
 264  656.1788
 265  694.8616
 266  362.0052
 267  468.6822
 268  507.074
 269  606.4758
 270  496.0964
 271  390.1978
 272  573.7382
 273  481.8389
 274  735.5515
 275  806.6249
 276  665.936
 277  659.9568
 278  692.9143
 279  658.0008
 280  726.4294
 281  903.5901
 282  500.6771
 283  674.4296
 284  778.5024
 285  679.3837
 286  871.226
 287  750.6029
 288  635.5145
 289  719.2746
 290  924.9559
 291  773.9509
 292  640.8738
 293  742.5927
 294  576.7188
 295  633.8243
 296  1080.225
 297  933.5793
 298  668.734
 299  970.6246
 300  817.8324
 301  785.0414
 302  685.9538
 303  679.9902
 304  848.8517
 305  772.9091
 306  717.4315
 307  686.6062
 308  484.0937
 309  717.0261
 310  1086.412
 311  1064.457
 312  1020.425
 313  776.4534
 314  870.0239
 315  764.8752
 316  806.5547
 317  687.6209
 318  858.6601
 319  685.715
 320  513.5991
 321  521.4205
 322  505.8453
 323  524.4092
 324  636.7659
 325  901.8006
 326  714.0002
 327  577.7938
 328  968.1821
 329  1037.198
 330  854.9946
 331  842.1785
 332  770.1584
 333  776.7476
 334  1006.435
 335  760.0939
 336  672.9106
 337  827.5017
 338  783.8658
 339  807.9922
 340  658.4843
 341  770.9904
 342  943.4749
 343  442.6026
 344  520.2108
 345  733.9277
 346  526.7915
 347  543.4608
 348  818.8159
 349  846.6502
 350  533.6893
 351  153.2012
 352  311.0985
 353  548.92
 354  766.0217
 355  979.4171
 356  944.4835
 357  854.4891
 358  910.6611
 359  895.9761
 360  586.5251
 361  820.3892
 362  967.4938
 363  1028.079
 364  865.7263
 365  991.3156
 366  452.8878
 367  218.6758
 368  692.6539
 369  1044.379
 370  1052.845
 371  956.0455
 372  692.3256
 373  662.5306
 374  742.3157
 375  575.8577
 376  619.0979
 377  922.0198
 378  1201.301
 379  1032.142
 380  944.5645
 381  859.0909
 382  476.6372
 383  405.7989
 384  554.0607
 385  667.7514
 386  525.9495
 387  559.3225
 388  586.7648
 389  718.4147
 390  432.6507
 391  466.8945
 392  535.4454
 393  459.3529
 394  315.1559
 395  620.8214
 396  648.1376
 397  868.7771
 398  993.2356
 399  793.1277
 400  861.9824
 401  982.3201
 402  922.624
 403  1045.856
 404  790.1234
 405  966.9865
 406  614.3845
 407  838.5621
 408  808.0802
 409  672.8334
 410  733.5837
 411  674.4596
 412  605.4081
 413  792.0303
 414  703.9599
 415  590.3458
 416  664.0298
 417  555.5482
 418  971.5564
 419  930.049
 420  696.6169
 421  912.1279
 422  1222.625
 423  888.0021
 424  730.1302
 425  582.6185
 426  540.7756
 427  1167.857
 428  1836.656
 429  1987.84
 430  2136.406
 431  2107.748
 432  1999.886
 433  1339.135
 434  1135.719
 435  686.043
 436  687.8188
 437  1007.763
 438  1128.219
 439  966.4823
 440  906.1295
 441  777.9145
 442  842.6529
 443  695.3447
 444  658.8756
 445  1033.371
 446  1143.041
 447  1151.693
 448  1023.352
 449  839.2391
 450  714.4551
 451  722.9878
 452  737.4905
 453  816.6543
 454  790.254
 455  967.0297
 456  787.2942
 457  650.051
 458  862.7391
 459  1081.535
 460  871.8436
 461  781.3846
 462  779.8991
 463  1094.661
 464  805.2512
 465  608.8311
 466  682.5919
 467  770.9455
 468  754.3367
 469  630.3956
 470  911.3446
 471  601.5461
 472  578.4922
 473  630.5174
 474  558.5874
 475  540.6102
 476  197.2705
 477  337.0646
 478  533.9776
 479  709.4551
 480  622.4937
 481  488.0629
 482  901.8351
 483  764.4039
 484  979.8979
 485  767.4158
 486  711.5638
 487  570.5825
 488  742.6959
 489  678.6245
 490  645.35
 491  816.9583
 492  690.8098
 493  835.0014
 494  645.059
 495  756.053
 496  747.08
 497  737.7939
 498  735.3162
 499  782.3354
 500  913.1865
 501  802.2719
 502  691.6967
 503  681.5223
 504  464.0928
 505  717.6014
 506  569.8055
 507  711.7791
 508  749.6445
 509  590.0114
 510  706.9225
 511  871.342
