# Input file       =  1202639010.116768_cleaned.dat
# Candidate        =  PSR_0332+5434
# Telescope        =  AR
# Epoch_topo       =  58163.433207369999
# Epoch_bary       =  N/A
# T_sample         =  0.002
# Data Folded      =  7208960
# Data Avg         =  0.13785392415223 
# Data StdDev      =  5.66737822607911 
# Profile Bins     =  1024
# Profile Avg      =  970.83697320367  
# Profile StdDev   =  475.51971435509  
# Reduced chi-sqr  =  2.656
# Prob(Noise)      <  1.24e-153   (~26.4 sigma)
# P_topo (ms)      =  714.579894081289  +/- 2.11e-05
# P'_topo (s/s)    =  -0                +/- 1.13e-11
# P''_topo (s/s^2) =  0                 +/- 5.1e-15
# P_bary (ms)      =  N/A
# P'_bary (s/s)    =  N/A
# P''_bary (s/s^2) =  N/A
# P_orb (s)        =  N/A
# asin(i)/c (s)    =  N/A
# eccentricity     =  N/A
# w (rad)          =  N/A
# T_peri           =  N/A
######################################################
   0  560.6506
   1  541.0119
   2  720.3817
   3  943.999
   4  1189.797
   5  1207.229
   6  1046.971
   7  806.7067
   8  586.8475
   9  549.0469
  10  608.4393
  11  614.7861
  12  546.2836
  13  443.3142
  14  530.907
  15  570.2473
  16  602.5502
  17  798.724
  18  1200.181
  19  1531.573
  20  1583.206
  21  1566.656
  22  1593.057
  23  1530.085
  24  1456.718
  25  1335.467
  26  1146.983
  27  1073.132
  28  932.4211
  29  959.3069
  30  740.3166
  31  666.1728
  32  653.0441
  33  684.4032
  34  916.6606
  35  1039.058
  36  1284.898
  37  1331.389
  38  1297.848
  39  1138.41
  40  755.2936
  41  676.7524
  42  718.0214
  43  793.0123
  44  796.1428
  45  776.0884
  46  671.1628
  47  561.6294
  48  498.1113
  49  755.6813
  50  1010.47
  51  1438.656
  52  1617.162
  53  1720.057
  54  1817.884
  55  1944.286
  56  1807.253
  57  1626.615
  58  1308.316
  59  1361.128
  60  1236.982
  61  1285.148
  62  1065.626
  63  882.5652
  64  739.0639
  65  610.207
  66  660.938
  67  719.6104
  68  831.9603
  69  830.66
  70  957.4499
  71  1083.644
  72  1125.495
  73  939.1545
  74  867.9239
  75  714.8867
  76  560.7477
  77  486.3555
  78  401.2921
  79  479.9465
  80  435.7669
  81  519.9092
  82  682.0543
  83  818.9045
  84  1046.656
  85  1203.104
  86  1535.632
  87  1607.896
  88  1611.349
  89  1480.471
  90  1527.315
  91  1380.823
  92  1262.726
  93  1040.352
  94  1144.038
  95  1054.368
  96  969.0667
  97  762.7855
  98  485.3348
  99  573.1177
 100  622.2982
 101  1003.486
 102  1069.525
 103  991.7866
 104  876.0941
 105  728.373
 106  716.1571
 107  574.8597
 108  527.4331
 109  527.2739
 110  545.3932
 111  595.7658
 112  569.9892
 113  480.953
 114  438.9348
 115  582.6918
 116  745.9001
 117  1053.275
 118  1266.632
 119  1660.075
 120  1763.274
 121  1852.963
 122  1791.82
 123  1643.841
 124  1526.096
 125  1354.96
 126  1263.938
 127  1307.552
 128  1144.886
 129  1046.428
 130  660.4042
 131  550.3885
 132  528.4059
 133  698.9333
 134  979.7098
 135  1132.512
 136  1187.554
 137  1167.142
 138  983.7161
 139  755.9565
 140  450.2076
 141  243.5598
 142  226.1786
 143  215.9076
 144  384.5479
 145  403.9546
 146  506.8824
 147  687.7084
 148  786.7672
 149  994.4226
 150  1162.941
 151  1418.935
 152  1658.234
 153  1605.624
 154  1642.801
 155  1519.637
 156  1402.743
 157  1164.508
 158  925.7377
 159  1029.753
 160  1085.751
 161  1125.729
 162  969.7536
 163  685.1601
 164  548.4402
 165  400.3239
 166  579.4437
 167  674.0002
 168  676.5553
 169  849.7687
 170  904.3257
 171  930.7433
 172  735.2468
 173  504.3492
 174  378.0031
 175  368.7458
 176  460.1817
 177  524.2425
 178  431.1288
 179  406.5374
 180  384.0384
 181  388.3402
 182  721.3063
 183  1073.125
 184  1513.833
 185  1731.075
 186  1801.644
 187  1776.181
 188  1622.128
 189  1430.34
 190  1149.549
 191  987.4854
 192  958.9135
 193  822.5549
 194  786.9576
 195  656.4375
 196  572.1229
 197  522.144
 198  544.4536
 199  712.0541
 200  866.1962
 201  957.094
 202  1145.393
 203  1156.866
 204  1150.283
 205  904.0894
 206  576.1512
 207  388.822
 208  368.2503
 209  474.4563
 210  384.2436
 211  209.4508
 212  171.921
 213  219.0902
 214  360.4417
 215  710.0977
 216  1108.79
 217  1357.519
 218  1439.325
 219  1587.488
 220  1574.446
 221  1355.646
 222  1305.026
 223  1221.287
 224  999.4333
 225  851.0358
 226  970.6142
 227  1110.282
 228  844.6594
 229  622.2565
 230  558.727
 231  568.8005
 232  665.2758
 233  756.0155
 234  947.7366
 235  983.3339
 236  1040.57
 237  925.8109
 238  656.8305
 239  527.7908
 240  440.7755
 241  433.2984
 242  443.7453
 243  449.2298
 244  491.8108
 245  328.4714
 246  248.3521
 247  474.0193
 248  608.0311
 249  826.6658
 250  1190.324
 251  1487.594
 252  1670.73
 253  1562.141
 254  1472.688
 255  1360.955
 256  1215.065
 257  1187.328
 258  1023.384
 259  879.0928
 260  731.4344
 261  693.3953
 262  651.9524
 263  444.8156
 264  314.5566
 265  395.2292
 266  657.069
 267  838.0663
 268  959.3953
 269  1147.108
 270  1093.408
 271  802.3947
 272  611.2337
 273  472.4179
 274  380.386
 275  320.503
 276  191.985
 277  150.8478
 278  -10.28573
 279  108.9017
 280  272.6364
 281  581.0015
 282  843.749
 283  1204.966
 284  1404.83
 285  1573.211
 286  1469.048
 287  1249.498
 288  1019.207
 289  916.6682
 290  969.9819
 291  937.6235
 292  1090.798
 293  1097.288
 294  1073.97
 295  790.1453
 296  705.1798
 297  829.4973
 298  951.6403
 299  1033.637
 300  880.4443
 301  778.1779
 302  763.5129
 303  711.1456
 304  558.6572
 305  347.9321
 306  211.5546
 307  167.8089
 308  16.98405
 309  128.3833
 310  300.408
 311  529.7255
 312  753.0469
 313  770.9568
 314  897.4044
 315  1173.074
 316  1434.113
 317  1726.546
 318  1777.784
 319  1789.592
 320  1428.578
 321  1010.711
 322  975.3881
 323  942.6106
 324  974.2433
 325  900.0989
 326  734.4229
 327  646.9418
 328  461.8778
 329  552.1407
 330  724.9346
 331  849.4449
 332  1111.559
 333  1186.178
 334  1163.138
 335  1031.241
 336  815.762
 337  825.7057
 338  722.8013
 339  539.1165
 340  322.0439
 341  151.0273
 342  220.7223
 343  284.8235
 344  251.9948
 345  458.8809
 346  573.3453
 347  777.1053
 348  929.5757
 349  1228.417
 350  1492.343
 351  1503.312
 352  1752.515
 353  1848.115
 354  1650.693
 355  1326.291
 356  1102.461
 357  1156.862
 358  1064.005
 359  869.8383
 360  767.1906
 361  492.7379
 362  552.134
 363  499.0106
 364  594.4747
 365  699.0232
 366  858.8356
 367  1131.478
 368  1088.498
 369  945.959
 370  734.9941
 371  556.6368
 372  446.099
 373  429.6683
 374  487.6978
 375  454.7307
 376  306.1609
 377  414.2701
 378  253.6683
 379  205.9188
 380  319.4864
 381  881.1221
 382  1350.938
 383  1545.401
 384  1643.587
 385  1808.562
 386  1594.755
 387  1367.091
 388  1139.484
 389  1063.355
 390  1063.081
 391  954.7132
 392  955.7278
 393  754.8032
 394  489.5511
 395  495.0302
 396  427.5679
 397  579.8707
 398  642.3606
 399  1038.866
 400  1239.398
 401  1037.378
 402  899.6564
 403  784.4696
 404  658.0594
 405  445.0282
 406  341.6992
 407  340.4838
 408  398.1889
 409  413.9787
 410  468.9518
 411  370.0909
 412  334.3798
 413  550.9007
 414  877.0646
 415  1256.744
 416  1439.198
 417  1770.798
 418  1832.733
 419  1672.112
 420  1407.943
 421  1262.204
 422  1135.723
 423  997.2599
 424  968.2413
 425  1035.493
 426  875.4964
 427  710.6422
 428  561.7693
 429  531.4866
 430  603.4511
 431  640.5235
 432  919.4086
 433  997.9827
 434  1050.196
 435  992.5629
 436  1003.023
 437  983.4849
 438  739.8026
 439  558.9122
 440  521.334
 441  657.1045
 442  805.8382
 443  654.4618
 444  577.6091
 445  617.7807
 446  715.7746
 447  910.6548
 448  1201.391
 449  1381.78
 450  1392.214
 451  1261.161
 452  1227.632
 453  1250.165
 454  1140.541
 455  1161.605
 456  1025.422
 457  1174.733
 458  1165.877
 459  1178.074
 460  1099.657
 461  810.7877
 462  651.764
 463  645.0539
 464  1042.24
 465  1312.989
 466  1237.606
 467  1113.341
 468  1000.151
 469  811.7755
 470  559.0802
 471  256.6487
 472  303.9041
 473  404.9934
 474  394.6336
 475  377.7003
 476  209.915
 477  295.7082
 478  303.5774
 479  714.5493
 480  982.2104
 481  1239.002
 482  1467.294
 483  1632.826
 484  1495.735
 485  1549.51
 486  1390.18
 487  1169.87
 488  863.5034
 489  860.592
 490  1028.378
 491  889.0815
 492  838.5001
 493  615.256
 494  467.1515
 495  518.7639
 496  659.6163
 497  869.928
 498  1071.146
 499  1344.813
 500  1509.419
 501  1228.812
 502  735.8823
 503  381.6027
 504  378.1923
 505  450.2562
 506  298.6589
 507  199.9095
 508  95.91014
 509  140.3723
 510  240.1485
 511  416.2261
 512  679.1068
 513  1041.901
 514  1437.572
 515  1796.668
 516  1819.57
 517  1830.796
 518  1742.849
 519  1559.568
 520  1465.259
 521  1251.536
 522  1183.808
 523  977.0429
 524  892.2
 525  862.2285
 526  713.7681
 527  576.5859
 528  438.4516
 529  693.3348
 530  853.5391
 531  958.0616
 532  964.4185
 533  1066.999
 534  952.4719
 535  1026.193
 536  865.502
 537  694.7714
 538  455.6918
 539  358.5154
 540  359.9214
 541  234.6488
 542  303.6255
 543  504.9622
 544  630.3033
 545  760.5333
 546  1030.443
 547  1378.016
 548  1727.696
 549  1760.362
 550  1863.372
 551  1852.594
 552  1715.338
 553  1325.552
 554  1040.494
 555  944.7435
 556  1071.327
 557  1071.796
 558  1025.336
 559  874.9672
 560  697.9875
 561  517.6777
 562  518.5996
 563  718.1451
 564  945.2335
 565  1089.692
 566  1189.807
 567  1170.18
 568  969.9691
 569  684.847
 570  635.3001
 571  653.7555
 572  709.6715
 573  644.131
 574  522.2718
 575  434.942
 576  360.2271
 577  430.9229
 578  661.213
 579  990.6509
 580  1359.623
 581  1676.647
 582  1746.016
 583  1798.682
 584  1534.797
 585  1534.928
 586  1256.194
 587  1190.124
 588  1167.816
 589  1090.255
 590  1156.755
 591  1114.611
 592  1005.204
 593  781.1877
 594  696.0182
 595  830.4186
 596  951.4222
 597  1114.918
 598  1273.95
 599  1098.752
 600  990.1143
 601  819.2565
 602  793.2741
 603  792.4979
 604  784.2379
 605  923.3689
 606  990.777
 607  1097.057
 608  1251.827
 609  1278.319
 610  1534.154
 611  1651.725
 612  1998.244
 613  2147.134
 614  2165.343
 615  2079.135
 616  2087.585
 617  1864.874
 618  1754.192
 619  1623.149
 620  1627.312
 621  1410.414
 622  1138.13
 623  1168.807
 624  1188.457
 625  1319.664
 626  1052.511
 627  901.0246
 628  765.9352
 629  906.6522
 630  1261.516
 631  1439.198
 632  1368.463
 633  1111.243
 634  818.8864
 635  697.332
 636  531.7811
 637  507.3386
 638  554.2252
 639  666.2221
 640  597.1947
 641  498.9961
 642  546.3134
 643  912.8824
 644  1082.441
 645  1269.202
 646  1327.231
 647  1573.665
 648  1765.64
 649  1825.565
 650  1741.962
 651  1565.048
 652  1413.437
 653  1370.573
 654  1331.652
 655  1336.448
 656  1289.856
 657  1072.431
 658  970.2506
 659  816.4341
 660  833.9723
 661  712.0656
 662  965.9131
 663  1057.1
 664  1225.716
 665  1253.896
 666  1293.643
 667  1108.707
 668  855.8016
 669  517.397
 670  470.527
 671  530.989
 672  586.6321
 673  503.9338
 674  351.0293
 675  564.524
 676  748.0618
 677  941.8942
 678  1085.137
 679  1286.35
 680  1703.405
 681  1849.427
 682  1954.07
 683  1905.536
 684  1708.459
 685  1528.482
 686  1156.364
 687  1116.924
 688  1063.478
 689  1150.484
 690  1178.738
 691  1107.529
 692  860.7985
 693  545.6911
 694  594.4557
 695  910.7729
 696  1223.438
 697  1393.088
 698  1411.103
 699  1206.621
 700  1166.399
 701  895.8913
 702  667.1019
 703  400.1841
 704  338.9676
 705  281.6008
 706  392.1484
 707  435.939
 708  632.5234
 709  496.2978
 710  802.7624
 711  1207.558
 712  1707.608
 713  1931.791
 714  1903.667
 715  1926.784
 716  1881.264
 717  1676.872
 718  1562.952
 719  1375.877
 720  1441.473
 721  1324.816
 722  1202.473
 723  1015.196
 724  794.2017
 725  688.3293
 726  612.0734
 727  662.8304
 728  714.6906
 729  886.067
 730  1116.801
 731  1339.282
 732  1197.648
 733  1060.234
 734  944.0278
 735  947.6475
 736  844.4559
 737  698.7352
 738  747.8219
 739  703.4772
 740  669.5825
 741  410.6722
 742  309.916
 743  522.7182
 744  902.1248
 745  1219.304
 746  1459.512
 747  1633.446
 748  1790.61
 749  1803.94
 750  1689.142
 751  1501.883
 752  1420.238
 753  1450.887
 754  1329.778
 755  1332.981
 756  1257.232
 757  1234.297
 758  1026.738
 759  756.5664
 760  621.6548
 761  647.54
 762  886.3664
 763  1009.449
 764  1073.109
 765  1103.494
 766  1033.569
 767  832.1518
 768  743.0928
 769  583.3904
 770  584.4312
 771  583.4201
 772  553.1779
 773  666.5665
 774  605.7629
 775  655.2583
 776  585.878
 777  784.6332
 778  1068.113
 779  1452.462
 780  1654.081
 781  1659.497
 782  1471.644
 783  1293.569
 784  1124.493
 785  1029.709
 786  1160.258
 787  1215.627
 788  1182.229
 789  1009.972
 790  870.4053
 791  681.5972
 792  531.2255
 793  601.2668
 794  810.0086
 795  938.8974
 796  1093.309
 797  1245.341
 798  1265.194
 799  991.3993
 800  789.3107
 801  707.7116
 802  722.2711
 803  714.4851
 804  662.6576
 805  632.0129
 806  560.5093
 807  647.1811
 808  838.4761
 809  1035.038
 810  1242.514
 811  1461.954
 812  1733.183
 813  1858.369
 814  1708.52
 815  1524.984
 816  1494.791
 817  1519.6
 818  1528.084
 819  1298.597
 820  1267.468
 821  1225.294
 822  1125.43
 823  955.3622
 824  698.4631
 825  645.2257
 826  584.6207
 827  699.1297
 828  1032.99
 829  1179.27
 830  1343.949
 831  1243.659
 832  1165.816
 833  876.0123
 834  580.7038
 835  416.5468
 836  469.9656
 837  597.296
 838  700.6635
 839  674.4426
 840  724.3121
 841  809.8675
 842  840.9097
 843  993.8715
 844  1242.778
 845  1603.461
 846  1972.597
 847  2122.666
 848  2110.753
 849  1742.095
 850  1282.51
 851  1027.142
 852  888.5497
 853  933.4716
 854  984.3165
 855  1077.025
 856  860.0636
 857  514.7657
 858  476.295
 859  511.843
 860  741.4769
 861  1012.066
 862  1450.027
 863  1546.636
 864  1384.566
 865  1227.712
 866  1039.548
 867  847.0434
 868  672.0217
 869  719.9551
 870  608.6254
 871  631.5327
 872  406.7021
 873  328.7574
 874  367.14
 875  730.6566
 876  1081.477
 877  1364.713
 878  1651.489
 879  1844.584
 880  1844.685
 881  1777.842
 882  1581.637
 883  1509.847
 884  1397.085
 885  1510.957
 886  1585.061
 887  1418.542
 888  1254.153
 889  979.6729
 890  830.5819
 891  528.1113
 892  571.5038
 893  927.0311
 894  1116.722
 895  1213.095
 896  1238.915
 897  1285.271
 898  1215.174
 899  903.6442
 900  765.2421
 901  641.3494
 902  720.4016
 903  795.3954
 904  679.4946
 905  535.6528
 906  380.2894
 907  422.7243
 908  556.4579
 909  841.8034
 910  1209.177
 911  1511.504
 912  1687.866
 913  1772.556
 914  1928.616
 915  1823.194
 916  1771.769
 917  1599.243
 918  1542.327
 919  1420.014
 920  1290.908
 921  1258.229
 922  956.4554
 923  782.5333
 924  709.3647
 925  898.688
 926  944.6464
 927  1167.743
 928  1374.251
 929  1403.867
 930  1206.563
 931  1085.669
 932  1008.444
 933  820.2802
 934  687.0213
 935  646.1044
 936  629.4347
 937  623.4592
 938  642.8419
 939  566.8719
 940  520.8171
 941  623.6397
 942  1005.804
 943  1309.5
 944  1542.437
 945  1790.673
 946  1889.12
 947  1711.207
 948  1485.13
 949  1352.037
 950  1360.846
 951  1135.772
 952  1069.361
 953  1112.075
 954  1121.818
 955  1042.386
 956  828.1475
 957  720.9803
 958  734.2023
 959  910.6172
 960  1160.427
 961  1183.28
 962  1190.302
 963  1058.74
 964  971.053
 965  762.8102
 966  704.9402
 967  589.0911
 968  597.4047
 969  498.5189
 970  470.3468
 971  422.6819
 972  431.9817
 973  767.2896
 974  916.0931
 975  965.1156
 976  1042.977
 977  1521.894
 978  1918.738
 979  1891.428
 980  1720.925
 981  1733.672
 982  1580.183
 983  1427.299
 984  1274.992
 985  1251.804
 986  1127.515
 987  1074.166
 988  1051.299
 989  763.8989
 990  465.562
 991  428.1337
 992  629.5145
 993  845.9387
 994  1006.166
 995  1277.733
 996  1205.138
 997  972.5366
 998  652.7691
 999  563.7422
1000  468.5346
1001  463.6387
1002  516.2438
1003  489.4299
1004  423.8288
1005  385.4563
1006  445.5544
1007  507.7624
1008  735.7806
1009  1111.463
1010  1458.489
1011  1609.251
1012  1721.586
1013  1745.098
1014  1535.41
1015  1153.658
1016  985.1129
1017  947.5595
1018  1053.315
1019  1132.132
1020  1127.824
1021  923.6635
1022  699.7057
1023  589.2422
