# Input file       =  1202222673.110506_cleaned.dat
# Candidate        =  PSR_0332+5434
# Telescope        =  AR
# Epoch_topo       =  58158.614492019748
# Epoch_bary       =  N/A
# T_sample         =  0.002
# Data Folded      =  7340032
# Data Avg         =  0.185584887334179
# Data StdDev      =  5.13507906710374 
# Profile Bins     =  1024
# Profile Avg      =  1329.40920351269 
# Profile StdDev   =  434.756549574721 
# Reduced chi-sqr  =  0.644
# Prob(Noise)      <  1   (~0.0 sigma)
# P_topo (ms)      =  714.578837092245  +/- 0.000565
# P'_topo (s/s)    =  -0                +/- 2.98e-10
# P''_topo (s/s^2) =  0                 +/- 1.32e-13
# P_bary (ms)      =  N/A
# P'_bary (s/s)    =  N/A
# P''_bary (s/s^2) =  N/A
# P_orb (s)        =  N/A
# asin(i)/c (s)    =  N/A
# eccentricity     =  N/A
# w (rad)          =  N/A
# T_peri           =  N/A
######################################################
   0  1201.428
   1  1105.693
   2  1130.111
   3  1121.176
   4  1257.659
   5  1402.729
   6  1550.947
   7  1633.589
   8  1583.865
   9  1612.634
  10  1674.157
  11  1497.215
  12  1443.132
  13  1335.903
  14  1318.355
  15  1302.902
  16  1340.773
  17  1393.164
  18  1407.497
  19  1327.521
  20  1306.562
  21  1235.711
  22  1260.593
  23  1378.557
  24  1309.603
  25  1483.011
  26  1419.08
  27  1492.833
  28  1399.789
  29  1325.228
  30  1330.005
  31  1332.824
  32  1219.012
  33  1117.281
  34  1128.096
  35  1187.206
  36  1257.346
  37  1286.149
  38  1323.723
  39  1491.171
  40  1569.178
  41  1654.068
  42  1463.646
  43  1336.872
  44  1402.888
  45  1416.879
  46  1578.47
  47  1541.235
  48  1421.466
  49  1321.535
  50  1194.318
  51  1202.255
  52  1171.011
  53  1207.164
  54  1268.562
  55  1370.2
  56  1468.524
  57  1502.285
  58  1303.217
  59  1082.819
  60  981.0425
  61  1043.339
  62  1093.373
  63  1111.787
  64  1237.323
  65  1273.646
  66  1148.443
  67  1058.609
  68  1062.549
  69  1191.854
  70  1280.911
  71  1306.094
  72  1208.635
  73  1165.822
  74  1006.39
  75  1069.702
  76  1048.855
  77  1071.927
  78  1116.709
  79  1089.949
  80  1162.719
  81  1102.759
  82  1082.379
  83  1088.114
  84  1102.726
  85  1188.171
  86  1284.678
  87  1323.62
  88  1475.986
  89  1360.737
  90  1479.581
  91  1390.876
  92  1303.362
  93  1182.288
  94  1108.698
  95  1300.361
  96  1341.049
  97  1240.088
  98  1200.858
  99  1205.474
 100  1249.17
 101  1254.056
 102  1327.059
 103  1419.073
 104  1446.26
 105  1424.581
 106  1506.905
 107  1510.398
 108  1450.611
 109  1403.97
 110  1315.614
 111  1292.411
 112  1386.506
 113  1405.925
 114  1399.459
 115  1320.72
 116  1327.176
 117  1352.442
 118  1157.155
 119  1227.628
 120  1398.57
 121  1520.604
 122  1521.549
 123  1436.458
 124  1506.982
 125  1577.091
 126  1532.49
 127  1571.524
 128  1592.603
 129  1571.648
 130  1712.81
 131  1581.599
 132  1580.284
 133  1538.159
 134  1628.687
 135  1642.897
 136  1438.43
 137  1514.898
 138  1661.703
 139  1646.212
 140  1632.458
 141  1564.878
 142  1405.109
 143  1378.82
 144  1446.521
 145  1634.926
 146  1627.46
 147  1507.619
 148  1517.177
 149  1449.523
 150  1418.635
 151  1360.835
 152  1366.634
 153  1477.563
 154  1506.976
 155  1429.579
 156  1287.411
 157  1155.467
 158  1183.839
 159  1256.236
 160  1281.135
 161  1363.912
 162  1293.191
 163  1283.567
 164  1271.316
 165  1218.354
 166  1349.147
 167  1405.124
 168  1466.554
 169  1361.239
 170  1400.831
 171  1474.73
 172  1441.198
 173  1390.026
 174  1433.936
 175  1445.049
 176  1437.885
 177  1451.165
 178  1360.376
 179  1400.155
 180  1466.629
 181  1444.375
 182  1339.198
 183  1176.147
 184  1223.631
 185  1259.917
 186  1333.358
 187  1426.878
 188  1430.617
 189  1512.999
 190  1502.041
 191  1397.517
 192  1307.933
 193  1240.276
 194  1292.435
 195  1348.141
 196  1196.539
 197  1135.942
 198  1157.683
 199  1152.573
 200  1213.014
 201  1214.883
 202  1261.313
 203  1298.145
 204  1207.288
 205  1282.563
 206  1282.098
 207  1141.911
 208  1208.001
 209  1102.34
 210  1300.683
 211  1374.72
 212  1440.078
 213  1479.467
 214  1400.975
 215  1334.951
 216  1259.427
 217  1291.85
 218  1322.175
 219  1295.041
 220  1259.986
 221  1413.576
 222  1395.521
 223  1423.465
 224  1530.772
 225  1615.815
 226  1448.879
 227  1321.057
 228  1339.677
 229  1536.252
 230  1598.762
 231  1585.18
 232  1398.099
 233  1264.276
 234  1247.9
 235  1313.97
 236  1389.792
 237  1436.543
 238  1394.131
 239  1435.261
 240  1544.425
 241  1547.497
 242  1489.823
 243  1468.428
 244  1507.949
 245  1563.661
 246  1465.709
 247  1306.052
 248  1172.085
 249  1323.167
 250  1491.917
 251  1417.211
 252  1360.76
 253  1283.162
 254  1458.409
 255  1425.939
 256  1530.707
 257  1415.52
 258  1544.072
 259  1435.943
 260  1468.092
 261  1376.055
 262  1177.032
 263  1225.716
 264  1383.453
 265  1431.081
 266  1465.62
 267  1407.453
 268  1585.862
 269  1429.638
 270  1514.744
 271  1669.711
 272  1826.822
 273  1799.796
 274  1617.715
 275  1632.618
 276  1644.377
 277  1459.947
 278  1382.012
 279  1474.784
 280  1593.704
 281  1478.776
 282  1345.013
 283  1342.215
 284  1372.775
 285  1439.893
 286  1452.356
 287  1270.588
 288  1190.85
 289  1132.794
 290  1257.513
 291  1317
 292  1339.682
 293  1462.996
 294  1529.092
 295  1516.753
 296  1356.458
 297  1279.265
 298  1285.786
 299  1301.159
 300  1385.031
 301  1381.282
 302  1388.106
 303  1432.081
 304  1415.359
 305  1489.899
 306  1350.561
 307  1408.006
 308  1285.291
 309  1281.969
 310  1194.468
 311  1013.212
 312  865.9623
 313  918.5195
 314  1148.189
 315  1311.214
 316  1295.984
 317  1270.567
 318  1283.289
 319  1226.725
 320  1223.62
 321  1251.039
 322  1378.086
 323  1311.156
 324  1293.295
 325  1289.414
 326  1301.396
 327  1206.645
 328  1289.901
 329  1360.462
 330  1439.397
 331  1513.231
 332  1461.334
 333  1498.562
 334  1508.49
 335  1517.82
 336  1575.385
 337  1488.415
 338  1593.852
 339  1451.372
 340  1236.609
 341  1304.006
 342  1286.228
 343  1424.556
 344  1213.1
 345  1235.024
 346  1390.369
 347  1349.192
 348  1113.457
 349  1046.319
 350  1060.043
 351  1103.075
 352  1092.865
 353  1168.481
 354  1303.227
 355  1250.932
 356  1193.849
 357  1249.258
 358  1298.262
 359  1322.745
 360  1195.279
 361  1233.846
 362  1218.963
 363  1145.231
 364  1095.979
 365  1256.731
 366  1271.991
 367  1133.379
 368  1065.882
 369  1175.064
 370  1244.182
 371  1133.762
 372  1058.024
 373  1046.592
 374  1181.192
 375  1156.575
 376  1167.514
 377  983.6858
 378  951.6014
 379  1040.042
 380  1176.843
 381  1035.217
 382  963.985
 383  1170.718
 384  1220.455
 385  1206.796
 386  1101.761
 387  1116.058
 388  1136.472
 389  1089.825
 390  1095.767
 391  1187.146
 392  1230.289
 393  1298.288
 394  1211.845
 395  1204.062
 396  1147.681
 397  1155.501
 398  1241.863
 399  1177.444
 400  1126.221
 401  1117.296
 402  1095.191
 403  1257.111
 404  1341.55
 405  1369.375
 406  1212.74
 407  1104.298
 408  1111.811
 409  1043.124
 410  1048.219
 411  1022.808
 412  1004.759
 413  988.7759
 414  926.3311
 415  945.0242
 416  1168.052
 417  1354.293
 418  1393.29
 419  1247.893
 420  978.4904
 421  943.577
 422  979.842
 423  943.1876
 424  955.1249
 425  922.0219
 426  934.7016
 427  866.8115
 428  920.455
 429  1009.127
 430  1064.255
 431  1011.348
 432  1175.623
 433  1225.269
 434  1233.615
 435  1194.345
 436  1240.254
 437  1274.016
 438  1130.058
 439  1093.105
 440  1171.712
 441  1187.691
 442  1147.669
 443  1167.747
 444  1212.791
 445  1294.385
 446  1252.471
 447  1223.398
 448  1302.187
 449  1225.066
 450  1392.819
 451  1364.531
 452  1460.724
 453  1516.136
 454  1561.461
 455  1616.83
 456  1627.852
 457  1544.74
 458  1644.281
 459  1443.634
 460  1411.736
 461  1292.307
 462  1185.413
 463  1240.224
 464  1293.123
 465  1343.346
 466  1264.584
 467  1125.827
 468  1121.536
 469  1075.529
 470  1113.002
 471  1185.754
 472  1247.63
 473  1254.012
 474  1228.583
 475  1168.885
 476  1106.135
 477  1099.899
 478  1117.578
 479  1192.31
 480  1084.501
 481  1052.726
 482  1048.821
 483  1161.681
 484  1228.309
 485  1197.816
 486  1151.012
 487  1136.801
 488  1196.797
 489  1364.066
 490  1399.047
 491  1313.906
 492  1380.337
 493  1423.406
 494  1468.537
 495  1206.351
 496  1145.2
 497  1318.706
 498  1437.629
 499  1442.187
 500  1353.711
 501  1192.346
 502  1350.244
 503  1535.698
 504  1583.54
 505  1428.53
 506  1319.573
 507  1308.85
 508  1332.002
 509  1203.55
 510  1171.912
 511  1062.396
 512  1022.034
 513  1069.651
 514  979.816
 515  994.5833
 516  1077.153
 517  1208.533
 518  1217.671
 519  1040.575
 520  977.6921
 521  1066.277
 522  1046.779
 523  1028.574
 524  978.0574
 525  941.3279
 526  983.5602
 527  930.1771
 528  1017.073
 529  1054.894
 530  1106.62
 531  1139.484
 532  1126.818
 533  1207.077
 534  1274.785
 535  1272.751
 536  1096.591
 537  1078.652
 538  1053.551
 539  1103.446
 540  898.6909
 541  959.2737
 542  1027.649
 543  1137.434
 544  1048.625
 545  1006.726
 546  1004.986
 547  1135.759
 548  1190.183
 549  1244.901
 550  1160.765
 551  1170.139
 552  1264.295
 553  1197.094
 554  1140.472
 555  1009.027
 556  1074.202
 557  1149.155
 558  1162.223
 559  1173.82
 560  1117.426
 561  1035.856
 562  1009.241
 563  1121.76
 564  1364.954
 565  1414.669
 566  1285.251
 567  1274.497
 568  1297.915
 569  1305.662
 570  1420.851
 571  1512.784
 572  1476.833
 573  1462.427
 574  1404.86
 575  1456.647
 576  1415.306
 577  1434.761
 578  1397.492
 579  1168.338
 580  1180.758
 581  1271.496
 582  1319.189
 583  1298.424
 584  1324.871
 585  1390.749
 586  1496.996
 587  1403.629
 588  1530.628
 589  1518.918
 590  1439.455
 591  1471.956
 592  1463.196
 593  1497.036
 594  1306.714
 595  1217.893
 596  1234.16
 597  1232.657
 598  1241.84
 599  1317.724
 600  1434.728
 601  1531.352
 602  1568.712
 603  1625.591
 604  1614.072
 605  1558.161
 606  1622.302
 607  1846.115
 608  1796.14
 609  1823.583
 610  1784.296
 611  1939.291
 612  2032.425
 613  2072.391
 614  2086.635
 615  2053.94
 616  2011.667
 617  1917.044
 618  1807.288
 619  1696.677
 620  1623.37
 621  1602.572
 622  1639.363
 623  1578.691
 624  1570.123
 625  1681.728
 626  1642.306
 627  1629.288
 628  1573.535
 629  1496.738
 630  1491.708
 631  1410.177
 632  1448.536
 633  1327.241
 634  1359.669
 635  1415.44
 636  1399.144
 637  1411.531
 638  1462.868
 639  1472.517
 640  1566.311
 641  1464.569
 642  1426.852
 643  1367.992
 644  1414.55
 645  1617.334
 646  1650.361
 647  1589.73
 648  1558.759
 649  1475.506
 650  1432.664
 651  1356.324
 652  1310.431
 653  1374.808
 654  1431.741
 655  1402.76
 656  1402.781
 657  1340.666
 658  1314.83
 659  1290.163
 660  1310.73
 661  1423.709
 662  1510.874
 663  1470.324
 664  1480.171
 665  1400.581
 666  1422.359
 667  1409.51
 668  1306.131
 669  1229.539
 670  1217.499
 671  1334.917
 672  1417.283
 673  1312.483
 674  1294.919
 675  1362.232
 676  1375.77
 677  1278.835
 678  1146.422
 679  1133.027
 680  1124.545
 681  978.7123
 682  901.617
 683  891.0139
 684  966.6779
 685  1073.093
 686  1090.6
 687  1132.601
 688  1179.896
 689  1088.582
 690  1061.336
 691  888.6893
 692  976.6412
 693  1087.411
 694  1106.977
 695  1074.377
 696  1030.194
 697  1126.233
 698  1147.008
 699  1147.891
 700  1145.674
 701  1091.335
 702  1086.238
 703  1121.545
 704  1200.119
 705  1210.777
 706  1274.311
 707  1210.188
 708  1253.599
 709  1218.109
 710  1100.359
 711  1292.529
 712  1338.662
 713  1352.934
 714  1313.945
 715  1332.616
 716  1443.594
 717  1279.19
 718  1321.215
 719  1321.565
 720  1223.858
 721  1209.572
 722  1200.519
 723  1310.518
 724  1353.965
 725  1264.426
 726  1349.663
 727  1367.539
 728  1325.654
 729  1253.526
 730  1301.343
 731  1310.056
 732  1430.256
 733  1457.45
 734  1604.531
 735  1694.869
 736  1746.42
 737  1783.06
 738  1579.935
 739  1548.453
 740  1421.497
 741  1449.034
 742  1483.329
 743  1430.537
 744  1305.221
 745  1382.754
 746  1523.165
 747  1500.322
 748  1433.927
 749  1319.041
 750  1337.885
 751  1360.621
 752  1392.611
 753  1410.647
 754  1269.244
 755  1279.924
 756  1329.85
 757  1454.552
 758  1313.703
 759  1181.895
 760  1088.856
 761  1109.783
 762  1168.256
 763  1283.165
 764  1414.42
 765  1462.761
 766  1412.848
 767  1320.337
 768  1325.32
 769  1297.224
 770  1294.007
 771  1215.805
 772  1140.516
 773  1146.654
 774  1259.984
 775  1344.37
 776  1544.843
 777  1547.349
 778  1627.897
 779  1807.44
 780  1812.42
 781  1729.091
 782  1443.999
 783  1402.867
 784  1444.3
 785  1428.406
 786  1468.467
 787  1345.934
 788  1369.705
 789  1463.316
 790  1440.882
 791  1398.436
 792  1518.714
 793  1687.368
 794  1761.16
 795  1687.666
 796  1702.318
 797  1764.34
 798  1628.47
 799  1582.03
 800  1528.397
 801  1503.405
 802  1420.098
 803  1322.109
 804  1430.391
 805  1461.231
 806  1480.358
 807  1357.014
 808  1190.118
 809  1167.08
 810  1161.217
 811  1226.23
 812  1400.284
 813  1669.001
 814  1650.57
 815  1687.076
 816  1631.666
 817  1582.887
 818  1370.273
 819  1348.718
 820  1506.571
 821  1506.164
 822  1474.302
 823  1296.974
 824  1251.04
 825  1176.49
 826  1252.338
 827  1254.329
 828  1335.547
 829  1281.679
 830  1291.453
 831  1251.482
 832  1228.853
 833  1281.615
 834  1383.581
 835  1283.073
 836  1302.864
 837  1146.329
 838  1199.233
 839  1205.057
 840  1252.711
 841  1279.631
 842  1272.256
 843  1336.711
 844  1403.636
 845  1464.273
 846  1361.806
 847  1122.157
 848  1081.675
 849  1248.272
 850  1313.356
 851  1303.547
 852  1410.106
 853  1530.531
 854  1663.439
 855  1555.869
 856  1355.443
 857  1379.188
 858  1398.551
 859  1525.089
 860  1529.559
 861  1512.281
 862  1682.497
 863  1716.388
 864  1722.978
 865  1612.707
 866  1588.927
 867  1626.607
 868  1610.291
 869  1508.975
 870  1360.072
 871  1310.641
 872  1299.104
 873  1511.639
 874  1449.665
 875  1393.968
 876  1308.599
 877  1326.693
 878  1426.573
 879  1440.77
 880  1482.352
 881  1450.063
 882  1449.575
 883  1575.201
 884  1508.23
 885  1314.72
 886  1225.558
 887  1193.954
 888  1212.908
 889  1107.235
 890  1172.448
 891  1317.828
 892  1401.32
 893  1407.09
 894  1277.807
 895  1161.249
 896  1264.139
 897  1185.236
 898  1174.039
 899  1082.769
 900  953.971
 901  917.7643
 902  961.2104
 903  1060.102
 904  1147.692
 905  1066.875
 906  1068.425
 907  978.3966
 908  913.1798
 909  1038.596
 910  1195.089
 911  1169.661
 912  1103.091
 913  988.1316
 914  1072.729
 915  1016.035
 916  1033.948
 917  1121.124
 918  1303.529
 919  1276.048
 920  1174.367
 921  1210.777
 922  1306.272
 923  1282.062
 924  1285.057
 925  1364.011
 926  1363.242
 927  1416.177
 928  1483.755
 929  1610.481
 930  1550.858
 931  1540.71
 932  1615.787
 933  1572.667
 934  1445.2
 935  1343.986
 936  1407.483
 937  1530.235
 938  1744.358
 939  1657.438
 940  1746.421
 941  1623.85
 942  1745.986
 943  1709.473
 944  1668.224
 945  1717.626
 946  1668.325
 947  1588.671
 948  1603.626
 949  1596.635
 950  1478.128
 951  1423.133
 952  1442.596
 953  1378.376
 954  1401.151
 955  1431.048
 956  1532.346
 957  1472.215
 958  1544.776
 959  1488.059
 960  1391.524
 961  1400.94
 962  1428.015
 963  1403.015
 964  1424.405
 965  1398.31
 966  1431.299
 967  1423.335
 968  1442.903
 969  1373.336
 970  1252.538
 971  1294.24
 972  1349.313
 973  1468.933
 974  1449.956
 975  1576.36
 976  1592.073
 977  1583.893
 978  1493.134
 979  1559.054
 980  1621.39
 981  1501.033
 982  1431.548
 983  1307.545
 984  1247.77
 985  1259.185
 986  1412.878
 987  1436.668
 988  1391.909
 989  1350.408
 990  1297.571
 991  1248.678
 992  1295.361
 993  1419.754
 994  1427.875
 995  1476.634
 996  1442.833
 997  1485.297
 998  1414.692
 999  1322.86
1000  1287.958
1001  1229.076
1002  1202.955
1003  1185.115
1004  1264.765
1005  1370.539
1006  1384.058
1007  1217.018
1008  1009.093
1009  1009.443
1010  1167.033
1011  1243.056
1012  1166.239
1013  1121.543
1014  1028.374
1015  954.5713
1016  1114.111
1017  1142.385
1018  1234.732
1019  1259.316
1020  1205.67
1021  1221.963
1022  1117.594
1023  1161.926
