# Input file       =  1202725192.1155_cleaned.dat
# Candidate        =  PSR_0332+5434
# Telescope        =  AR
# Epoch_topo       =  58164.430684207175
# Epoch_bary       =  N/A
# T_sample         =  0.002
# Data Folded      =  7208960
# Data Avg         =  -0.226649124333  
# Data StdDev      =  4.76280306603902 
# Profile Bins     =  1024
# Profile Avg      =  -1595.64146155193
# Profile StdDev   =  399.621599820292 
# Reduced chi-sqr  =  0.581
# Prob(Noise)      <  1   (~0.0 sigma)
# P_topo (ms)      =  714.580061930906  +/- 7.71e-05
# P'_topo (s/s)    =  -0                +/- 4.14e-11
# P''_topo (s/s^2) =  0                 +/- 1.86e-14
# P_bary (ms)      =  N/A
# P'_bary (s/s)    =  N/A
# P''_bary (s/s^2) =  N/A
# P_orb (s)        =  N/A
# asin(i)/c (s)    =  N/A
# eccentricity     =  N/A
# w (rad)          =  N/A
# T_peri           =  N/A
######################################################
   0  -1684.431
   1  -1591.322
   2  -1521.421
   3  -1577.333
   4  -1630.637
   5  -1629.231
   6  -1547.535
   7  -1587.196
   8  -1623.159
   9  -1678.701
  10  -1642.028
  11  -1715.197
  12  -1658.764
  13  -1475.813
  14  -1360.643
  15  -1363.199
  16  -1492.669
  17  -1589.461
  18  -1599.734
  19  -1533.001
  20  -1667.672
  21  -1890.021
  22  -1961.264
  23  -1890.331
  24  -1786.94
  25  -1625.949
  26  -1492.388
  27  -1624.105
  28  -1647.216
  29  -1651.368
  30  -1604.447
  31  -1709.424
  32  -1732.353
  33  -1706.653
  34  -1772.857
  35  -1931.34
  36  -1988.248
  37  -1969.422
  38  -1765.087
  39  -1643.841
  40  -1484.745
  41  -1416.672
  42  -1501.886
  43  -1432.078
  44  -1371.294
  45  -1339.646
  46  -1415.434
  47  -1518.007
  48  -1610.59
  49  -1762.326
  50  -1773.332
  51  -1649.179
  52  -1657.99
  53  -1616.44
  54  -1675.056
  55  -1643.966
  56  -1599.531
  57  -1501.25
  58  -1441.686
  59  -1568.051
  60  -1646.816
  61  -1640.23
  62  -1742.962
  63  -1833.126
  64  -1789.683
  65  -1603.213
  66  -1556.049
  67  -1733.736
  68  -1692.176
  69  -1696.707
  70  -1575.74
  71  -1501.017
  72  -1432.828
  73  -1456.721
  74  -1480.455
  75  -1352.92
  76  -1298.587
  77  -1487.322
  78  -1598.7
  79  -1634.162
  80  -1640.271
  81  -1648.245
  82  -1541.838
  83  -1385.901
  84  -1491.362
  85  -1547.841
  86  -1583.164
  87  -1498.476
  88  -1540.658
  89  -1698.342
  90  -1720.048
  91  -1633.839
  92  -1559.485
  93  -1582.833
  94  -1651.298
  95  -1638.269
  96  -1619.995
  97  -1662.308
  98  -1737.967
  99  -1868.691
 100  -1798.84
 101  -1787.918
 102  -1836.792
 103  -1823.139
 104  -1894.889
 105  -1824.883
 106  -1768.715
 107  -1504.19
 108  -1301.77
 109  -1353.973
 110  -1453.072
 111  -1586.989
 112  -1620.839
 113  -1619.54
 114  -1581.34
 115  -1534.021
 116  -1591.378
 117  -1662.08
 118  -1676.328
 119  -1736.549
 120  -1762.112
 121  -1801.859
 122  -1817.852
 123  -1710.15
 124  -1588.788
 125  -1458.942
 126  -1600.848
 127  -1690.584
 128  -1727.725
 129  -1744.603
 130  -1827.787
 131  -1835.896
 132  -1799.357
 133  -1672.586
 134  -1559.162
 135  -1389.646
 136  -1570.449
 137  -1729.087
 138  -1824.668
 139  -1636.385
 140  -1535.641
 141  -1462.99
 142  -1383.586
 143  -1365.828
 144  -1449.875
 145  -1520.529
 146  -1413.711
 147  -1337.914
 148  -1391.189
 149  -1406.301
 150  -1492.842
 151  -1607.668
 152  -1785.097
 153  -1839.982
 154  -1846.219
 155  -1787.974
 156  -1702.875
 157  -1732.457
 158  -1706.337
 159  -1704.48
 160  -1649.477
 161  -1696.354
 162  -1728.422
 163  -1773.052
 164  -1678.592
 165  -1587.017
 166  -1675.555
 167  -1800.407
 168  -1846.626
 169  -1639.911
 170  -1601.685
 171  -1544.365
 172  -1605.211
 173  -1513.333
 174  -1499.544
 175  -1509.333
 176  -1683.926
 177  -1685.6
 178  -1615.444
 179  -1489.519
 180  -1498.619
 181  -1592.871
 182  -1744.485
 183  -1878.734
 184  -1911.851
 185  -1775.84
 186  -1683.017
 187  -1698.55
 188  -1670.221
 189  -1553.396
 190  -1512.222
 191  -1577.296
 192  -1666.637
 193  -1678.577
 194  -1693.867
 195  -1707.572
 196  -1757.936
 197  -1902.104
 198  -1783.258
 199  -1553.75
 200  -1449.308
 201  -1593.69
 202  -1799.193
 203  -1715.579
 204  -1666.946
 205  -1584.763
 206  -1525.443
 207  -1500.328
 208  -1369.832
 209  -1528.855
 210  -1588.015
 211  -1650.54
 212  -1679.381
 213  -1592.168
 214  -1460.434
 215  -1422.379
 216  -1479.586
 217  -1630.598
 218  -1606.914
 219  -1679.292
 220  -1671.835
 221  -1592.335
 222  -1651.478
 223  -1542.585
 224  -1627.685
 225  -1644.468
 226  -1578.721
 227  -1564.216
 228  -1439.2
 229  -1479.224
 230  -1555.767
 231  -1791.213
 232  -1975.953
 233  -1970.243
 234  -1825.138
 235  -1692.599
 236  -1610.755
 237  -1727.4
 238  -1602.826
 239  -1440.863
 240  -1482.279
 241  -1504.51
 242  -1504.824
 243  -1383.034
 244  -1560.639
 245  -1694.091
 246  -1738.624
 247  -1834.016
 248  -1779.245
 249  -1833.827
 250  -1777.69
 251  -1753.9
 252  -1684.913
 253  -1536.326
 254  -1581.943
 255  -1595.455
 256  -1657.362
 257  -1489.057
 258  -1403.73
 259  -1393.28
 260  -1423.259
 261  -1439.638
 262  -1422.755
 263  -1473.643
 264  -1514.212
 265  -1618.327
 266  -1653.02
 267  -1709.137
 268  -1754.735
 269  -1751.659
 270  -1649.969
 271  -1571.94
 272  -1513.749
 273  -1498.191
 274  -1447.549
 275  -1498.095
 276  -1567.025
 277  -1481.62
 278  -1439.857
 279  -1368.053
 280  -1451.784
 281  -1506.612
 282  -1682.348
 283  -1784.457
 284  -1825.09
 285  -1795.018
 286  -1681.579
 287  -1578.052
 288  -1478.437
 289  -1544.784
 290  -1609.719
 291  -1585.224
 292  -1520.246
 293  -1525.735
 294  -1633.46
 295  -1596.843
 296  -1631.509
 297  -1550.379
 298  -1603.212
 299  -1621.014
 300  -1787.415
 301  -1778.004
 302  -1598.486
 303  -1466.454
 304  -1435.072
 305  -1538.724
 306  -1530.443
 307  -1430.558
 308  -1500.929
 309  -1569.109
 310  -1758.553
 311  -1703.869
 312  -1771.885
 313  -1742.303
 314  -1706.808
 315  -1672.899
 316  -1595.674
 317  -1581.816
 318  -1549.009
 319  -1614.909
 320  -1692.375
 321  -1705.747
 322  -1587.777
 323  -1645.643
 324  -1557.908
 325  -1726.018
 326  -1555.95
 327  -1608.872
 328  -1643.801
 329  -1604.688
 330  -1640.048
 331  -1497.034
 332  -1702.477
 333  -1715.737
 334  -1750.699
 335  -1757.968
 336  -1665.922
 337  -1576.03
 338  -1324.43
 339  -1262.729
 340  -1222.224
 341  -1193.487
 342  -1342.076
 343  -1556.118
 344  -1615.812
 345  -1528.572
 346  -1604.787
 347  -1641.977
 348  -1664.255
 349  -1578.471
 350  -1542.047
 351  -1405.654
 352  -1435.294
 353  -1503.562
 354  -1507.818
 355  -1471.642
 356  -1573.438
 357  -1603.37
 358  -1498.071
 359  -1397.836
 360  -1555.249
 361  -1564.238
 362  -1553.856
 363  -1576.097
 364  -1689.336
 365  -1730.864
 366  -1646.082
 367  -1690.497
 368  -1638.482
 369  -1511.069
 370  -1518.838
 371  -1567.014
 372  -1590.302
 373  -1535.677
 374  -1543.835
 375  -1695.715
 376  -1685.866
 377  -1749.979
 378  -1716.011
 379  -1713.331
 380  -1593.82
 381  -1414.584
 382  -1465.225
 383  -1526.503
 384  -1548.875
 385  -1584.957
 386  -1490.555
 387  -1507.235
 388  -1492.882
 389  -1573.497
 390  -1628.028
 391  -1625.553
 392  -1771.65
 393  -1854.849
 394  -1811.305
 395  -1848.282
 396  -1898.855
 397  -2043.463
 398  -1890.436
 399  -1811.134
 400  -1727.775
 401  -1717.919
 402  -1703.357
 403  -1824.583
 404  -1796.374
 405  -1572.799
 406  -1396.657
 407  -1441.153
 408  -1506.433
 409  -1422.66
 410  -1501.808
 411  -1798.416
 412  -1866.406
 413  -1896.854
 414  -1851.836
 415  -1773.852
 416  -1773.412
 417  -1794.61
 418  -1819.694
 419  -1731.418
 420  -1655.544
 421  -1662.044
 422  -1539.549
 423  -1407.471
 424  -1450.052
 425  -1544.554
 426  -1770.358
 427  -1765.618
 428  -1775.574
 429  -1615.567
 430  -1485.255
 431  -1503.513
 432  -1553.212
 433  -1584.811
 434  -1505.671
 435  -1520.249
 436  -1574.658
 437  -1604
 438  -1579.197
 439  -1557.343
 440  -1605.345
 441  -1690.189
 442  -1621.432
 443  -1539.153
 444  -1473.428
 445  -1667.093
 446  -1763.395
 447  -1782.336
 448  -1773.473
 449  -1756.646
 450  -1748.763
 451  -1698.92
 452  -1682.359
 453  -1683.625
 454  -1560.332
 455  -1467.429
 456  -1454.846
 457  -1490.16
 458  -1650.146
 459  -1692.751
 460  -1656.211
 461  -1605.459
 462  -1604.031
 463  -1721.014
 464  -1757.272
 465  -1775.701
 466  -1918.933
 467  -1908.807
 468  -1991.743
 469  -1877.076
 470  -1890.474
 471  -1713.336
 472  -1472.344
 473  -1285.387
 474  -1282.543
 475  -1388.193
 476  -1469.132
 477  -1598.062
 478  -1713.893
 479  -1719.115
 480  -1726.14
 481  -1671.21
 482  -1735.857
 483  -1888.321
 484  -1840.562
 485  -1749.55
 486  -1525.051
 487  -1403.638
 488  -1475.13
 489  -1491.035
 490  -1470.425
 491  -1522.589
 492  -1694.96
 493  -1737.363
 494  -1596.421
 495  -1570.576
 496  -1544.276
 497  -1639.407
 498  -1724.036
 499  -1714.263
 500  -1598.197
 501  -1454.886
 502  -1469.487
 503  -1476.684
 504  -1521.248
 505  -1637.07
 506  -1676.951
 507  -1621.034
 508  -1610.153
 509  -1522.604
 510  -1587.01
 511  -1474.87
 512  -1540.977
 513  -1555.324
 514  -1556.354
 515  -1566.407
 516  -1640.162
 517  -1712.414
 518  -1736.098
 519  -1661.402
 520  -1593.067
 521  -1599.523
 522  -1631.322
 523  -1700.577
 524  -1687.96
 525  -1738.168
 526  -1699.157
 527  -1688.727
 528  -1607.061
 529  -1710.152
 530  -1892.694
 531  -1853.107
 532  -1697.907
 533  -1648.933
 534  -1697.174
 535  -1612.105
 536  -1482.464
 537  -1415.85
 538  -1528.6
 539  -1533.075
 540  -1662.179
 541  -1777.779
 542  -1777.992
 543  -1827.099
 544  -1875.847
 545  -1886.053
 546  -1720.427
 547  -1661.935
 548  -1687.292
 549  -1723.603
 550  -1601.953
 551  -1539.84
 552  -1547.666
 553  -1563.926
 554  -1510.669
 555  -1536.964
 556  -1649.992
 557  -1746.933
 558  -1822.179
 559  -1921.591
 560  -1893.688
 561  -1773.132
 562  -1830.223
 563  -1772.2
 564  -1750.973
 565  -1581.658
 566  -1634.806
 567  -1680.282
 568  -1645.473
 569  -1606.849
 570  -1527.117
 571  -1629.554
 572  -1639.05
 573  -1708.994
 574  -1585.785
 575  -1467.904
 576  -1391.331
 577  -1492.767
 578  -1576.737
 579  -1575.106
 580  -1590.854
 581  -1685.338
 582  -1686.093
 583  -1601.883
 584  -1528.764
 585  -1440.628
 586  -1470.031
 587  -1521.066
 588  -1653.667
 589  -1693.103
 590  -1645.999
 591  -1723.902
 592  -1894.539
 593  -1930.916
 594  -1793.416
 595  -1607.983
 596  -1649.897
 597  -1616.471
 598  -1628.573
 599  -1528.499
 600  -1395.361
 601  -1465.813
 602  -1407.955
 603  -1297.425
 604  -1063.287
 605  -959.9536
 606  -1074.886
 607  -964.7183
 608  -1016.869
 609  -981.6807
 610  -897.1852
 611  -843.488
 612  -775.1808
 613  -706.9753
 614  -681.5726
 615  -788.9612
 616  -943.342
 617  -951.5946
 618  -1031.7
 619  -1143.219
 620  -1248.141
 621  -1343.148
 622  -1497.601
 623  -1648.7
 624  -1619.686
 625  -1544.77
 626  -1554.286
 627  -1519.362
 628  -1567.883
 629  -1566.43
 630  -1707.618
 631  -1729.361
 632  -1679.304
 633  -1541.408
 634  -1385.35
 635  -1212.695
 636  -1325.873
 637  -1310.525
 638  -1302.5
 639  -1287.804
 640  -1422.577
 641  -1548.809
 642  -1498.503
 643  -1596.512
 644  -1594.43
 645  -1691.258
 646  -1750.359
 647  -1837.587
 648  -1810.478
 649  -1763.54
 650  -1703.223
 651  -1672.534
 652  -1554.993
 653  -1410.027
 654  -1344.754
 655  -1391.287
 656  -1557.369
 657  -1663.119
 658  -1811.101
 659  -1817.518
 660  -1719.969
 661  -1710.781
 662  -1733.518
 663  -1735.551
 664  -1548.118
 665  -1492.956
 666  -1403.866
 667  -1407.802
 668  -1449.052
 669  -1481.554
 670  -1544.085
 671  -1632.382
 672  -1797.516
 673  -1890.886
 674  -1881.927
 675  -1808.889
 676  -1726.107
 677  -1675.936
 678  -1661.161
 679  -1716.273
 680  -1680.722
 681  -1674.212
 682  -1692.344
 683  -1663.602
 684  -1451.298
 685  -1393.261
 686  -1493.147
 687  -1669.281
 688  -1712.52
 689  -1766.731
 690  -1712.758
 691  -1628.574
 692  -1620.533
 693  -1674.145
 694  -1642.115
 695  -1565.604
 696  -1509.85
 697  -1547.889
 698  -1584.277
 699  -1638.236
 700  -1610.462
 701  -1566.92
 702  -1429.792
 703  -1366.01
 704  -1368.228
 705  -1420.228
 706  -1542.722
 707  -1585.612
 708  -1600.928
 709  -1491.141
 710  -1523.52
 711  -1635.966
 712  -1755.486
 713  -1758.229
 714  -1803.893
 715  -1841.901
 716  -1739.051
 717  -1691.471
 718  -1617.37
 719  -1563.575
 720  -1559.689
 721  -1598.005
 722  -1674.319
 723  -1742.263
 724  -1796.601
 725  -1798.053
 726  -1694.27
 727  -1598.432
 728  -1538.791
 729  -1534.497
 730  -1456.501
 731  -1451.407
 732  -1453.371
 733  -1593.544
 734  -1585.95
 735  -1592.167
 736  -1606.464
 737  -1681.011
 738  -1637.391
 739  -1677.222
 740  -1687.885
 741  -1708.032
 742  -1689.973
 743  -1705.654
 744  -1615.541
 745  -1379.011
 746  -1310.254
 747  -1470.376
 748  -1695.653
 749  -1699.424
 750  -1678.683
 751  -1559.669
 752  -1487.245
 753  -1475.764
 754  -1671.201
 755  -1715.641
 756  -1645.198
 757  -1618.503
 758  -1613.135
 759  -1606.159
 760  -1517.968
 761  -1669.74
 762  -1809.039
 763  -1836.857
 764  -1877.241
 765  -1903.033
 766  -1788.774
 767  -1490.398
 768  -1269.195
 769  -1264.643
 770  -1202.288
 771  -1233.178
 772  -1263.608
 773  -1449.187
 774  -1558.612
 775  -1706.758
 776  -1762.644
 777  -1570.58
 778  -1526.159
 779  -1647.379
 780  -1843.182
 781  -1826.421
 782  -1630.834
 783  -1517.013
 784  -1382.348
 785  -1433.766
 786  -1335.992
 787  -1331.829
 788  -1439.493
 789  -1737.818
 790  -1866.043
 791  -1783.47
 792  -1639.016
 793  -1686.377
 794  -1672.604
 795  -1569.515
 796  -1451.313
 797  -1433.61
 798  -1399.764
 799  -1427.894
 800  -1573.687
 801  -1595.887
 802  -1519.172
 803  -1466.875
 804  -1506.736
 805  -1592.592
 806  -1673.463
 807  -1878.712
 808  -1820.571
 809  -1709.09
 810  -1588.826
 811  -1588.785
 812  -1613.904
 813  -1679.378
 814  -1808.854
 815  -1801.756
 816  -1678.5
 817  -1481.089
 818  -1482.706
 819  -1550.132
 820  -1760.595
 821  -1853.673
 822  -1775.862
 823  -1687.156
 824  -1584.81
 825  -1539.825
 826  -1485.935
 827  -1521.506
 828  -1668.138
 829  -1710.342
 830  -1707.228
 831  -1474.967
 832  -1378.535
 833  -1343.334
 834  -1434.368
 835  -1566.984
 836  -1578.446
 837  -1517.844
 838  -1455.928
 839  -1461.576
 840  -1600.087
 841  -1731.355
 842  -1850.385
 843  -1799.755
 844  -1718.769
 845  -1678.6
 846  -1657.709
 847  -1766.308
 848  -1666.05
 849  -1646.834
 850  -1669.741
 851  -1619.558
 852  -1535.59
 853  -1469.359
 854  -1567.176
 855  -1709.083
 856  -1724.79
 857  -1776.224
 858  -1656.795
 859  -1619.457
 860  -1684.265
 861  -1671.248
 862  -1622.135
 863  -1480.065
 864  -1558.787
 865  -1555.54
 866  -1514.734
 867  -1444.164
 868  -1461.518
 869  -1508.332
 870  -1519.175
 871  -1572.832
 872  -1476.612
 873  -1446.403
 874  -1327.862
 875  -1585.222
 876  -1633.307
 877  -1729.507
 878  -1692.645
 879  -1837.627
 880  -1791.659
 881  -1665.95
 882  -1360.991
 883  -1404.919
 884  -1493.476
 885  -1683.838
 886  -1664.631
 887  -1722.261
 888  -1717.51
 889  -1723.906
 890  -1535.028
 891  -1501.09
 892  -1552.805
 893  -1621.694
 894  -1713.07
 895  -1817.536
 896  -1788.131
 897  -1568.297
 898  -1398.711
 899  -1497.568
 900  -1351.225
 901  -1170.137
 902  -1042.805
 903  -1209.341
 904  -1340.787
 905  -1446.271
 906  -1555.74
 907  -1702.715
 908  -1744.317
 909  -1713.932
 910  -1511.742
 911  -1453.229
 912  -1403.381
 913  -1481.665
 914  -1480.148
 915  -1397.742
 916  -1488.926
 917  -1510.522
 918  -1539.76
 919  -1426.628
 920  -1607.899
 921  -1802.943
 922  -1810.792
 923  -1720.291
 924  -1613.375
 925  -1606.315
 926  -1625.376
 927  -1709.937
 928  -1661
 929  -1600.156
 930  -1535.204
 931  -1499.632
 932  -1383.429
 933  -1407.945
 934  -1459.252
 935  -1335.983
 936  -1269.419
 937  -1291.176
 938  -1549.845
 939  -1643.896
 940  -1783.384
 941  -1715.099
 942  -1680.138
 943  -1557.794
 944  -1476.978
 945  -1415.086
 946  -1457.148
 947  -1486.413
 948  -1693.212
 949  -1680.982
 950  -1686.187
 951  -1557.024
 952  -1607.788
 953  -1576.958
 954  -1493.387
 955  -1423.466
 956  -1614.132
 957  -1775.618
 958  -1902.002
 959  -1823.226
 960  -1733.669
 961  -1592.851
 962  -1534.488
 963  -1599.094
 964  -1552.733
 965  -1327.031
 966  -1274.899
 967  -1277.844
 968  -1420.601
 969  -1262.935
 970  -1409.938
 971  -1430.63
 972  -1584.984
 973  -1713.701
 974  -1849.832
 975  -1846.927
 976  -1628.782
 977  -1682.841
 978  -1646.167
 979  -1589.844
 980  -1434.701
 981  -1436.771
 982  -1283.768
 983  -1324.318
 984  -1455.548
 985  -1727.746
 986  -1687.489
 987  -1758.885
 988  -1699.039
 989  -1670.814
 990  -1590.976
 991  -1744.143
 992  -1740.608
 993  -1763.108
 994  -1582.541
 995  -1650.746
 996  -1562.112
 997  -1585.416
 998  -1477.449
 999  -1437.158
1000  -1310.859
1001  -1284.633
1002  -1343.531
1003  -1360.601
1004  -1304.531
1005  -1461.817
1006  -1601.566
1007  -1631.054
1008  -1569.457
1009  -1582.279
1010  -1720.677
1011  -1626.924
1012  -1598.913
1013  -1602.451
1014  -1454.606
1015  -1444.983
1016  -1352.925
1017  -1329.952
1018  -1363.945
1019  -1303.323
1020  -1498.078
1021  -1583.988
1022  -1718.754
1023  -1782.053
