# Input file       =  1202050963.106889_cleaned.dat
# Candidate        =  PSR_0332+5434
# Telescope        =  AR
# Epoch_topo       =  58156.627107718625
# Epoch_bary       =  N/A
# T_sample         =  0.002
# Data Folded      =  7340032
# Data Avg         =  0.0458034286988054
# Data StdDev      =  1.00020822908992 
# Profile Bins     =  512
# Profile Avg      =  656.492207715073 
# Profile StdDev   =  119.757968277965 
# Reduced chi-sqr  =  1.040
# Prob(Noise)      <  0.259   (~0.6 sigma)
# P_topo (ms)      =  714.578280623514  +/- 0.000495
# P'_topo (s/s)    =  -0                +/- 2.61e-10
# P''_topo (s/s^2) =  0                 +/- 1.15e-13
# P_bary (ms)      =  N/A
# P'_bary (s/s)    =  N/A
# P''_bary (s/s^2) =  N/A
# P_orb (s)        =  N/A
# asin(i)/c (s)    =  N/A
# eccentricity     =  N/A
# w (rad)          =  N/A
# T_peri           =  N/A
######################################################
   0  545.3018
   1  538.7027
   2  549.0363
   3  679.0067
   4  768.8028
   5  860.5086
   6  646.5508
   7  596.5109
   8  606.6899
   9  676.09
  10  687.2517
  11  680.105
  12  715.7393
  13  725.905
  14  739.3972
  15  678.3293
  16  624.2059
  17  692.5219
  18  706.8783
  19  702.6519
  20  692.4318
  21  585.0528
  22  580.7792
  23  641.1694
  24  652.0657
  25  677.3593
  26  804.9951
  27  710.9451
  28  728.3795
  29  760.5407
  30  694.1127
  31  595.4424
  32  710.7179
  33  717.3469
  34  685.129
  35  772.8586
  36  747.7081
  37  776.6514
  38  763.0346
  39  746.0562
  40  751.1927
  41  664.2266
  42  690.805
  43  684.1572
  44  701.4379
  45  742.6857
  46  678.5941
  47  725.0287
  48  722.7097
  49  702.7973
  50  762.1739
  51  644.0714
  52  603.1987
  53  748.7949
  54  687.4978
  55  738.2089
  56  695.3788
  57  738.2786
  58  691.4682
  59  729.562
  60  761.5485
  61  813.8214
  62  827.6427
  63  757.3035
  64  740.5676
  65  683.9108
  66  666.5512
  67  635.2209
  68  595.8691
  69  664.6122
  70  694.159
  71  752.0787
  72  731.5732
  73  669.4143
  74  715.7348
  75  776.2852
  76  833.5795
  77  768.1128
  78  777.7703
  79  701.9646
  80  698.3141
  81  695.2661
  82  779.9966
  83  737.0373
  84  823.6085
  85  765.3866
  86  637.8046
  87  656.0778
  88  620.809
  89  594.9359
  90  608.5681
  91  689.6776
  92  686.3151
  93  754.35
  94  681.0392
  95  615.2047
  96  647.0024
  97  720.5291
  98  617.002
  99  631.1453
 100  611.8087
 101  654.5654
 102  728.1661
 103  680.8085
 104  610.7366
 105  602.1558
 106  694.4271
 107  599.6345
 108  672.4619
 109  659.4368
 110  595.5168
 111  667.1252
 112  793.0566
 113  763.718
 114  712.6699
 115  726.8209
 116  681.2123
 117  702.0466
 118  730.0395
 119  734.0955
 120  702.6846
 121  651.5616
 122  603.9743
 123  613.995
 124  601.5555
 125  612.8491
 126  626.1909
 127  641.4365
 128  668.3073
 129  642.6858
 130  628.1617
 131  638.9624
 132  652.4999
 133  660.2129
 134  676.858
 135  727.0427
 136  746.4073
 137  700.8508
 138  606.5493
 139  658.1692
 140  652.5658
 141  606.2926
 142  720.0821
 143  732.5297
 144  722.4002
 145  760.3536
 146  706.4106
 147  708.5721
 148  696.2485
 149  762.7895
 150  654.6957
 151  557.0585
 152  640.1456
 153  748.6685
 154  652.8166
 155  578.3452
 156  630.1964
 157  603.811
 158  610.4682
 159  653.3408
 160  693.5729
 161  646.6183
 162  658.0679
 163  627.8007
 164  677.507
 165  666.0571
 166  687.3716
 167  666.8664
 168  709.5297
 169  691.21
 170  742.533
 171  767.8024
 172  664.3296
 173  632.4645
 174  673.0294
 175  737.8417
 176  792.6622
 177  784.8171
 178  836.7352
 179  806.7321
 180  717.8371
 181  747.9149
 182  669.228
 183  676.4202
 184  809.0427
 185  782.7614
 186  675.035
 187  717.8571
 188  668.7391
 189  758.9608
 190  771.6186
 191  672.6309
 192  726.7733
 193  722.5643
 194  725.1974
 195  670.0589
 196  724.8552
 197  834.2896
 198  654.5964
 199  596.2056
 200  640.6905
 201  680.1826
 202  626.9587
 203  554.6273
 204  663.7483
 205  802.6629
 206  708.5488
 207  583.2728
 208  616.1532
 209  611.2525
 210  631.135
 211  611.5913
 212  575.4339
 213  572.2637
 214  605.8294
 215  574.2983
 216  584.2117
 217  603.3768
 218  640.6751
 219  574.2194
 220  611.2335
 221  566.012
 222  524.8093
 223  534.962
 224  619.1395
 225  591.2864
 226  576.9678
 227  649.3241
 228  638.3141
 229  694.8824
 230  612.5896
 231  585.2809
 232  574.6046
 233  574.205
 234  617.2827
 235  570.3123
 236  599.1945
 237  575.3712
 238  554.867
 239  541.4752
 240  487.6738
 241  554.2654
 242  646.8241
 243  665.2576
 244  649.9548
 245  556.7996
 246  455.5192
 247  550.6884
 248  577.3216
 249  660.069
 250  642.3314
 251  635.3944
 252  571.7136
 253  503.5408
 254  448.4749
 255  565.3738
 256  615.5646
 257  551.993
 258  547.8386
 259  474.3775
 260  475.0511
 261  493.1377
 262  664.3773
 263  633.6083
 264  576.7573
 265  587.5607
 266  549.6583
 267  538.6935
 268  583.4517
 269  583.5797
 270  550.7365
 271  635.6728
 272  672.9066
 273  692.5453
 274  561.5399
 275  499.8271
 276  536.3113
 277  497.8207
 278  533.8622
 279  587.564
 280  582.0281
 281  577.8189
 282  534.2485
 283  523.4165
 284  563.6504
 285  608.2213
 286  637.2288
 287  669.2242
 288  555.5446
 289  552.1808
 290  662.3672
 291  707.2014
 292  579.7045
 293  547.6454
 294  571.9543
 295  559.3188
 296  652.9117
 297  674.9324
 298  677.1679
 299  784.059
 300  879.6365
 301  952.9432
 302  1058.076
 303  1074.041
 304  1099.393
 305  1138.202
 306  1048.738
 307  793.2665
 308  645.3262
 309  627.0939
 310  593.517
 311  640.8287
 312  644.8441
 313  546.3843
 314  603.2071
 315  713.2999
 316  753.8211
 317  665.1985
 318  671.6439
 319  699.1187
 320  707.8224
 321  698.3588
 322  685.3754
 323  723.4641
 324  790.4075
 325  740.2267
 326  671.7039
 327  732.7829
 328  673.6058
 329  692.5264
 330  665.8588
 331  714.4735
 332  615.4363
 333  611.9921
 334  542.7155
 335  549.3682
 336  625.8456
 337  710.9391
 338  693.4948
 339  481.96
 340  606.8232
 341  620.3285
 342  518.0457
 343  558.3978
 344  663.6494
 345  644.2697
 346  602.6258
 347  570.8206
 348  608.777
 349  696.3712
 350  692.3796
 351  704.7565
 352  646.1339
 353  586.4943
 354  591.6588
 355  542.2485
 356  607.3339
 357  640.201
 358  762.5706
 359  707.338
 360  593.742
 361  589.5097
 362  647.269
 363  640.3455
 364  618.5061
 365  644.2087
 366  767.2349
 367  782.2713
 368  644.4874
 369  594.7639
 370  667.8968
 371  710.2125
 372  595.5197
 373  564.3057
 374  612.2811
 375  702.7193
 376  699.3732
 377  583.4223
 378  611.8342
 379  609.6843
 380  570.305
 381  680.7685
 382  701.1899
 383  640.0458
 384  620.6735
 385  698.8853
 386  683.6752
 387  631.9396
 388  549.1254
 389  476.4582
 390  511.5233
 391  504.6359
 392  529.134
 393  552.4673
 394  490.2528
 395  554.0514
 396  628.6339
 397  565.8243
 398  494.0554
 399  464.5891
 400  553.0573
 401  604.4795
 402  508.7468
 403  543.3738
 404  576.5893
 405  701.035
 406  653.8382
 407  652.9496
 408  652.5418
 409  614.2563
 410  610.2355
 411  610.7294
 412  692.9709
 413  626.019
 414  577.8011
 415  527.0759
 416  537.2795
 417  467.962
 418  516.5278
 419  652.4337
 420  712.6223
 421  602.3704
 422  678.3543
 423  668.4693
 424  613.1552
 425  595.3805
 426  650.6994
 427  607.4266
 428  593.4076
 429  570.1757
 430  519.5585
 431  570.0257
 432  615.8126
 433  696.6058
 434  604.5491
 435  713.9572
 436  781.1773
 437  746.156
 438  715.9216
 439  698.697
 440  661.4887
 441  688.1317
 442  690.5886
 443  571.5477
 444  588.3057
 445  701.5262
 446  624.0806
 447  678.4255
 448  616.0834
 449  568.42
 450  624.0813
 451  594.7209
 452  563.8187
 453  511.4869
 454  538.1271
 455  623.4058
 456  672.1968
 457  573.1049
 458  633.2203
 459  643.6005
 460  658.41
 461  670.8676
 462  652.6098
 463  633.0933
 464  741.7299
 465  747.3101
 466  734.9954
 467  650.8184
 468  549.682
 469  609.6163
 470  689.2819
 471  642.9151
 472  646.9083
 473  686.9793
 474  705.6404
 475  664.4533
 476  569.2581
 477  650.6861
 478  644.1055
 479  672.0387
 480  786.101
 481  716.9337
 482  706.2205
 483  718.2697
 484  739.4832
 485  806.0499
 486  843.6
 487  707.8105
 488  669.562
 489  654.7752
 490  684.5516
 491  735.4448
 492  771.7197
 493  749.1989
 494  721.934
 495  655.2084
 496  720.5182
 497  694.9086
 498  679.4116
 499  642.2327
 500  719.838
 501  647.1778
 502  624.0694
 503  571.9786
 504  679.0959
 505  691.2253
 506  637.3722
 507  648.4467
 508  677.4273
 509  530.8311
 510  479.9778
 511  546.357
