# Input file       =  1202323790.104277_cleaned.dat
# Candidate        =  PSR_0332+5434
# Telescope        =  AR
# Epoch_topo       =  58159.784827595795
# Epoch_bary       =  N/A
# T_sample         =  0.002
# Data Folded      =  7340032
# Data Avg         =  0.104289138814368
# Data StdDev      =  3.67834671638058 
# Profile Bins     =  1024
# Profile Avg      =  747.612339236608 
# Profile StdDev   =  311.423700717249 
# Reduced chi-sqr  =  0.588
# Prob(Noise)      <  1   (~0.0 sigma)
# P_topo (ms)      =  714.579473926355  +/- 0.000464
# P'_topo (s/s)    =  -0                +/- 2.45e-10
# P''_topo (s/s^2) =  0                 +/- 1.08e-13
# P_bary (ms)      =  N/A
# P'_bary (s/s)    =  N/A
# P''_bary (s/s^2) =  N/A
# P_orb (s)        =  N/A
# asin(i)/c (s)    =  N/A
# eccentricity     =  N/A
# w (rad)          =  N/A
# T_peri           =  N/A
######################################################
   0  461.4943
   1  574.0933
   2  674.7249
   3  789.0062
   4  740.5423
   5  725.9938
   6  646.1588
   7  700.7852
   8  742.6765
   9  686.0736
  10  643.2945
  11  628.2098
  12  653.2999
  13  717.2297
  14  765.775
  15  841.3126
  16  812.8475
  17  764.9809
  18  707.2063
  19  694.7956
  20  646.3639
  21  618.6301
  22  582.3941
  23  729.1423
  24  793.683
  25  823.3588
  26  770.6761
  27  801.461
  28  865.3205
  29  863.8024
  30  845.4231
  31  707.4688
  32  564.3078
  33  503.2741
  34  580.4446
  35  750.1713
  36  821.3259
  37  842.7617
  38  752.4885
  39  750.0933
  40  663.42
  41  746.9367
  42  904.3695
  43  979.0241
  44  937.934
  45  856.9102
  46  919.4605
  47  919.4714
  48  849.0969
  49  885.1844
  50  975.7544
  51  991.1859
  52  886.4796
  53  713.2042
  54  668.3431
  55  627.1835
  56  717.2181
  57  805.6013
  58  872.2548
  59  744.0176
  60  798.7201
  61  862.9257
  62  868.2594
  63  743.7158
  64  552.1707
  65  543.4156
  66  609.5467
  67  741.2765
  68  741.6854
  69  745.903
  70  780.2733
  71  894.7585
  72  952.346
  73  880.1067
  74  825.1962
  75  851.0984
  76  847.204
  77  844.6302
  78  867.5648
  79  877.4948
  80  780.2172
  81  684.6138
  82  771.4192
  83  809.2857
  84  735.8339
  85  823.8398
  86  968.1518
  87  1104.147
  88  946.2626
  89  879.8009
  90  926.0944
  91  943.6506
  92  838.7244
  93  708.1027
  94  687.3134
  95  650.0458
  96  645.3174
  97  713.6901
  98  713.5811
  99  780.4963
 100  822.7448
 101  863.6744
 102  890.9163
 103  811.1978
 104  881.1902
 105  880.6158
 106  838.3953
 107  740.1261
 108  830.1685
 109  878.4575
 110  771.134
 111  529.1139
 112  624.2634
 113  703.47
 114  847.8774
 115  829.5059
 116  758.4797
 117  700.2342
 118  656.1003
 119  724.42
 120  693.6425
 121  858.4917
 122  959.6445
 123  1147.441
 124  1056.712
 125  1049.527
 126  950.9055
 127  910.4265
 128  802.3849
 129  747.076
 130  670.3421
 131  554.4913
 132  516.1178
 133  646.6192
 134  704.2772
 135  739.4686
 136  697.5008
 137  728.4962
 138  699.0038
 139  762.0731
 140  812.8373
 141  962.7579
 142  849.7949
 143  751.2562
 144  661.8906
 145  757.7724
 146  900.1437
 147  841.1892
 148  781.1635
 149  758.24
 150  709.7354
 151  673.9943
 152  683.0939
 153  668.7054
 154  678.9761
 155  757.2291
 156  853.9752
 157  850.0658
 158  834.9806
 159  778.946
 160  725.9155
 161  739.9357
 162  805.9938
 163  786.414
 164  752.9841
 165  723.4475
 166  696.0195
 167  674.0538
 168  657.9255
 169  660.3882
 170  669.3204
 171  770.5924
 172  781.0588
 173  740.965
 174  660.9095
 175  643.7864
 176  773.6113
 177  802.4564
 178  782.4459
 179  785.4603
 180  739.2511
 181  706.3515
 182  651.9594
 183  736.8735
 184  746.4586
 185  829.1808
 186  805.885
 187  815.6443
 188  709.2178
 189  668.8525
 190  729.4459
 191  817.928
 192  813.9572
 193  836.0287
 194  748.3149
 195  633.9544
 196  577.4423
 197  667.116
 198  704.3329
 199  690.3423
 200  746.1034
 201  792.72
 202  797.4589
 203  601.8431
 204  507.6725
 205  564.8975
 206  627.1396
 207  632.504
 208  549.3564
 209  534.5001
 210  537.5267
 211  607.7761
 212  760.887
 213  809.78
 214  797.8248
 215  855.4133
 216  824.1904
 217  764.3056
 218  695.5861
 219  677.0148
 220  732.3151
 221  786.8427
 222  797.3611
 223  782.6949
 224  743.5778
 225  777.9904
 226  714.5934
 227  667.7007
 228  658.3895
 229  744.1426
 230  813.3267
 231  812.6111
 232  839.1459
 233  921.1707
 234  890.3725
 235  804.6585
 236  778.8334
 237  916.2067
 238  974.7544
 239  881.4265
 240  852.5797
 241  801.2233
 242  815.3697
 243  748.2035
 244  743.9615
 245  778.1269
 246  772.1661
 247  870.4095
 248  806.0397
 249  738.2433
 250  790.5822
 251  859.5248
 252  917.5694
 253  866.3188
 254  859.8345
 255  825.5982
 256  908.0576
 257  964.0963
 258  888.4407
 259  820.2296
 260  717.6944
 261  591.8547
 262  529.7755
 263  605.7512
 264  702.3816
 265  673.3797
 266  667.5002
 267  755.3967
 268  750.8908
 269  707.0195
 270  699.6089
 271  746.618
 272  802.4091
 273  700.7304
 274  516.4907
 275  489.4599
 276  596.2231
 277  794.2314
 278  771.7211
 279  721.0356
 280  772.6718
 281  864.6073
 282  900.2996
 283  833.4141
 284  806.3502
 285  849.7706
 286  806.0829
 287  854.5776
 288  725.5406
 289  666.6971
 290  609.0586
 291  643.546
 292  596.3025
 293  542.499
 294  558.9235
 295  635.8585
 296  644.508
 297  733.1722
 298  777.8085
 299  811.1509
 300  842.4199
 301  872.158
 302  813.916
 303  717.459
 304  694.6206
 305  787.4059
 306  752.7787
 307  737.1849
 308  699.8183
 309  644.6812
 310  559.8446
 311  544.9949
 312  684.664
 313  790.8225
 314  729.808
 315  667.3031
 316  697.5441
 317  803.1172
 318  798.1885
 319  793.6824
 320  711.6403
 321  750.1223
 322  681.3374
 323  636.7515
 324  636.1997
 325  731.6773
 326  731.1854
 327  713.5406
 328  657.132
 329  638.1802
 330  554.6072
 331  538.2624
 332  645.033
 333  853.7798
 334  849.8522
 335  943.2156
 336  917.2722
 337  925.9813
 338  773.7506
 339  716.5138
 340  699.8724
 341  821.608
 342  800.5467
 343  754.2783
 344  674.4786
 345  796.0872
 346  761.7855
 347  722.0324
 348  677.5852
 349  647.9553
 350  663.5853
 351  526.475
 352  554.2949
 353  617.4706
 354  795.1031
 355  829.1881
 356  775.4478
 357  770.6581
 358  766.9236
 359  803.4165
 360  850.9719
 361  847.2028
 362  806.9415
 363  716.697
 364  726.7652
 365  727.1254
 366  791.5922
 367  786.166
 368  755.7003
 369  813.3065
 370  872.9697
 371  873.2465
 372  890.3578
 373  817.7562
 374  813.9158
 375  774.7435
 376  750.0403
 377  796.4382
 378  854.4327
 379  823.5629
 380  743.2647
 381  715.0738
 382  832.144
 383  818.9593
 384  760.5046
 385  625.6464
 386  742.0079
 387  859.3434
 388  926.0681
 389  789.5059
 390  787.5281
 391  942.5018
 392  935.7453
 393  867.7961
 394  660.8219
 395  680.0892
 396  665.9216
 397  790.1842
 398  796.2609
 399  692.8766
 400  626.498
 401  627.9022
 402  724.7952
 403  721.7049
 404  730.1284
 405  781.7292
 406  773.3246
 407  718.7709
 408  601.3849
 409  671.3552
 410  634.962
 411  665.548
 412  729.3773
 413  775.6899
 414  714.6016
 415  587.8262
 416  494.5622
 417  523.1847
 418  790.1106
 419  1012.563
 420  1031.208
 421  896.1112
 422  709.4434
 423  674.9861
 424  697.2197
 425  806.8344
 426  752.9585
 427  673.4967
 428  674.2607
 429  738.2178
 430  763.5467
 431  758.0659
 432  839.66
 433  951.4998
 434  905.805
 435  774.847
 436  706.778
 437  731.8682
 438  737.0797
 439  639.1134
 440  680.0646
 441  678.8958
 442  757.0326
 443  682.3261
 444  715.1887
 445  741.5071
 446  820.7424
 447  727.6052
 448  664.4236
 449  592.0835
 450  644.3236
 451  650.0228
 452  650.1473
 453  636.7311
 454  719.2094
 455  793.9586
 456  783.5694
 457  697.2238
 458  699.8696
 459  657.4751
 460  740.2845
 461  703.2817
 462  779.1069
 463  836.3089
 464  790.1008
 465  793.2161
 466  776.8959
 467  821.2919
 468  694.5312
 469  673.6804
 470  766.8176
 471  898.5526
 472  935.4071
 473  901.476
 474  932.7459
 475  854.9363
 476  844.9364
 477  797.8026
 478  951.0786
 479  993.4011
 480  957.1376
 481  866.4108
 482  800.3351
 483  855.4075
 484  953.7966
 485  887.1823
 486  831.3052
 487  775.9947
 488  826.3705
 489  827.5894
 490  804.2413
 491  832.9687
 492  805.2842
 493  794.2543
 494  838.3097
 495  907.778
 496  917.7763
 497  919.4626
 498  902.5879
 499  933.5778
 500  931.1655
 501  830.5301
 502  741.061
 503  782.0423
 504  830.6899
 505  708.2808
 506  649.0319
 507  646.5754
 508  786.1932
 509  811.5293
 510  878.9867
 511  878.6323
 512  879.5257
 513  933.6568
 514  910.91
 515  912.5654
 516  802.6133
 517  783.882
 518  808.6376
 519  865.5881
 520  828.0299
 521  796.2318
 522  737.6063
 523  837.1832
 524  897.237
 525  923.4543
 526  866.3402
 527  827.51
 528  858.2433
 529  945.4661
 530  950.4804
 531  905.3339
 532  771.2737
 533  808.6578
 534  764.78
 535  779.8677
 536  735.4407
 537  795.0718
 538  706.0807
 539  676.5785
 540  649.059
 541  640.7316
 542  595.8241
 543  697.2315
 544  818.4114
 545  772.3381
 546  599.5047
 547  546.0962
 548  667.4368
 549  659.488
 550  613.5276
 551  580.2397
 552  691.7209
 553  779.08
 554  851.1842
 555  912.5488
 556  892.6445
 557  848.2423
 558  856.6423
 559  782.3302
 560  755.1543
 561  610.9638
 562  686.7686
 563  654.6278
 564  693.2231
 565  653.5597
 566  636.2828
 567  671.8322
 568  631.6422
 569  590.0537
 570  648.9308
 571  659.0867
 572  669.9204
 573  636.4981
 574  761.4767
 575  718.2731
 576  683.3035
 577  578.3308
 578  606.0048
 579  662.0657
 580  786.5302
 581  760.3105
 582  633.8182
 583  554.6783
 584  655.0077
 585  706.0819
 586  621.5766
 587  486.8518
 588  321.5538
 589  463.9605
 590  558.1126
 591  707.6961
 592  662.1296
 593  657.723
 594  648.8882
 595  710.1767
 596  895.8145
 597  857.0969
 598  803.5435
 599  788.4416
 600  917.8018
 601  876.6755
 602  785.7374
 603  719.6923
 604  809.2624
 605  965.8913
 606  917.3057
 607  1008.06
 608  1192.017
 609  1372.147
 610  1407.5
 611  1384.993
 612  1470.157
 613  1447.36
 614  1475.086
 615  1459.013
 616  1435.433
 617  1189.987
 618  994.2349
 619  860.3604
 620  909.7643
 621  813.6606
 622  697.4513
 623  653.2109
 624  728.5184
 625  866.1662
 626  894.3882
 627  848.8385
 628  690.1614
 629  667.3508
 630  704.5505
 631  713.5811
 632  740.2712
 633  763.3022
 634  708.4519
 635  720.1314
 636  710.3867
 637  752.7787
 638  708.1041
 639  733.9332
 640  688.9003
 641  734.4874
 642  661.7692
 643  699.6742
 644  637.2418
 645  683.1593
 646  638.9858
 647  630.5626
 648  616.5945
 649  572.8347
 650  552.8636
 651  677.4167
 652  796.2386
 653  784.6172
 654  715.1802
 655  657.9053
 656  659.9805
 657  686.6969
 658  701.1514
 659  716.9956
 660  795.7044
 661  717.4352
 662  633.7018
 663  563.7336
 664  580.6185
 665  504.9693
 666  575.738
 667  633.4439
 668  730.235
 669  637.388
 670  663.8939
 671  502.9152
 672  427.5401
 673  353.8395
 674  487.4013
 675  565.0592
 676  618.4321
 677  643.5782
 678  720.4294
 679  818.9192
 680  756.3783
 681  642.0242
 682  608.399
 683  612.4962
 684  648.8162
 685  646.6987
 686  599.8771
 687  644.4306
 688  727.8148
 689  812.7624
 690  780.9462
 691  747.7522
 692  670.4842
 693  653.8695
 694  683.006
 695  829.7338
 696  849.3086
 697  858.8841
 698  848.9678
 699  864.3211
 700  837.939
 701  807.4744
 702  756.4105
 703  628.0978
 704  466.0227
 705  450.3571
 706  626.2927
 707  751.5826
 708  884.9501
 709  896.5842
 710  838.5458
 711  789.3991
 712  805.9397
 713  873.7634
 714  830.6579
 715  826.5744
 716  810.6545
 717  765.3088
 718  685.9015
 719  668.4638
 720  650.5036
 721  639.8907
 722  615.5794
 723  661.3698
 724  768.343
 725  807.5509
 726  774.8154
 727  627.2113
 728  488.904
 729  535.7778
 730  520.3694
 731  540.587
 732  560.1227
 733  741.8401
 734  776.3758
 735  734.6272
 736  679.4974
 737  668.8441
 738  668.2785
 739  770.94
 740  745.9736
 741  698.5601
 742  662.0672
 743  680.9764
 744  784.8125
 745  803.4287
 746  834.1035
 747  829.1019
 748  785.3734
 749  684.0179
 750  625.985
 751  627.3126
 752  691.2316
 753  615.0517
 754  656.5013
 755  746.2301
 756  849.6652
 757  764.6904
 758  703.0898
 759  667.5616
 760  717.0353
 761  720.3951
 762  788.8368
 763  776.4711
 764  757.0968
 765  693.8794
 766  682.925
 767  694.5562
 768  672.2264
 769  656.2521
 770  742.2135
 771  786.2744
 772  771.7249
 773  630.0677
 774  536.2496
 775  554.197
 776  628.5038
 777  646.9186
 778  667.8973
 779  702.8376
 780  798.8917
 781  830.0752
 782  810.923
 783  747.2737
 784  726.6926
 785  727.6602
 786  753.6121
 787  728.7679
 788  690.3187
 789  750.0652
 790  863.9854
 791  882.3439
 792  807.2096
 793  804.424
 794  792.8456
 795  783.7072
 796  632.1503
 797  587.4192
 798  626.3576
 799  793.7514
 800  849.1882
 801  682.0701
 802  597.456
 803  650.3719
 804  778.8526
 805  733.3918
 806  672.619
 807  590.6984
 808  584.1425
 809  544.5591
 810  602.1053
 811  607.7799
 812  626.7599
 813  786.8417
 814  902.5995
 815  770.4933
 816  575.999
 817  556.4272
 818  729.577
 819  773.1327
 820  829.9011
 821  740.6292
 822  798.1884
 823  843.6273
 824  886.3956
 825  792.9316
 826  689.2257
 827  670.1454
 828  717.5504
 829  671.2249
 830  829.015
 831  851.467
 832  766.1733
 833  608.409
 834  658.1971
 835  782.608
 836  955.9354
 837  920.9366
 838  933.9323
 839  923.5757
 840  1016.602
 841  1079.486
 842  1067.529
 843  990.7904
 844  883.1414
 845  788.0763
 846  795.6525
 847  811.4548
 848  855.5943
 849  925.1934
 850  1017.711
 851  1081.873
 852  842.9868
 853  678.0417
 854  604.6017
 855  819.8276
 856  871.7281
 857  834.1711
 858  726.939
 859  811.4949
 860  969.517
 861  906.4711
 862  746.046
 863  626.1732
 864  704.0745
 865  694.5167
 866  723.052
 867  605.737
 868  668.448
 869  649.9951
 870  701.3935
 871  666.7864
 872  705.6545
 873  663.595
 874  678.2126
 875  759.0449
 876  756.4908
 877  655.8401
 878  529.3906
 879  549.7993
 880  542.0252
 881  550.9604
 882  597.0571
 883  691.4053
 884  770.5255
 885  785.8749
 886  786.0187
 887  794.8766
 888  779.3057
 889  806.9262
 890  869.5081
 891  909.6404
 892  922.3912
 893  959.265
 894  986.5073
 895  896.6249
 896  893.169
 897  882.6972
 898  852.0001
 899  787.5828
 900  772.5532
 901  859.8744
 902  921.8661
 903  790.0386
 904  732.3961
 905  699.9846
 906  817.1658
 907  727.4966
 908  752.0185
 909  754.3642
 910  845.1807
 911  827.6117
 912  840.2131
 913  793.5486
 914  836.4488
 915  892.7372
 916  970.7235
 917  917.2124
 918  729.4288
 919  524.6649
 920  508.1746
 921  590.8489
 922  603.5684
 923  590.1998
 924  626.4157
 925  637.7459
 926  626.7286
 927  654.5615
 928  687.3252
 929  577.2787
 930  496.5018
 931  476.5275
 932  472.4175
 933  408.0378
 934  568.072
 935  707.6772
 936  917.4941
 937  921.8005
 938  858.2714
 939  727.5132
 940  605.5387
 941  691.639
 942  661.1099
 943  558.3571
 944  454.8668
 945  520.014
 946  529.4703
 947  610.6458
 948  672.431
 949  710.1942
 950  541.9401
 951  611.091
 952  657.1358
 953  717.0176
 954  601.9508
 955  578.4813
 956  681.7454
 957  637.6115
 958  597.6365
 959  505.596
 960  568.2036
 961  673.7184
 962  569.6509
 963  563.7538
 964  582.5027
 965  682.2388
 966  679.2022
 967  635.1792
 968  645.9182
 969  666.7216
 970  746.0078
 971  671.8785
 972  570.8987
 973  485.539
 974  541.2589
 975  714.335
 976  737.0005
 977  740.0794
 978  692.9058
 979  758.3343
 980  796.8126
 981  817.6903
 982  850.0946
 983  770.7213
 984  682.8762
 985  596.2451
 986  581.4374
 987  578.827
 988  593.8568
 989  666.7421
 990  681.6803
 991  706.961
 992  606.6944
 993  641.5759
 994  705.3163
 995  812.0708
 996  894.9359
 997  922.5275
 998  946.2382
 999  900.277
1000  860.6795
1001  805.2766
1002  674.9308
1003  662.9182
1004  730.7337
1005  787.2053
1006  822.5637
1007  747.3767
1008  726.5507
1009  652.5023
1010  658.9138
1011  697.6376
1012  738.2427
1013  780.3475
1014  806.2845
1015  739.2444
1016  607.6186
1017  549.4329
1018  498.6155
1019  603.0093
1020  614.131
1021  609.8397
1022  488.2156
1023  409.4161
