# Input file       =  1202151414.114845_cleaned.dat
# Candidate        =  PSR_0332+5434
# Telescope        =  AR
# Epoch_topo       =  58157.789735125523
# Epoch_bary       =  N/A
# T_sample         =  0.002
# Data Folded      =  7340032
# Data Avg         =  0.0570301898478646
# Data StdDev      =  3.63071265105965 
# Profile Bins     =  512
# Profile Avg      =  817.738648103401 
# Profile StdDev   =  434.71624992291  
# Reduced chi-sqr  =  0.888
# Prob(Noise)      <  0.967   (~0.0 sigma)
# P_topo (ms)      =  714.57894629086   +/- 0.000311
# P'_topo (s/s)    =  -0                +/- 1.64e-10
# P''_topo (s/s^2) =  0                 +/- 7.25e-14
# P_bary (ms)      =  N/A
# P'_bary (s/s)    =  N/A
# P''_bary (s/s^2) =  N/A
# P_orb (s)        =  N/A
# asin(i)/c (s)    =  N/A
# eccentricity     =  N/A
# w (rad)          =  N/A
# T_peri           =  N/A
######################################################
   0  769.6147
   1  773.5768
   2  871.0674
   3  701.4999
   4  844.0048
   5  641.6595
   6  449.5766
   7  482.9743
   8  451.5085
   9  668.9253
  10  799.9917
  11  787.0895
  12  645.5035
  13  721.0981
  14  710.8271
  15  782.7076
  16  658.8612
  17  595.6733
  18  840.8139
  19  895.4023
  20  843.5938
  21  721.0142
  22  778.559
  23  713.6592
  24  754.6755
  25  787.6408
  26  686.2048
  27  725.9028
  28  786.4899
  29  897.9645
  30  506.6546
  31  860.4698
  32  974.2982
  33  676.5455
  34  466.1188
  35  597.9363
  36  467.1448
  37  502.9576
  38  1082.974
  39  1055.607
  40  255.4708
  41  326.2967
  42  216.1338
  43  269.8163
  44  436.5653
  45  843.861
  46  864.7272
  47  546.6
  48  568.8542
  49  858.8502
  50  566.0227
  51  403.7196
  52  210.4096
  53  650.5043
  54  481.7638
  55  635.9435
  56  639.8394
  57  928.9431
  58  1082.521
  59  1110.65
  60  1060.073
  61  725.0966
  62  673.7407
  63  786.7634
  64  957.0337
  65  848.4661
  66  791.4227
  67  946.321
  68  787.5645
  69  1061.419
  70  892.6819
  71  653.6108
  72  457.8651
  73  454.2823
  74  666.6716
  75  866.087
  76  611.9191
  77  426.765
  78  660.335
  79  760.5316
  80  660.6171
  81  457.2131
  82  322.8249
  83  517.2941
  84  418.4074
  85  657.3243
  86  546.7117
  87  784.7128
  88  824.8633
  89  454.0963
  90  471.2815
  91  500.3758
  92  343.5398
  93  401.7789
  94  681.7162
  95  932.7132
  96  967.7441
  97  1059.805
  98  525.7984
  99  647.6372
 100  880.1458
 101  832.2302
 102  610.9707
 103  820.3062
 104  567.3088
 105  554.9341
 106  792.3168
 107  863.0541
 108  860.3011
 109  724.5941
 110  470.743
 111  490.3657
 112  365.5536
 113  462.3599
 114  437.2516
 115  570.5766
 116  525.618
 117  462.7583
 118  772.6296
 119  987.3581
 120  697.5795
 121  697.3698
 122  672.6036
 123  564.8105
 124  516.8597
 125  735.5212
 126  913.9161
 127  1178.327
 128  1065.813
 129  1092.941
 130  1010.485
 131  769.3222
 132  548.0635
 133  573.7584
 134  805.1502
 135  852.3474
 136  827.5019
 137  297.3423
 138  402.607
 139  524.6292
 140  675.0236
 141  1103.298
 142  975.4244
 143  892.9401
 144  995.6916
 145  683.7084
 146  792.4547
 147  598.7194
 148  1027.004
 149  789.7141
 150  652.3928
 151  710.7195
 152  578.0086
 153  706.0286
 154  508.1494
 155  602.9334
 156  554.4152
 157  756.8545
 158  829.3896
 159  429.9802
 160  859.9974
 161  987.6474
 162  810.5705
 163  558.3412
 164  700.9459
 165  807.0438
 166  742.7232
 167  744.2596
 168  624.8115
 169  346.5019
 170  482.9962
 171  464.82
 172  366.0225
 173  191.4009
 174  619.0484
 175  651.4114
 176  566.8481
 177  805.3859
 178  732.1241
 179  478.6625
 180  662.5549
 181  880.0327
 182  875.862
 183  1051.847
 184  860.9191
 185  1108.718
 186  842.9501
 187  1003.087
 188  1025.564
 189  1169.279
 190  1026.63
 191  1086.964
 192  971.228
 193  926.8485
 194  1134.139
 195  1043.453
 196  598.5468
 197  1011.897
 198  1080.215
 199  1135.804
 200  1179.054
 201  886.5741
 202  717.0534
 203  966.8787
 204  961.1674
 205  1093.616
 206  913.1375
 207  816.7706
 208  958.6036
 209  848.7972
 210  744.4946
 211  971.4304
 212  515.1307
 213  336.7339
 214  376.3385
 215  704.6583
 216  936.9465
 217  1027.718
 218  680.4594
 219  729.5883
 220  591.4423
 221  837.4901
 222  671.947
 223  713.8311
 224  1199.355
 225  945.6711
 226  676.7569
 227  503.2519
 228  417.7166
 229  815.8909
 230  826.5088
 231  1090.057
 232  1090.149
 233  950.9551
 234  851.5471
 235  478.3049
 236  518.4818
 237  895.9774
 238  916.8077
 239  503.1538
 240  669.1115
 241  1093.651
 242  976.7858
 243  912.0658
 244  890.5081
 245  1134.886
 246  1054.969
 247  858.3226
 248  1029.636
 249  1027.772
 250  1026.748
 251  986.8063
 252  1029.019
 253  973.2571
 254  701.3048
 255  916.7018
 256  955.1062
 257  1026.517
 258  843.7737
 259  877.7124
 260  787.2256
 261  680.2373
 262  842.4734
 263  915.4188
 264  767.4129
 265  1254.672
 266  1218.385
 267  1293.07
 268  1313.686
 269  852.4103
 270  826.8055
 271  880.095
 272  807.7764
 273  659.6164
 274  1057
 275  1481.45
 276  1050.009
 277  1089.408
 278  878.8135
 279  813.6087
 280  585.1887
 281  715.5526
 282  764.3663
 283  941.822
 284  1059.894
 285  907.7853
 286  1058.826
 287  1605.462
 288  1228.475
 289  1291.213
 290  1239.828
 291  1302.203
 292  1251.118
 293  1453.016
 294  1494.049
 295  1251.668
 296  1150.971
 297  1621.734
 298  1374.766
 299  1388.971
 300  1500.044
 301  1394.746
 302  1576.366
 303  1537.836
 304  1633.531
 305  2000.012
 306  2621.02
 307  2797.849
 308  2365.215
 309  1612.519
 310  1211.323
 311  627.761
 312  476.0205
 313  688.6498
 314  1115.49
 315  1170.439
 316  850.4648
 317  1162.914
 318  1244.306
 319  994.5215
 320  1150.914
 321  1005.17
 322  1203.164
 323  1324.049
 324  1639.719
 325  1314.081
 326  1351.559
 327  1051.7
 328  998.0598
 329  842.1768
 330  829.7929
 331  972.869
 332  997.8768
 333  755.0236
 334  605.1758
 335  805.4372
 336  861.2809
 337  695.8345
 338  872.9461
 339  1091.783
 340  931.2861
 341  1072.598
 342  1206.423
 343  1100.082
 344  738.7547
 345  653.1792
 346  849.5657
 347  814.5349
 348  821.0248
 349  750.1756
 350  748.9296
 351  847.8977
 352  1000.617
 353  999.2806
 354  1042.131
 355  744.5306
 356  938.3809
 357  700.4669
 358  1017.073
 359  998.1841
 360  826.2453
 361  562.0227
 362  455.5884
 363  546.1908
 364  465.0725
 365  432.1475
 366  661.321
 367  506.9644
 368  625.4229
 369  643.4279
 370  815.0081
 371  772.9325
 372  677.2222
 373  737.6981
 374  879.5927
 375  717.1438
 376  863.9461
 377  695.0363
 378  610.4369
 379  514.0253
 380  743.688
 381  605.8539
 382  828.0507
 383  949.3743
 384  806.4825
 385  679.7703
 386  787.603
 387  633.7246
 388  530.7476
 389  732.6847
 390  689.8113
 391  673.5392
 392  893.0293
 393  849.1765
 394  745.8447
 395  1162.656
 396  965.8152
 397  738.3914
 398  845.4283
 399  712.0588
 400  804.7685
 401  973.3087
 402  1060.731
 403  1058.067
 404  891.4296
 405  777.1437
 406  323.7336
 407  468.3323
 408  1194.075
 409  844.6381
 410  400.4297
 411  578.4542
 412  328.223
 413  707.4403
 414  842.4567
 415  877.8563
 416  806.9711
 417  736.4193
 418  669.2894
 419  107.4811
 420  155.9106
 421  866.1076
 422  778.773
 423  809.6348
 424  837.5961
 425  356.7807
 426  463.2121
 427  535.9755
 428  811.9784
 429  751.0443
 430  701.808
 431  834.9868
 432  761.9942
 433  1009.632
 434  935.3448
 435  1176.153
 436  1065.691
 437  888.8704
 438  838.7277
 439  445.7751
 440  615.2097
 441  962.8638
 442  820.6716
 443  656.4688
 444  856.1971
 445  888.2941
 446  706.2295
 447  629.4027
 448  858.7805
 449  958.951
 450  859.8246
 451  861.0419
 452  726.8409
 453  638.9355
 454  700.3234
 455  994.152
 456  740.371
 457  753.6534
 458  789.8327
 459  756.1229
 460  471.1888
 461  684.8992
 462  1143.786
 463  1308.633
 464  1204.125
 465  1064.619
 466  795.2921
 467  276.3245
 468  610.6279
 469  663.0725
 470  573.175
 471  511.3793
 472  848.5598
 473  800.324
 474  849.8239
 475  885.8462
 476  927.46
 477  739.5706
 478  557.7588
 479  626.8847
 480  699.6082
 481  667.7974
 482  614.9717
 483  769.0023
 484  884.5959
 485  984.374
 486  816.0821
 487  578.1596
 488  461.5402
 489  437.7762
 490  510.6084
 491  558.5026
 492  527.1395
 493  367.2405
 494  477.2512
 495  792.0106
 496  1282.895
 497  938.2529
 498  916.8121
 499  594.1587
 500  615.1876
 501  910.4887
 502  1056.177
 503  1054.219
 504  876.7603
 505  1074.791
 506  1219.435
 507  1031.072
 508  1045.078
 509  1036.075
 510  879.5507
 511  861.6381
