# Input file       =  1202308865.112091_cleaned.dat
# Candidate        =  PSR_0332+5434
# Telescope        =  AR
# Epoch_topo       =  58159.612084630680
# Epoch_bary       =  N/A
# T_sample         =  0.002
# Data Folded      =  7340032
# Data Avg         =  0.0401078428304823
# Data StdDev      =  1.00013142011765 
# Profile Bins     =  512
# Profile Avg      =  575.024910588804 
# Profile StdDev   =  119.748771706493 
# Reduced chi-sqr  =  1.049
# Prob(Noise)      <  0.213   (~0.8 sigma)
# P_topo (ms)      =  714.579095234424  +/- 0.000437
# P'_topo (s/s)    =  -0                +/- 2.31e-10
# P''_topo (s/s^2) =  0                 +/- 1.02e-13
# P_bary (ms)      =  N/A
# P'_bary (s/s)    =  N/A
# P''_bary (s/s^2) =  N/A
# P_orb (s)        =  N/A
# asin(i)/c (s)    =  N/A
# eccentricity     =  N/A
# w (rad)          =  N/A
# T_peri           =  N/A
######################################################
   0  651.8453
   1  521.5238
   2  563.5712
   3  619.326
   4  594.9744
   5  560.0593
   6  566.8035
   7  549.3535
   8  487.5139
   9  531.9169
  10  556.6993
  11  597.6774
  12  593.6094
  13  672.4328
  14  570.9958
  15  557.3329
  16  521.1028
  17  626.9285
  18  721.0974
  19  797.4169
  20  628.4317
  21  512.7852
  22  491.3537
  23  566.3759
  24  602.2985
  25  559.6132
  26  648.1416
  27  606.0658
  28  583.9932
  29  650.7916
  30  623.7399
  31  621.7138
  32  555.9106
  33  604.7974
  34  577.2562
  35  543.004
  36  617.0508
  37  585.0841
  38  614.7717
  39  509.2004
  40  467.1997
  41  562.8863
  42  628.9958
  43  571.4102
  44  596.2772
  45  491.0335
  46  551.6482
  47  577.6021
  48  575.2336
  49  591.0331
  50  596.2078
  51  588.3893
  52  577.1162
  53  545.8109
  54  649.4297
  55  770.2027
  56  743.4755
  57  717.5662
  58  611.4184
  59  582.4386
  60  583.8933
  61  554.0691
  62  647.1689
  63  706.397
  64  653.0263
  65  655.9474
  66  598.5488
  67  699.4339
  68  696.1318
  69  705.956
  70  630.5789
  71  591.499
  72  525.1989
  73  612.2028
  74  725.1989
  75  688.9868
  76  612.1944
  77  707.3849
  78  724.1949
  79  753.7071
  80  608.7919
  81  553.1387
  82  629.3384
  83  593.7445
  84  613.7462
  85  675.6324
  86  670.1948
  87  562.1777
  88  590.7535
  89  516.2042
  90  573.4871
  91  609.4641
  92  598.7299
  93  662.5635
  94  557.4782
  95  564.7404
  96  618.2788
  97  630.3417
  98  534.9909
  99  609.6558
 100  669.1246
 101  528.5074
 102  536.7948
 103  482.951
 104  446.3639
 105  559.4876
 106  580.4534
 107  577.2004
 108  563.6423
 109  537.3328
 110  527.881
 111  549.1885
 112  589.2235
 113  519.2635
 114  533.7049
 115  518.7075
 116  475.563
 117  458.9515
 118  568.9205
 119  559.7147
 120  542.9929
 121  616.2703
 122  654.1747
 123  559.5208
 124  548.0673
 125  565.6484
 126  514.9352
 127  568.686
 128  564.5542
 129  536.3475
 130  549.0231
 131  586.2593
 132  516.9133
 133  435.1306
 134  507.5591
 135  567.2756
 136  672.0302
 137  668.2544
 138  643.6105
 139  584.6693
 140  582.1203
 141  601.2458
 142  660.1059
 143  619.0155
 144  609.2907
 145  528.3312
 146  629.5064
 147  575.3358
 148  552.4824
 149  585.5067
 150  475.8308
 151  411.9068
 152  510.1919
 153  577.283
 154  534.9274
 155  554.0829
 156  512.7844
 157  566.827
 158  562.6077
 159  523.1422
 160  404.5083
 161  465.0705
 162  501.895
 163  484.1917
 164  468.3943
 165  582.3379
 166  512.5118
 167  518.1982
 168  579.7871
 169  606.4665
 170  498.0007
 171  561.9352
 172  562.8524
 173  556.4183
 174  533.3426
 175  497.8408
 176  493.7695
 177  545.6161
 178  550.5931
 179  558.9203
 180  528.7839
 181  544.9291
 182  580.6515
 183  582.5253
 184  529.5516
 185  592.4512
 186  529.633
 187  575.6873
 188  468.8075
 189  379.4513
 190  408.6754
 191  430.3213
 192  412.9596
 193  433.3567
 194  500.353
 195  468.8298
 196  350.7738
 197  436.9875
 198  464.5449
 199  466.3105
 200  522.6548
 201  548.485
 202  561.7606
 203  523.7582
 204  504.2763
 205  485.208
 206  509.6111
 207  492.8113
 208  589.0901
 209  553.1652
 210  493.174
 211  456.2382
 212  502.1988
 213  615.9471
 214  573.5414
 215  603.5031
 216  499.7495
 217  479.7256
 218  579.8497
 219  540.3923
 220  543.4344
 221  519.8005
 222  481.6673
 223  493.2952
 224  547.8265
 225  467.7364
 226  504.9524
 227  497.7971
 228  554.2591
 229  539.2141
 230  421.75
 231  514.8459
 232  540.4933
 233  442.5467
 234  362.4923
 235  458.369
 236  511.8543
 237  376.4108
 238  307.7035
 239  467.9891
 240  454.0175
 241  480.7374
 242  522.595
 243  479.0742
 244  528.9051
 245  558.3472
 246  492.1318
 247  460.672
 248  495.8619
 249  397.0083
 250  497.6754
 251  676.1187
 252  511.0013
 253  521.1772
 254  547.5812
 255  556.4846
 256  474.614
 257  536.1835
 258  483.3767
 259  368.2285
 260  324.2923
 261  468.6916
 262  454.2501
 263  578.1569
 264  593.9949
 265  515.6124
 266  440.3647
 267  496.4307
 268  505.6065
 269  519.4874
 270  560.4343
 271  439.4147
 272  453.6596
 273  568.7674
 274  618.9555
 275  496.3246
 276  570.3498
 277  587.858
 278  461.252
 279  452.7031
 280  552.5337
 281  580.5117
 282  512.6083
 283  532.639
 284  556.588
 285  477.806
 286  504.9054
 287  553.8159
 288  552.0404
 289  554.231
 290  523.0762
 291  562.7087
 292  557.7194
 293  626.9437
 294  693.2875
 295  591.7945
 296  587.4207
 297  544.6683
 298  569.3334
 299  612.6638
 300  602.1658
 301  644.7734
 302  640.2066
 303  578.5881
 304  602.6987
 305  610.9354
 306  563.3261
 307  724.8719
 308  629.3851
 309  558.8325
 310  542.1697
 311  643.1301
 312  567.6229
 313  596.1771
 314  573.1649
 315  518.2883
 316  565.1048
 317  477.3303
 318  616.2808
 319  681.0259
 320  563.4844
 321  614.1368
 322  669.9611
 323  695.6805
 324  522.8881
 325  584.3715
 326  611.4393
 327  581.0811
 328  641.8229
 329  682.3092
 330  536.3334
 331  554.9985
 332  667.7484
 333  674.3088
 334  672.3101
 335  685.2327
 336  584.7296
 337  580.5051
 338  683.1071
 339  737.2696
 340  639.1434
 341  541.4756
 342  500.2122
 343  651.184
 344  585.4752
 345  584.5341
 346  575.1065
 347  497.3383
 348  564.9794
 349  565.9995
 350  601.4249
 351  651.1797
 352  581.8618
 353  559.4642
 354  571.2721
 355  686.5707
 356  670.4521
 357  619.8233
 358  623.9948
 359  636.5245
 360  560.5936
 361  412.2161
 362  602.3351
 363  589.6485
 364  573.0001
 365  638.386
 366  574.7628
 367  650.4684
 368  635.6584
 369  540.5633
 370  569.3632
 371  395.7648
 372  475.5581
 373  519.0599
 374  568.6714
 375  554.0712
 376  568.6573
 377  561.3751
 378  596.4836
 379  587.6823
 380  634.6334
 381  582.6965
 382  561.7102
 383  658.2872
 384  620.1138
 385  541.9936
 386  549.2476
 387  597.5615
 388  685.5289
 389  663.4282
 390  632.4528
 391  650.9316
 392  748.6874
 393  730.5765
 394  652.0809
 395  698.7123
 396  804.0202
 397  792.8442
 398  762.3146
 399  631.8324
 400  593.8924
 401  640.7966
 402  624.5109
 403  577.9944
 404  696.5836
 405  657.4776
 406  642.1927
 407  654.2507
 408  545.931
 409  527.2631
 410  620.6111
 411  597.1793
 412  704.4077
 413  686.2691
 414  600.595
 415  541.8234
 416  646.7184
 417  689.5912
 418  540.3941
 419  576.6327
 420  626.9128
 421  730.791
 422  722.4869
 423  720.0422
 424  685.9179
 425  605.0457
 426  562.8607
 427  470.9056
 428  506.9104
 429  526.0959
 430  577.8139
 431  483.5569
 432  485.3442
 433  481.8441
 434  480.1864
 435  533.6378
 436  491.9578
 437  548.1697
 438  606.6072
 439  618.3397
 440  752.6519
 441  741.2585
 442  632.8219
 443  565.766
 444  629.4522
 445  494.9226
 446  497.7733
 447  533.3198
 448  503.0137
 449  524.925
 450  637.5966
 451  596.155
 452  516.3124
 453  580.4744
 454  646.5491
 455  587.0081
 456  534.8909
 457  483.1268
 458  505.4295
 459  595.7795
 460  595.7297
 461  526.869
 462  529.6747
 463  616.5388
 464  505.7213
 465  536.3136
 466  517.5357
 467  550.5837
 468  584.3954
 469  562.4166
 470  497.7865
 471  430.5578
 472  533.7214
 473  489.283
 474  442.011
 475  497.1287
 476  557.3762
 477  577.5023
 478  501.4177
 479  571.9824
 480  599.3498
 481  567.5629
 482  630.3423
 483  514.533
 484  465.7856
 485  518.8687
 486  592.7673
 487  564.5654
 488  600.4521
 489  492.6239
 490  445.3929
 491  681.5877
 492  701.0211
 493  669.2635
 494  609.741
 495  589.9642
 496  634.9368
 497  800.4783
 498  947.6104
 499  1086.534
 500  1034.968
 501  980.9896
 502  889.3067
 503  808.0355
 504  723.6461
 505  730.601
 506  653.443
 507  742.4178
 508  726.947
 509  635.4064
 510  631.5618
 511  649.9113
