# Input file       =  1202121883.110952_cleaned.dat
# Candidate        =  PSR_0332+5434
# Telescope        =  AR
# Epoch_topo       =  58157.447941098981
# Epoch_bary       =  N/A
# T_sample         =  0.002
# Data Folded      =  7143424
# Data Avg         =  0.166564901339088
# Data StdDev      =  5.23082338681149 
# Profile Bins     =  1024
# Profile Avg      =  1161.93688206632 
# Profile StdDev   =  436.891195618316 
# Reduced chi-sqr  =  0.833
# Prob(Noise)      <  1   (~0.0 sigma)
# P_topo (ms)      =  714.578498194975  +/- 3.72e-05
# P'_topo (s/s)    =  -0                +/- 2.02e-11
# P''_topo (s/s^2) =  0                 +/- 9.14e-15
# P_bary (ms)      =  N/A
# P'_bary (s/s)    =  N/A
# P''_bary (s/s^2) =  N/A
# P_orb (s)        =  N/A
# asin(i)/c (s)    =  N/A
# eccentricity     =  N/A
# w (rad)          =  N/A
# T_peri           =  N/A
######################################################
   0  876.5126
   1  867.5939
   2  815.5529
   3  907.6202
   4  1123.076
   5  1507.604
   6  1653.195
   7  1600.332
   8  1430.099
   9  1342.53
  10  1231.162
  11  1102.418
  12  883.0865
  13  859.1851
  14  869.6335
  15  927.3216
  16  913.5875
  17  909.0576
  18  1063.78
  19  1086.283
  20  1186.028
  21  1069.282
  22  1126.013
  23  1078.253
  24  1089.089
  25  1236.176
  26  1148.028
  27  993.6531
  28  853.3962
  29  903.5095
  30  1014.972
  31  929.3848
  32  935.1402
  33  860.4673
  34  764.0872
  35  844.1855
  36  1073.751
  37  1249.185
  38  1301.483
  39  1345.764
  40  1392.012
  41  1239.666
  42  1297.79
  43  1375.201
  44  1274.96
  45  1098.354
  46  895.5898
  47  964.7523
  48  873.2448
  49  997.3569
  50  1062.987
  51  1014.742
  52  1015.751
  53  1183.254
  54  1173.967
  55  1228.235
  56  1047.062
  57  1124.011
  58  1097.549
  59  1039.485
  60  1034.542
  61  940.8707
  62  975.7306
  63  987.1469
  64  1102.169
  65  1167.417
  66  1118.732
  67  1075.438
  68  1058.41
  69  1132.551
  70  1173.703
  71  1247.785
  72  1240.373
  73  1325.933
  74  1321.151
  75  1242.37
  76  1146.643
  77  1152.334
  78  1121.351
  79  998.8577
  80  948.8737
  81  964.0673
  82  1045.029
  83  1001.506
  84  1038.107
  85  1009.397
  86  1010.82
  87  1038.692
  88  1036.277
  89  1145.607
  90  1082.909
  91  1030.779
  92  937.1266
  93  967.0084
  94  895.5352
  95  746.6799
  96  824.2715
  97  995.5193
  98  1132.054
  99  951.5809
 100  961.4841
 101  975.6053
 102  1069.371
 103  1188.369
 104  1309.143
 105  1477.221
 106  1458.897
 107  1542.844
 108  1534.911
 109  1575.799
 110  1403.54
 111  1219.418
 112  1014.208
 113  997.8284
 114  929.5317
 115  856.0419
 116  748.1559
 117  891.8161
 118  936.4282
 119  933.557
 120  967.2196
 121  1000.409
 122  1125.322
 123  1115.047
 124  1192.053
 125  1090.812
 126  1031.476
 127  999.0929
 128  1025.849
 129  1052.056
 130  1007.386
 131  1034.306
 132  1113.085
 133  1137.145
 134  1179.25
 135  1144.946
 136  1311.578
 137  1343.594
 138  1529.669
 139  1438.633
 140  1339.186
 141  1250.27
 142  1236.113
 143  1311.361
 144  1241.859
 145  1150.378
 146  1041.07
 147  1066.222
 148  1159.406
 149  1209.635
 150  1192.545
 151  1105.31
 152  1059.17
 153  1166.388
 154  1184.299
 155  1154.965
 156  1066.034
 157  991.8548
 158  1062.701
 159  1086.82
 160  1080.911
 161  994.5675
 162  931.2288
 163  978.4643
 164  1060.885
 165  1177.264
 166  1269.271
 167  1283.684
 168  1140.67
 169  1031.714
 170  1199.654
 171  1428.813
 172  1541.908
 173  1537.965
 174  1416.84
 175  1405.942
 176  1346.55
 177  1333.034
 178  1155.838
 179  1110.263
 180  1138.528
 181  1128.353
 182  1137.686
 183  1160.505
 184  1070.333
 185  1118.408
 186  1065.512
 187  1097.471
 188  1130.711
 189  1100.903
 190  1212.287
 191  1245.65
 192  1240.72
 193  1066.634
 194  809.436
 195  976.2784
 196  944.7719
 197  977.8188
 198  885.4169
 199  1003.923
 200  1118.248
 201  1256.452
 202  1405.911
 203  1651.362
 204  1563.586
 205  1493.584
 206  1305.909
 207  1326.139
 208  1377.905
 209  1366.511
 210  1304.188
 211  1115.686
 212  1177.3
 213  1344.578
 214  1294.135
 215  1234.067
 216  1094.877
 217  1151.447
 218  1102.879
 219  1043.649
 220  1063.256
 221  948.909
 222  1004.756
 223  1181.554
 224  1212.026
 225  1157.38
 226  1108.091
 227  1192.581
 228  1067.482
 229  844.2606
 230  906.8781
 231  1035.294
 232  1065.504
 233  1020.053
 234  1137.449
 235  1473.96
 236  1628.053
 237  1665.996
 238  1692.364
 239  1668.577
 240  1645.102
 241  1611.02
 242  1379.82
 243  1141.694
 244  912.9232
 245  975.1938
 246  963.7226
 247  933.1951
 248  1013.953
 249  952.7018
 250  1003.899
 251  1028.057
 252  1221.637
 253  1228.649
 254  1144.031
 255  1034.39
 256  1011.992
 257  927.4144
 258  880.8819
 259  938.9307
 260  1109.065
 261  958.8933
 262  969.397
 263  972.847
 264  1163.813
 265  1152.158
 266  1253.679
 267  1296.941
 268  1354.319
 269  1329.442
 270  1324.325
 271  1314.628
 272  1307.254
 273  1372.076
 274  1306.019
 275  1160.074
 276  1109.754
 277  1208.632
 278  1218.128
 279  965.2815
 280  948.8508
 281  1037.53
 282  1075.494
 283  1106.035
 284  1171.266
 285  1158.036
 286  1094.877
 287  1109.051
 288  1088.851
 289  1144.296
 290  1003.667
 291  1178.002
 292  1070.842
 293  1091.197
 294  977.2659
 295  962.3738
 296  999.0104
 297  883.8565
 298  975.0892
 299  1048.906
 300  1175.037
 301  1286.299
 302  1312.354
 303  1380.473
 304  1422.338
 305  1600.353
 306  1586.563
 307  1452.31
 308  1257.054
 309  1244.291
 310  1142.862
 311  1164.286
 312  933.265
 313  1014.775
 314  962.0649
 315  953.4186
 316  943.3494
 317  911.52
 318  1107.137
 319  1168.606
 320  1337.917
 321  1376.932
 322  1202.385
 323  1348.586
 324  1167.067
 325  1028.675
 326  726.0474
 327  746.4542
 328  794.2579
 329  823.2733
 330  935.8879
 331  1102.031
 332  1106.94
 333  1210.958
 334  1397.992
 335  1448.742
 336  1364.424
 337  1305.46
 338  1389.13
 339  1291.464
 340  1253.61
 341  1212.425
 342  1194.092
 343  1209.6
 344  1167.573
 345  1248.415
 346  1175.555
 347  1095.821
 348  1073.547
 349  1034.593
 350  1092.643
 351  1083.733
 352  1144.572
 353  1237.248
 354  1204.088
 355  1188.259
 356  1217.624
 357  1232.983
 358  1201.867
 359  1094.708
 360  1214.384
 361  1180.587
 362  1063.379
 363  1065.738
 364  1245.186
 365  1501.828
 366  1493.951
 367  1418.619
 368  1386.626
 369  1348.452
 370  1436.963
 371  1539.966
 372  1585.482
 373  1510.089
 374  1336.65
 375  1272.807
 376  1148.948
 377  1112.776
 378  1166.747
 379  1185.051
 380  1198.935
 381  1074.866
 382  1017.125
 383  1094.815
 384  1226.805
 385  1325.294
 386  1182.998
 387  1151.964
 388  1185.44
 389  1196.331
 390  1164.739
 391  1105.411
 392  1069.957
 393  1041.598
 394  940.4056
 395  852.528
 396  895.0249
 397  1071.671
 398  1079.337
 399  1058.739
 400  1165.338
 401  1477.559
 402  1487.488
 403  1522.783
 404  1569.911
 405  1641.831
 406  1601.075
 407  1418.181
 408  1306.125
 409  1151.082
 410  1141.925
 411  1149.127
 412  1088.159
 413  979.8057
 414  983.1779
 415  1022.645
 416  1037.068
 417  918.4738
 418  1012.033
 419  1091.145
 420  1096.72
 421  1044.584
 422  1130.879
 423  1134.789
 424  1122.443
 425  1074.367
 426  1075.952
 427  903.518
 428  932.9916
 429  1044.07
 430  1099.806
 431  1058.683
 432  1153.525
 433  1248.162
 434  1368.595
 435  1353.336
 436  1441.521
 437  1513.189
 438  1478.853
 439  1384.018
 440  1224.978
 441  1178.633
 442  1029.948
 443  1026.634
 444  1000.346
 445  1002.326
 446  1004.851
 447  1041.347
 448  1169.271
 449  1245.959
 450  1223.674
 451  1227.691
 452  1268.36
 453  1382.01
 454  1286.027
 455  1128.939
 456  1136.007
 457  1102.634
 458  974.105
 459  883.5525
 460  824.4708
 461  944.4808
 462  962.6288
 463  979.3168
 464  1074.629
 465  1281.015
 466  1453.809
 467  1408.415
 468  1403.486
 469  1436.932
 470  1444.334
 471  1481.738
 472  1390.608
 473  1281.391
 474  1186.1
 475  1242.922
 476  1194.408
 477  1062.724
 478  986.055
 479  850.8089
 480  1008.296
 481  1012.363
 482  965.2042
 483  932.5005
 484  1106.279
 485  1291.219
 486  1308.966
 487  1329.099
 488  1391.079
 489  1382.351
 490  1217.095
 491  1010.195
 492  841.0262
 493  818.4927
 494  875.8569
 495  881.9634
 496  949.2536
 497  1064.242
 498  1290.231
 499  1447.52
 500  1472.873
 501  1539.207
 502  1472.928
 503  1560.951
 504  1551.607
 505  1681.676
 506  1509.41
 507  1293.876
 508  1177.22
 509  1094.35
 510  1050.296
 511  1037.957
 512  1103.141
 513  1201.234
 514  1181.009
 515  1255.704
 516  1217.46
 517  1217.86
 518  1108.175
 519  1051.192
 520  1154.999
 521  1348.222
 522  1283.579
 523  1132.862
 524  1042.424
 525  1128.459
 526  1092.6
 527  1044.119
 528  1017.441
 529  1110.644
 530  1233.428
 531  1236.412
 532  1237.111
 533  1197.742
 534  1452.236
 535  1627.665
 536  1807.317
 537  1672.421
 538  1515.586
 539  1354.558
 540  1165.577
 541  1059.955
 542  999.4753
 543  1064.705
 544  961.859
 545  950.3873
 546  946.5667
 547  1020.082
 548  1196.195
 549  1320.774
 550  1384.537
 551  1291.855
 552  1211.639
 553  1270.444
 554  1267.387
 555  1189.754
 556  1081.134
 557  1028.444
 558  976.7337
 559  967.1987
 560  982.8204
 561  1034.717
 562  1041.692
 563  1065.776
 564  1313.745
 565  1459.572
 566  1507.097
 567  1496.813
 568  1469.704
 569  1491.948
 570  1439.019
 571  1561.954
 572  1557.354
 573  1361.516
 574  1062.729
 575  922.6425
 576  947.7794
 577  1058.75
 578  1257.22
 579  1322.316
 580  1191.328
 581  1153.729
 582  1280.866
 583  1256.896
 584  1268.416
 585  1245.067
 586  1337.298
 587  1220.358
 588  1189.313
 589  1195.768
 590  1149.255
 591  998.7095
 592  1163.464
 593  1151.586
 594  1161.665
 595  1117.282
 596  1252.076
 597  1264.46
 598  1234.959
 599  1384.878
 600  1532.918
 601  1576.859
 602  1560.943
 603  1580.998
 604  1693.44
 605  1716.577
 606  1624.317
 607  1511.563
 608  1497.598
 609  1525.593
 610  1449.067
 611  1563.617
 612  1737.749
 613  1846.349
 614  1874.183
 615  1928.584
 616  1966.863
 617  1997.339
 618  2036.133
 619  1898.123
 620  1590.405
 621  1383.77
 622  1129.219
 623  917.1365
 624  775.6857
 625  798.4452
 626  880.4139
 627  849.3126
 628  860.2838
 629  889.0563
 630  1050.141
 631  1253.348
 632  1443.105
 633  1525.057
 634  1551.599
 635  1452.281
 636  1519.362
 637  1500.919
 638  1497.649
 639  1373.063
 640  1303.433
 641  1194.716
 642  1037.475
 643  903.6755
 644  907.9913
 645  981.5597
 646  1131.185
 647  1104.942
 648  1176.325
 649  1141.136
 650  1234.872
 651  1352.573
 652  1446.486
 653  1371.623
 654  1311.426
 655  1177.407
 656  979.9177
 657  897.3944
 658  971.0416
 659  1034.495
 660  965.1432
 661  1007.554
 662  1066.82
 663  1251.576
 664  1409.352
 665  1573.698
 666  1638.177
 667  1616.82
 668  1633.295
 669  1617.173
 670  1382.715
 671  1313.862
 672  1131.928
 673  1082.404
 674  831.5244
 675  867.559
 676  957.5938
 677  1069.819
 678  1118.508
 679  1169.197
 680  1113.737
 681  1108.52
 682  1036.096
 683  1194.429
 684  1184.77
 685  1267.537
 686  1078.371
 687  1041.177
 688  938.1744
 689  868.1269
 690  771.2834
 691  760.0341
 692  837.2149
 693  804.6138
 694  902.9428
 695  1060.879
 696  1109.51
 697  1057.52
 698  1200.345
 699  1331.026
 700  1334.681
 701  1387.114
 702  1603.466
 703  1595.119
 704  1436.997
 705  1174.585
 706  1128.803
 707  974.5496
 708  980.2277
 709  1009.756
 710  902.2573
 711  849.7273
 712  700.3474
 713  800.3601
 714  854.1141
 715  1103.901
 716  1218.352
 717  1293.581
 718  1251.041
 719  1424.552
 720  1302.356
 721  1040.109
 722  915.8185
 723  936.8856
 724  947.7977
 725  828.5926
 726  836.8507
 727  1039.409
 728  1196.057
 729  1304.726
 730  1358.492
 731  1405.537
 732  1459.438
 733  1605.667
 734  1720.162
 735  1773.411
 736  1664.176
 737  1511.375
 738  1331.112
 739  1072.694
 740  829.0716
 741  811.846
 742  800.8109
 743  849.0765
 744  858.9222
 745  895.4459
 746  992.0302
 747  1021.977
 748  1176.111
 749  1217.073
 750  1224.379
 751  1204.162
 752  1196.715
 753  1012.791
 754  1020.677
 755  935.5989
 756  948.7397
 757  887.9619
 758  908.3143
 759  979.7117
 760  946.887
 761  993.3822
 762  1036.436
 763  1188.266
 764  1225.682
 765  1179.166
 766  1396.432
 767  1484.871
 768  1553.206
 769  1446.828
 770  1459.252
 771  1408.017
 772  1364.789
 773  1254.913
 774  1096.632
 775  865.4512
 776  921.5199
 777  971.5532
 778  1015.961
 779  1066.931
 780  1077.35
 781  1231.194
 782  1225.818
 783  1362.078
 784  1372.58
 785  1281.695
 786  1306.784
 787  1218.817
 788  1110.723
 789  855.1411
 790  759.4826
 791  812.4542
 792  843.5908
 793  907.5296
 794  995.5707
 795  1027.947
 796  1217.916
 797  1351.262
 798  1616.607
 799  1668.705
 800  1759.709
 801  1896.419
 802  1712.171
 803  1430.592
 804  1045.37
 805  1079.184
 806  1168.004
 807  1126.962
 808  1126.931
 809  1118.15
 810  1138.836
 811  1222.752
 812  1264.217
 813  1317.205
 814  1158.576
 815  1127.529
 816  1136.216
 817  1026.809
 818  976.3878
 819  970.9378
 820  1039.254
 821  1016.487
 822  1056.119
 823  1004.881
 824  890.7358
 825  930.2605
 826  1070.388
 827  1073.627
 828  1035.028
 829  1084.833
 830  1200.478
 831  1411.574
 832  1499.761
 833  1428.286
 834  1312.585
 835  1263.615
 836  1281.11
 837  1296.884
 838  1159.921
 839  1010.616
 840  876.3484
 841  872.8364
 842  1009.083
 843  1121.215
 844  1171.008
 845  1109.465
 846  1042.733
 847  952.514
 848  959.9717
 849  1078.752
 850  1158.372
 851  1120.216
 852  1192.883
 853  1098.018
 854  966.6216
 855  910.477
 856  911.7823
 857  870.539
 858  831.2373
 859  963.3634
 860  1172.731
 861  1283.185
 862  1543.17
 863  1579.807
 864  1610.917
 865  1577.935
 866  1562.51
 867  1587.839
 868  1416.039
 869  1259.484
 870  1065.913
 871  1029.514
 872  1043.467
 873  1108.239
 874  1116.098
 875  1138.407
 876  1088.84
 877  1118.07
 878  1040.995
 879  1085.518
 880  1027.94
 881  1097.504
 882  1148.902
 883  1198.022
 884  1205.338
 885  1212.344
 886  1202.669
 887  1028.282
 888  860.1873
 889  873.8292
 890  906.7059
 891  824.7801
 892  727.204
 893  688.3462
 894  857.6272
 895  957.5918
 896  1275.062
 897  1447.456
 898  1536.391
 899  1632.059
 900  1605.283
 901  1443.997
 902  1163.823
 903  1031.213
 904  980.1691
 905  971.255
 906  942.088
 907  926.6307
 908  857.6576
 909  914.86
 910  895.8323
 911  1022.467
 912  1062.323
 913  1126.667
 914  1202.228
 915  1187.769
 916  1252.878
 917  1257.844
 918  1252.465
 919  1244.477
 920  1191.746
 921  1172.379
 922  951.6517
 923  813.7288
 924  752.8733
 925  843.011
 926  989.2448
 927  1199.224
 928  1265.983
 929  1372.267
 930  1305.794
 931  1324.219
 932  1189.85
 933  1210.421
 934  1252.326
 935  1185.804
 936  1119.188
 937  989.5098
 938  1038.715
 939  1132.167
 940  1142.718
 941  1070.325
 942  1000.655
 943  1119.719
 944  1022.516
 945  823.9899
 946  830.3705
 947  906.4028
 948  1089.544
 949  1130.673
 950  1101.086
 951  1021.563
 952  989.5162
 953  1022.05
 954  981.2992
 955  940.3713
 956  989.8269
 957  892.4795
 958  922.0793
 959  894.0315
 960  1006.443
 961  1228.698
 962  1364.643
 963  1403.77
 964  1481.719
 965  1598.168
 966  1581.552
 967  1523.552
 968  1370.201
 969  1275.403
 970  1174.075
 971  1138.694
 972  1086.545
 973  1016.848
 974  928.7363
 975  775.7629
 976  776.6777
 977  882.0999
 978  1101.758
 979  1088.152
 980  1015.692
 981  999.6626
 982  812.3362
 983  863.1882
 984  950.0773
 985  1204.603
 986  1057.893
 987  886.1961
 988  927.428
 989  968.1862
 990  964.7854
 991  815.6733
 992  920.7557
 993  1085.345
 994  1208.734
 995  1222.089
 996  1228.821
 997  1334.227
 998  1391.208
 999  1355.955
1000  1212.373
1001  1187.289
1002  1147.561
1003  1320.11
1004  1335.032
1005  1318.218
1006  1163.593
1007  1003.286
1008  974.8967
1009  930.6802
1010  903.5493
1011  810.3373
1012  891.7477
1013  1062.906
1014  1099.778
1015  994.5009
1016  937.1784
1017  1034.952
1018  1124.319
1019  1138.576
1020  1102.113
1021  837.5899
1022  804.6968
1023  823.3182
