# Input file       =  1202567454.139856_cleaned.dat
# Candidate        =  PSR_0332+5434
# Telescope        =  AR
# Epoch_topo       =  58162.605013192777
# Epoch_bary       =  N/A
# T_sample         =  0.002
# Data Folded      =  7340032
# Data Avg         =  0.055005163838374
# Data StdDev      =  1.00058035949512 
# Profile Bins     =  512
# Profile Avg      =  788.590872012614 
# Profile StdDev   =  119.802524581307 
# Reduced chi-sqr  =  0.787
# Prob(Noise)      <  1   (~0.0 sigma)
# P_topo (ms)      =  714.579758079721  +/- 0.000497
# P'_topo (s/s)    =  -0                +/- 2.62e-10
# P''_topo (s/s^2) =  0                 +/- 1.16e-13
# P_bary (ms)      =  N/A
# P'_bary (s/s)    =  N/A
# P''_bary (s/s^2) =  N/A
# P_orb (s)        =  N/A
# asin(i)/c (s)    =  N/A
# eccentricity     =  N/A
# w (rad)          =  N/A
# T_peri           =  N/A
######################################################
   0  1054.422
   1  1150.156
   2  985.6337
   3  717.6977
   4  675.7868
   5  766.9014
   6  707.8026
   7  721.113
   8  766.3678
   9  753.4078
  10  737.1523
  11  794.8645
  12  802.7987
  13  810.1872
  14  793.6155
  15  720.0837
  16  716.0406
  17  695.9982
  18  662.3797
  19  694.4432
  20  797.3264
  21  637.1573
  22  556.2558
  23  608.7868
  24  726.1474
  25  726.6561
  26  727.5053
  27  776.6047
  28  770.0451
  29  728.9894
  30  664.364
  31  680.1124
  32  596.2477
  33  636.2685
  34  627.8589
  35  606.9709
  36  562.2171
  37  660.6366
  38  635.7081
  39  620.4357
  40  670.0308
  41  759.3608
  42  787.3634
  43  775.6846
  44  726.9436
  45  766.5587
  46  793.1504
  47  766.9559
  48  752.5093
  49  771.7674
  50  792.0507
  51  856.4501
  52  790.2028
  53  734.5807
  54  790.8624
  55  738.4476
  56  736.7474
  57  825.0068
  58  822.6917
  59  789.3799
  60  846.5842
  61  861.9105
  62  855.2145
  63  910.5803
  64  872.489
  65  798.6735
  66  838.6953
  67  829.7026
  68  696.1569
  69  749.3942
  70  787.2307
  71  785.9109
  72  816.4575
  73  834.8448
  74  840.3118
  75  843.226
  76  850.688
  77  823.5384
  78  821.147
  79  834.2921
  80  777.0558
  81  772.9631
  82  842.6233
  83  765.7762
  84  792.8504
  85  805.0919
  86  755.1371
  87  753.4691
  88  786.3083
  89  759.6634
  90  831.8333
  91  851.2191
  92  784.8352
  93  930.8552
  94  948.4227
  95  958.1232
  96  838.5687
  97  807.4153
  98  843.2098
  99  819.9822
 100  885.7795
 101  917.0481
 102  915.6815
 103  895.3912
 104  893.3281
 105  928.285
 106  913.1043
 107  935.2883
 108  819.8457
 109  804.189
 110  900.1979
 111  886.6591
 112  852.4432
 113  802.6098
 114  846.4451
 115  858.0093
 116  868.5755
 117  884.408
 118  892.4653
 119  756.9376
 120  750.4446
 121  901.9841
 122  952.804
 123  854.2494
 124  825.6582
 125  862.8818
 126  853.7862
 127  828.2957
 128  864.3976
 129  829.656
 130  822.1893
 131  803.8723
 132  795.0358
 133  808.7012
 134  838.5576
 135  807.9515
 136  757.6636
 137  783.6497
 138  774.0428
 139  826.9025
 140  866.9114
 141  838.0667
 142  789.2471
 143  824.0067
 144  872.4717
 145  821.7723
 146  773.8478
 147  804.3707
 148  849.4019
 149  841.0663
 150  715.148
 151  744.2739
 152  791.3884
 153  890.6626
 154  733.3492
 155  796.2742
 156  875.4926
 157  780.9929
 158  819.3272
 159  835.1916
 160  844.2443
 161  881.3524
 162  838.6094
 163  835.853
 164  815.5438
 165  884.9954
 166  813.4706
 167  736.1642
 168  807.8878
 169  780.7898
 170  778.4202
 171  733.091
 172  828.8115
 173  713.8617
 174  696.0977
 175  745.8593
 176  804.01
 177  834.0621
 178  850.8008
 179  893.9899
 180  787.6545
 181  827.0498
 182  820.2547
 183  852.5912
 184  866.5453
 185  870.5323
 186  832.7313
 187  894.5539
 188  836.8248
 189  838.2888
 190  878.8755
 191  907.816
 192  912.2394
 193  888.4847
 194  852.3608
 195  905.2036
 196  917.4852
 197  936.1183
 198  875.2635
 199  833.131
 200  835.9802
 201  787.5733
 202  814.4749
 203  830.277
 204  850.1301
 205  798.6183
 206  795.5663
 207  742.5613
 208  770.4315
 209  735.0399
 210  742.8733
 211  843.5148
 212  775.315
 213  847.3401
 214  854.7217
 215  766.3353
 216  780.6312
 217  762.7723
 218  801.2327
 219  758.0323
 220  784.5789
 221  788.3342
 222  800.9973
 223  748.8911
 224  754.0662
 225  733.9267
 226  738.6107
 227  714.7669
 228  684.2208
 229  701.6301
 230  752.2044
 231  781.911
 232  817.1151
 233  714.106
 234  706.891
 235  792.3938
 236  741.1786
 237  738.892
 238  786.9996
 239  741.3973
 240  846.8387
 241  825.1426
 242  806.4411
 243  762.5068
 244  754.3638
 245  757.7139
 246  740.6516
 247  770.8076
 248  674.8503
 249  636.2032
 250  611.5991
 251  602.8629
 252  631.6044
 253  696.9735
 254  669.5225
 255  693.8485
 256  748.9411
 257  765.6335
 258  738.7547
 259  734.4432
 260  728.7722
 261  757.1751
 262  802.8362
 263  791.4004
 264  756.2485
 265  818.1268
 266  917.6923
 267  892.9227
 268  792.8584
 269  830.0389
 270  789.5293
 271  799.3097
 272  768.9791
 273  812.9091
 274  797.5001
 275  774.6804
 276  757.2661
 277  782.0771
 278  746.9775
 279  805.3709
 280  809.8299
 281  791.03
 282  814.6074
 283  838.9777
 284  770.4141
 285  842.2088
 286  778.8098
 287  777.274
 288  703.1996
 289  778.6378
 290  855.0435
 291  890.9437
 292  843.5844
 293  901.6027
 294  911.5657
 295  823.1451
 296  784.6961
 297  734.2252
 298  830.3607
 299  757.3273
 300  895.5662
 301  980.4163
 302  960.671
 303  795.3585
 304  747.0391
 305  805.4348
 306  795.5608
 307  812.8068
 308  802.8309
 309  828.7618
 310  743.181
 311  775.1732
 312  771.8491
 313  786.6948
 314  768.9914
 315  792.6908
 316  631.24
 317  722.7903
 318  739.7871
 319  669.2102
 320  697.7553
 321  730.3196
 322  754.6219
 323  805.6288
 324  833.8005
 325  737.1499
 326  686.9843
 327  750.0978
 328  762.3397
 329  780.6786
 330  744.4494
 331  717.8909
 332  767.0232
 333  762.1877
 334  768.5438
 335  650.325
 336  627.303
 337  674.4083
 338  621.459
 339  724.0597
 340  683.1889
 341  727.7478
 342  714.3242
 343  780.2455
 344  769.4307
 345  761.4992
 346  726.4887
 347  738.0795
 348  719.9811
 349  728.1436
 350  702.1378
 351  769.5688
 352  699.1738
 353  722.4199
 354  801.5846
 355  875.4614
 356  810.0472
 357  747.4642
 358  704.0065
 359  777.9673
 360  844.9093
 361  822.2928
 362  805.4443
 363  843.5592
 364  832.97
 365  820.2443
 366  778.1215
 367  793.6594
 368  791.2562
 369  767.8676
 370  798.642
 371  841.3738
 372  877.5137
 373  870.2709
 374  763.1894
 375  831.9091
 376  837.7769
 377  872.5049
 378  914.0852
 379  826.7703
 380  783.2703
 381  773.2614
 382  845.3597
 383  855.6353
 384  856.5115
 385  852.7205
 386  874.3478
 387  850.1739
 388  831.7579
 389  843.1149
 390  848.9184
 391  900.8197
 392  876.5698
 393  904.9133
 394  919.8569
 395  923.047
 396  893.1584
 397  902.9009
 398  926.0467
 399  889.3326
 400  922.3297
 401  925.8325
 402  867.4332
 403  843.7076
 404  744.6002
 405  799.9477
 406  890.3812
 407  915.608
 408  909.1266
 409  806.4074
 410  686.5698
 411  684.118
 412  827.9766
 413  886.8322
 414  815.5427
 415  809.4747
 416  733.0445
 417  796.4801
 418  866.5828
 419  814.3485
 420  729.5673
 421  731.9884
 422  698.1253
 423  664.2191
 424  704.5529
 425  797.2267
 426  704.2116
 427  738.792
 428  720.1424
 429  756.4404
 430  787.7634
 431  730.0292
 432  662.0039
 433  726.9753
 434  670.6354
 435  643.7734
 436  672.0817
 437  742.1429
 438  714.5445
 439  771.6895
 440  794.9654
 441  769.906
 442  705.779
 443  731.8454
 444  758.5443
 445  784.1757
 446  811.9481
 447  671.1202
 448  695.7435
 449  801.4217
 450  697.256
 451  679.6997
 452  775.1986
 453  742.3016
 454  764.1674
 455  705.8776
 456  748.9691
 457  811.5461
 458  814.0719
 459  785.8288
 460  725.1682
 461  748.3831
 462  708.1033
 463  723.7622
 464  704.5069
 465  653.703
 466  753.1097
 467  803.6483
 468  731.5493
 469  731.6088
 470  754.9129
 471  752.6117
 472  741.1211
 473  780.366
 474  698.9569
 475  721.415
 476  759.0477
 477  749.3412
 478  739.2001
 479  779.361
 480  774.262
 481  746.9142
 482  732.6406
 483  753.5905
 484  720.0701
 485  732.394
 486  690.8395
 487  715.5875
 488  668.07
 489  691.6783
 490  691.0465
 491  775.7241
 492  784.5037
 493  812.6308
 494  813.0443
 495  804.3375
 496  757.2048
 497  832.7964
 498  721.9969
 499  649.0602
 500  709.1014
 501  813.9697
 502  720.3357
 503  755.4244
 504  774.9054
 505  764.1213
 506  837.942
 507  789.2676
 508  944.4272
 509  988.5602
 510  1046.326
 511  1050.811
