# Input file       =  1202496185.116841_cleaned.dat
# Candidate        =  PSR_0332+5434
# Telescope        =  AR
# Epoch_topo       =  58161.780140241215
# Epoch_bary       =  N/A
# T_sample         =  0.002
# Data Folded      =  7340032
# Data Avg         =  0.0530250048863569
# Data StdDev      =  2.89828259922996 
# Profile Bins     =  512
# Profile Avg      =  760.082290678367 
# Profile StdDev   =  347.02017588375  
# Reduced chi-sqr  =  0.914
# Prob(Noise)      <  0.918   (~0.0 sigma)
# P_topo (ms)      =  714.579929773931  +/- 0.000167
# P'_topo (s/s)    =  -0                +/- 8.8e-11
# P''_topo (s/s^2) =  0                 +/- 3.88e-14
# P_bary (ms)      =  N/A
# P'_bary (s/s)    =  N/A
# P''_bary (s/s^2) =  N/A
# P_orb (s)        =  N/A
# asin(i)/c (s)    =  N/A
# eccentricity     =  N/A
# w (rad)          =  N/A
# T_peri           =  N/A
######################################################
   0  984.1033
   1  1198.809
   2  1003.271
   3  1160.496
   4  1155.894
   5  1120.471
   6  922.587
   7  494.9565
   8  599.9941
   9  701.7316
  10  868.0035
  11  986.1246
  12  952.5997
  13  846.415
  14  1104.74
  15  1031.06
  16  922.3443
  17  1269.927
  18  1026.021
  19  782.514
  20  987.6763
  21  990.7626
  22  1098.703
  23  958.1073
  24  1016.046
  25  1079.94
  26  518.4828
  27  702.426
  28  773.886
  29  911.8442
  30  1195.211
  31  1083.294
  32  582.8188
  33  718.4783
  34  647.8764
  35  616.7756
  36  623.4778
  37  823.776
  38  828.7969
  39  736.0414
  40  613.5311
  41  738.6013
  42  921.8629
  43  724.7334
  44  703.7286
  45  649.1777
  46  806.4359
  47  625.6124
  48  394.7345
  49  384.382
  50  537.1282
  51  421.5369
  52  547.1171
  53  705.5731
  54  887.4975
  55  1102.89
  56  849.9335
  57  311.1178
  58  324.2797
  59  705.4781
  60  524.9446
  61  385.618
  62  468.8127
  63  552.3587
  64  819.8961
  65  902.3905
  66  630.119
  67  497.3099
  68  481.231
  69  482.4046
  70  814.0944
  71  925.7828
  72  450.9946
  73  892.2122
  74  935.9809
  75  772.3023
  76  912.0385
  77  1032.132
  78  483.1938
  79  219.296
  80  474.7367
  81  621.8783
  82  718.3642
  83  1060.679
  84  1070.649
  85  619.6818
  86  759.9821
  87  1117.283
  88  1192.192
  89  894.6261
  90  878.2264
  91  1083.707
  92  1052.078
  93  1102.755
  94  924.8726
  95  794.2438
  96  615.7239
  97  657.584
  98  638.7156
  99  918.332
 100  422.137
 101  459.9553
 102  480.1724
 103  475.3787
 104  756.4014
 105  976.4212
 106  911.3972
 107  831.0132
 108  743.7684
 109  760.6119
 110  636.5771
 111  520.1212
 112  684.4841
 113  664.5755
 114  532.7216
 115  832.7988
 116  768.2856
 117  616.8735
 118  569.3266
 119  570.9014
 120  501.3864
 121  745.5444
 122  1023.266
 123  991.4531
 124  633.8416
 125  805.5936
 126  1038.901
 127  477.5342
 128  515.1908
 129  853.1699
 130  1136.172
 131  963.1677
 132  733.1855
 133  792.0223
 134  924.0669
 135  628.5809
 136  751.8989
 137  557.5115
 138  647.681
 139  819.3967
 140  645.4431
 141  766.7162
 142  531.3284
 143  343.3103
 144  510.8771
 145  496.6508
 146  667.6699
 147  371.5316
 148  536.712
 149  452.3875
 150  599.0164
 151  780.839
 152  782.7374
 153  627.9127
 154  674.4592
 155  686.9004
 156  638.8753
 157  896.8239
 158  726.6956
 159  510.3875
 160  747.0968
 161  727.2639
 162  727.087
 163  932.0482
 164  642.5656
 165  650.7153
 166  822.4499
 167  891.4307
 168  706.8474
 169  647.7755
 170  686.0791
 171  531.9603
 172  826.7762
 173  1136.459
 174  732.8782
 175  836.3494
 176  896.5676
 177  813.046
 178  731.9608
 179  696.1268
 180  686.9505
 181  898.9984
 182  679.151
 183  765.3426
 184  595.3586
 185  498.1461
 186  925.209
 187  1074.226
 188  1047.954
 189  954.2794
 190  780.7487
 191  861.7272
 192  783.1055
 193  751.8339
 194  720.33
 195  870.6009
 196  504.5984
 197  579.9141
 198  428.4443
 199  618.6594
 200  452.3646
 201  868.7111
 202  815.4835
 203  643.2343
 204  685.6844
 205  1058.138
 206  994.1999
 207  801.4907
 208  825.2758
 209  683.1657
 210  907.3458
 211  968.4932
 212  676.7614
 213  760.1293
 214  809.6427
 215  804.521
 216  757.3879
 217  614.0754
 218  956.4878
 219  729.9824
 220  425.5797
 221  608.3565
 222  710.8218
 223  434.5977
 224  673.6196
 225  880.0023
 226  707.2288
 227  369.4941
 228  154.9757
 229  437.5928
 230  653.576
 231  865.5676
 232  1001.288
 233  904.9485
 234  846.9119
 235  963.0051
 236  733.4521
 237  614.3673
 238  933.6018
 239  1010.014
 240  943.6643
 241  917.7505
 242  847.0563
 243  234.0278
 244  390.0322
 245  881.5282
 246  1042.741
 247  1066.387
 248  846.1268
 249  661.9941
 250  715.7167
 251  680.559
 252  534.7633
 253  733.2507
 254  1062.02
 255  1185.167
 256  915.749
 257  983.8828
 258  693.6987
 259  407.2482
 260  415.6736
 261  638.9174
 262  649.8451
 263  514.3372
 264  565.7079
 265  665.5807
 266  648.9496
 267  374.0656
 268  522.9401
 269  488.2829
 270  398.825
 271  389.8984
 272  661.6879
 273  686.344
 274  1021.501
 275  886.3177
 276  800.5647
 277  895.9659
 278  986.7239
 279  959.8541
 280  985.2698
 281  855.0214
 282  861.4995
 283  616.7161
 284  874.7212
 285  717.9593
 286  708.7466
 287  737.4901
 288  614.7499
 289  689.7823
 290  806.782
 291  592.8583
 292  650.3276
 293  579.9564
 294  695.4587
 295  1029.99
 296  831.5698
 297  716.5281
 298  1103.362
 299  1111.925
 300  769.061
 301  706.1969
 302  495.2898
 303  749.3277
 304  1504.998
 305  1958.349
 306  2031.043
 307  2102.714
 308  2153.439
 309  1696.71
 310  1244.102
 311  949.4852
 312  628.373
 313  797.0614
 314  1126.431
 315  1036.684
 316  957.6049
 317  839.0124
 318  805.9663
 319  848.5152
 320  626.6543
 321  794.4461
 322  1092.432
 323  1138.875
 324  1132.861
 325  977.3618
 326  732.5931
 327  720.9942
 328  664.1292
 329  837.6298
 330  797.014
 331  865.347
 332  924.3369
 333  704.4673
 334  672.1248
 335  1009.016
 336  995.1984
 337  844.3128
 338  725.0616
 339  954.8499
 340  1029.282
 341  689.5287
 342  605.4292
 343  765.6701
 344  764.3977
 345  658.0842
 346  744.1921
 347  846.8815
 348  508.4364
 349  647.0429
 350  560.3725
 351  620.4952
 352  354.2145
 353  207.8406
 354  431.9713
 355  615.4369
 356  739.188
 357  459.2479
 358  680.6793
 359  875.842
 360  853.6399
 361  962.6866
 362  704.9048
 363  650.9434
 364  561.2556
 365  829.4144
 366  547.6969
 367  797.4474
 368  715.4003
 369  818.8612
 370  738.7496
 371  675.6921
 372  772.881
 373  711.8959
 374  775.2562
 375  706.1139
 376  851.6099
 377  903.1776
 378  720.6145
 379  739.3001
 380  538.6046
 381  548.4095
 382  686.717
 383  613.4017
 384  763.2375
 385  670.1361
 386  608.3091
 387  808.6749
 388  914.1333
 389  879.5726
 390  442.6298
 391  487.2036
 392  428.3187
 393  543.169
 394  708.0692
 395  719.4363
 396  947.6625
 397  720.0604
 398  535.1193
 399  434.2168
 400  611.6013
 401  799.3953
 402  833.002
 403  848.0704
 404  885.8961
 405  789.4047
 406  562.4221
 407  636.5781
 408  1028.101
 409  880.7355
 410  523.7125
 411  514.1599
 412  471.2513
 413  582.6013
 414  748.1382
 415  763.7712
 416  755.2053
 417  716.0125
 418  603.549
 419  467.3254
 420  709.7208
 421  1185.206
 422  1171.778
 423  850.4371
 424  1024.588
 425  541.8556
 426  455.7362
 427  225.4393
 428  402.6373
 429  595.8823
 430  704.277
 431  501.1865
 432  646.623
 433  904.8798
 434  846.1111
 435  741.7457
 436  876.0408
 437  594.5182
 438  598.4088
 439  594.4247
 440  647.9094
 441  617.939
 442  708.2302
 443  694.2572
 444  483.2701
 445  624.6359
 446  577.4119
 447  602.8532
 448  499.5881
 449  305.2001
 450  444.2505
 451  646.4715
 452  714.6631
 453  660.3265
 454  965.688
 455  901.8381
 456  769.0314
 457  665.7077
 458  513.4794
 459  753.7758
 460  519.2843
 461  746.2863
 462  673.8118
 463  521.4372
 464  649.7107
 465  649.044
 466  800.8431
 467  855.6654
 468  662.79
 469  575.3353
 470  663.134
 471  696.2582
 472  474.8181
 473  787.4872
 474  818.8254
 475  1034.967
 476  902.3436
 477  660.404
 478  765.7053
 479  682.9394
 480  574.9686
 481  569.6263
 482  649.5282
 483  788.2162
 484  457.8969
 485  369.5477
 486  483.9465
 487  531.7524
 488  1028.7
 489  881.0244
 490  913.3943
 491  936.9805
 492  832.7787
 493  947.0163
 494  619.3539
 495  632.7772
 496  934.5905
 497  1080.278
 498  1170.127
 499  1304.732
 500  1215.809
 501  1195.859
 502  906.2824
 503  812.4706
 504  779.5966
 505  845.2003
 506  747.9759
 507  1083.715
 508  1213.984
 509  1110.492
 510  876.1945
 511  879.6259
