# Input file       =  1202208038.118441_cleaned.dat
# Candidate        =  PSR_0332+5434
# Telescope        =  AR
# Epoch_topo       =  58158.445105537510
# Epoch_bary       =  N/A
# T_sample         =  0.002
# Data Folded      =  7208960
# Data Avg         =  0.106182544557801
# Data StdDev      =  3.68592684043158 
# Profile Bins     =  512
# Profile Avg      =  1495.00331712738 
# Profile StdDev   =  437.369040920863 
# Reduced chi-sqr  =  2.266
# Prob(Noise)      <  3.69e-52   (~15.2 sigma)
# P_topo (ms)      =  714.5787765458    +/- 2.04e-05
# P'_topo (s/s)    =  -0                +/- 1.1e-11
# P''_topo (s/s^2) =  0                 +/- 4.93e-15
# P_bary (ms)      =  N/A
# P'_bary (s/s)    =  N/A
# P''_bary (s/s^2) =  N/A
# P_orb (s)        =  N/A
# asin(i)/c (s)    =  N/A
# eccentricity     =  N/A
# w (rad)          =  N/A
# T_peri           =  N/A
######################################################
   0  1990.312
   1  1756.754
   2  1656.94
   3  1619.517
   4  1559.163
   5  1465.835
   6  1590.96
   7  1669.169
   8  1115.667
   9  898.3569
  10  1004.178
  11  1217.805
  12  1343.252
  13  1272.652
  14  1811.598
  15  2280.347
  16  1992.607
  17  1562.321
  18  1300.488
  19  1142.748
  20  1388.191
  21  1258.984
  22  1278.88
  23  2132.21
  24  2036.102
  25  1278.395
  26  818.5298
  27  869.8795
  28  1180.28
  29  1201.444
  30  1467.458
  31  1989.464
  32  2217.743
  33  1912.86
  34  1125.23
  35  870.7966
  36  1063.578
  37  966.4841
  38  1176.872
  39  1635.664
  40  1487.693
  41  1319.056
  42  814.402
  43  464.9234
  44  790.0027
  45  1212.875
  46  1493.019
  47  1913.911
  48  1904.365
  49  1740.923
  50  1495.374
  51  1152.024
  52  1224.757
  53  1117.641
  54  1250.813
  55  1654.958
  56  2190.491
  57  1691.398
  58  960.614
  59  789.501
  60  1026.996
  61  1033.474
  62  1111.133
  63  1768.591
  64  2234.488
  65  2222.586
  66  1830.644
  67  1559.302
  68  1393.918
  69  1591.78
  70  1341.751
  71  1089.609
  72  1246.18
  73  1356.842
  74  1174.604
  75  1179.085
  76  1002.175
  77  1273.363
  78  1478.486
  79  1587.386
  80  2005.914
  81  2406.048
  82  2170.388
  83  1585.569
  84  1549.453
  85  1813.97
  86  1567.622
  87  1361.189
  88  1619.797
  89  1693.361
  90  1702.315
  91  1333.622
  92  894.5884
  93  630.7056
  94  700.1484
  95  1160.791
  96  1731.61
  97  2214.492
  98  2279.982
  99  1847.47
 100  1601.978
 101  1368.29
 102  1374.969
 103  1277.127
 104  1274.461
 105  1603.562
 106  1820.953
 107  1897.415
 108  1299.475
 109  1087.551
 110  1266.708
 111  1196.899
 112  1618.019
 113  2035.318
 114  2377.641
 115  2072.014
 116  1499.442
 117  976.3903
 118  1341.099
 119  1629.213
 120  1357.377
 121  1476.561
 122  2348.294
 123  1822.395
 124  876.3167
 125  442.0968
 126  789.5341
 127  889.4581
 128  1345.568
 129  2074.429
 130  2581.424
 131  2159.156
 132  1510.267
 133  1188.228
 134  959.7236
 135  1107.166
 136  1240.732
 137  1199.778
 138  1615.494
 139  1936.068
 140  1814.132
 141  1190.026
 142  705.2419
 143  854.4212
 144  1292.147
 145  1151.443
 146  1631.683
 147  2244.944
 148  2158.612
 149  1736.908
 150  1486.867
 151  1371.425
 152  1191.37
 153  1323.604
 154  1679.214
 155  1792.142
 156  1582.967
 157  1200.023
 158  538.7634
 159  728.7084
 160  1131.623
 161  1422.592
 162  1944.067
 163  2364.275
 164  2449.595
 165  1872.88
 166  1474.128
 167  1224.294
 168  1378.431
 169  1406.776
 170  1338.334
 171  1289.91
 172  1967.25
 173  1829.263
 174  1129.895
 175  1069.51
 176  1213.36
 177  607.6176
 178  1038.26
 179  1836.821
 180  2315.758
 181  2376.959
 182  1982.329
 183  1608.785
 184  1630.676
 185  1347.979
 186  1050.983
 187  1456.727
 188  1982.103
 189  1748.272
 190  1153.033
 191  983.1033
 192  1029.306
 193  875.7952
 194  1191.955
 195  1581.443
 196  2369.51
 197  2405.37
 198  1830.369
 199  1202.821
 200  978.4803
 201  1042.952
 202  1511.537
 203  1376.451
 204  1829.602
 205  2109.86
 206  1788.881
 207  912.2369
 208  617.3999
 209  800.3106
 210  1099.85
 211  1389.82
 212  2019.595
 213  2073.355
 214  2380.648
 215  1793.942
 216  1559.936
 217  1846.733
 218  1579.4
 219  980.2492
 220  1191.801
 221  1495.544
 222  1633.495
 223  1391.011
 224  981.3749
 225  905.4688
 226  1090.292
 227  1227.093
 228  1195.636
 229  2072.291
 230  2536.4
 231  1938.311
 232  1286.83
 233  1353.68
 234  1404.209
 235  1363.085
 236  1327.111
 237  1946.155
 238  2414.637
 239  2200.269
 240  1496.208
 241  1092.345
 242  765.0919
 243  816.3457
 244  1081.887
 245  1801.806
 246  2296.54
 247  2202.534
 248  1709.428
 249  1674.477
 250  1307.773
 251  1006.771
 252  1150.206
 253  1175.529
 254  1896.624
 255  1908.508
 256  1296.039
 257  1020.727
 258  799.0481
 259  1110.686
 260  1079.258
 261  1265.938
 262  1782.538
 263  2116.302
 264  1535.26
 265  1425.193
 266  1490.296
 267  1859.163
 268  1663.781
 269  1387.012
 270  1633.356
 271  2005.769
 272  1659.262
 273  1204.142
 274  882.2189
 275  755.7508
 276  1131.193
 277  1280.535
 278  2023.427
 279  2498.392
 280  1976.52
 281  1623.161
 282  1431.455
 283  1213.485
 284  1047.175
 285  848.5554
 286  1019.68
 287  1325.164
 288  1889.792
 289  1688.987
 290  1258.813
 291  907.2087
 292  954.6214
 293  1274.025
 294  1569.558
 295  2047.963
 296  2093.247
 297  1737.391
 298  1326.829
 299  1072.411
 300  1550.124
 301  1570.744
 302  1371.29
 303  1701.083
 304  1907.58
 305  1606.1
 306  905.4872
 307  743.5791
 308  714.4385
 309  448.1681
 310  1171.167
 311  1762.869
 312  2259.065
 313  2112.554
 314  1683.091
 315  1586.458
 316  1513.149
 317  1327.643
 318  1107.495
 319  978.4622
 320  1617.975
 321  2127.359
 322  1795.263
 323  1366.388
 324  1238.471
 325  918.9277
 326  788.123
 327  1005.761
 328  1760.671
 329  2234.824
 330  2076.21
 331  1448.019
 332  1083.987
 333  1325.616
 334  1226.548
 335  718.7026
 336  1137.453
 337  1713.688
 338  1400.847
 339  1178.712
 340  851.6752
 341  918.6832
 342  1251.98
 343  1342.564
 344  1644.547
 345  2340.855
 346  2183.667
 347  1609.168
 348  820.9211
 349  940.3574
 350  1276.267
 351  1075.12
 352  1119.689
 353  1623.805
 354  2146.688
 355  1704.247
 356  1165.677
 357  1070.016
 358  747.7175
 359  812.3702
 360  1278.518
 361  1649.268
 362  1984.187
 363  2040.342
 364  1752.912
 365  1924.555
 366  1605.653
 367  1229.442
 368  1025.76
 369  1192.21
 370  1525.719
 371  1566.552
 372  1001.996
 373  762.011
 374  806.6639
 375  986.1984
 376  1557.007
 377  2113.722
 378  2379.807
 379  2289.387
 380  2015.689
 381  1413.698
 382  985.8414
 383  1341.487
 384  1285.519
 385  1388.228
 386  1572.238
 387  1927.904
 388  1476.57
 389  803.4128
 390  760.6857
 391  929.7938
 392  1241.758
 393  1339.104
 394  2086.558
 395  2509.062
 396  2292.376
 397  1578.22
 398  1670.481
 399  1844.494
 400  1248.883
 401  1158.443
 402  1832.532
 403  2631.704
 404  2926.41
 405  2922.454
 406  2721.328
 407  2766.867
 408  2251.383
 409  2287.029
 410  2318.377
 411  2481.328
 412  2315.11
 413  1649.044
 414  1515.262
 415  1430.414
 416  1272.333
 417  1668.819
 418  1959.038
 419  2131.924
 420  1969.843
 421  1416.535
 422  741.3531
 423  568.9078
 424  911.4362
 425  726.6371
 426  1405.241
 427  1997.401
 428  2278.393
 429  2306.846
 430  1821.114
 431  1488.328
 432  1368.18
 433  1020.468
 434  1057.036
 435  1629.678
 436  2173.635
 437  1776.885
 438  1180.21
 439  1031.867
 440  957.4775
 441  1136.628
 442  1181.506
 443  1578.541
 444  2191.828
 445  2193.885
 446  1570.005
 447  1255.73
 448  1199.887
 449  1411.101
 450  1347.913
 451  1379.558
 452  1606.226
 453  1606.173
 454  974.9768
 455  500.2035
 456  548.6696
 457  1165.503
 458  1294.692
 459  1487.014
 460  1912.396
 461  2399.749
 462  2246.876
 463  1656.523
 464  1242.624
 465  1259.608
 466  1118.98
 467  561.5757
 468  1148.052
 469  2013.619
 470  1850.485
 471  1641.849
 472  1041.004
 473  1122.081
 474  1231.359
 475  1458.166
 476  1951.487
 477  2289.926
 478  2381.65
 479  2120.732
 480  1640.141
 481  1378.149
 482  1689.106
 483  1599.333
 484  1710.878
 485  2068.837
 486  2279.771
 487  1721.13
 488  1183.078
 489  1017.034
 490  1063.161
 491  1187.948
 492  1413.858
 493  2266.983
 494  2544.988
 495  2048.589
 496  1424.38
 497  1186.744
 498  1334.959
 499  1033.441
 500  970.7652
 501  1340.811
 502  1746.429
 503  2083.442
 504  1275.161
 505  1133.929
 506  1098.09
 507  1009.589
 508  1161.323
 509  1715.828
 510  2203.764
 511  2225.363
