# Input file       =  1202380413.111722_cleaned.dat
# Candidate        =  PSR_0332+5434
# Telescope        =  AR
# Epoch_topo       =  58160.440186478263
# Epoch_bary       =  N/A
# T_sample         =  0.002
# Data Folded      =  7143424
# Data Avg         =  0.119926343772373
# Data StdDev      =  4.07121598061356 
# Profile Bins     =  1024
# Profile Avg      =  836.670374107247 
# Profile StdDev   =  340.037941612643 
# Reduced chi-sqr  =  1.160
# Prob(Noise)      <  0.000277   (~3.5 sigma)
# P_topo (ms)      =  714.579278765596  +/- 3.5e-05
# P'_topo (s/s)    =  -0                +/- 1.9e-11
# P''_topo (s/s^2) =  0                 +/- 8.61e-15
# P_bary (ms)      =  N/A
# P'_bary (s/s)    =  N/A
# P''_bary (s/s^2) =  N/A
# P_orb (s)        =  N/A
# asin(i)/c (s)    =  N/A
# eccentricity     =  N/A
# w (rad)          =  N/A
# T_peri           =  N/A
######################################################
   0  1041.542
   1  964.9935
   2  809.2741
   3  700.5991
   4  535.5215
   5  498.5168
   6  500.2112
   7  587.1817
   8  657.3221
   9  690.1165
  10  756.3058
  11  797.1931
  12  896.4053
  13  1132.321
  14  1202.149
  15  1204.804
  16  1100.302
  17  1102.173
  18  1044.505
  19  864.7102
  20  700.6749
  21  545.8729
  22  552.6066
  23  633.1713
  24  723.9782
  25  788.7684
  26  807.9233
  27  802.8263
  28  892.1772
  29  923.0125
  30  1015.601
  31  964.6041
  32  983.6779
  33  916.9768
  34  860.0509
  35  706.0767
  36  531.3583
  37  484.8141
  38  409.4201
  39  441.3403
  40  454.611
  41  545.9572
  42  676.8004
  43  725.277
  44  897.8201
  45  808.9968
  46  897.9583
  47  1086.646
  48  1201.938
  49  1153.313
  50  1041.062
  51  1030.81
  52  957.3497
  53  904.1971
  54  927.0883
  55  947.3207
  56  762.7764
  57  733.0244
  58  812.764
  59  890.0656
  60  910.6544
  61  786.9861
  62  777.5986
  63  828.1406
  64  967.7538
  65  1052.841
  66  898.334
  67  774.604
  68  671.9084
  69  628.8823
  70  597.0643
  71  597.9427
  72  724.4113
  73  771.3099
  74  772.4596
  75  790.0997
  76  706.0216
  77  625.3007
  78  727.6035
  79  868.0136
  80  1027.191
  81  976.1475
  82  1005.293
  83  909.9
  84  767.74
  85  704.1291
  86  817.0067
  87  881.6063
  88  894.7969
  89  852.7966
  90  840.1948
  91  759.6342
  92  810.2734
  93  864.3459
  94  874.9188
  95  777.813
  96  745.1028
  97  760.2582
  98  726.5469
  99  764.655
 100  901.2228
 101  909.1717
 102  922.838
 103  840.5956
 104  841.687
 105  777.918
 106  808.7951
 107  901.2079
 108  797.3392
 109  813.9072
 110  798.6896
 111  909.6162
 112  982.647
 113  1067.131
 114  1253.37
 115  1258.326
 116  1184.65
 117  964.0218
 118  853.2334
 119  776.4853
 120  766.0277
 121  683.7307
 122  771.657
 123  745.3808
 124  753.5874
 125  597.4843
 126  578.4788
 127  511.1339
 128  640.2346
 129  777.6062
 130  941.7512
 131  936.2796
 132  867.4205
 133  808.7262
 134  737.1213
 135  678.6274
 136  716.6327
 137  709.2131
 138  746.3693
 139  668.7549
 140  679.3048
 141  506.9829
 142  488.1841
 143  631.7132
 144  896.9778
 145  1023.868
 146  1188.665
 147  1203.11
 148  1204.829
 149  1067.219
 150  1041.561
 151  989.3986
 152  908.3959
 153  807.9459
 154  730.562
 155  737.1887
 156  743.2856
 157  794.6011
 158  768.8494
 159  867.3543
 160  946.0369
 161  1057.341
 162  1024.875
 163  1069.715
 164  1100.304
 165  1126.652
 166  1046.992
 167  935.9564
 168  759.5156
 169  626.9614
 170  627.8992
 171  666.838
 172  677.2236
 173  639.2764
 174  606.3119
 175  641.8025
 176  654.22
 177  707.8873
 178  917.7363
 179  1027.182
 180  1194.809
 181  1127.137
 182  937.1813
 183  946.0431
 184  952.8477
 185  1094.119
 186  781.0723
 187  664.7981
 188  625.6987
 189  651.2476
 190  617.8246
 191  592.4931
 192  677.9532
 193  703.3093
 194  720.2001
 195  791.7739
 196  972.0565
 197  1005.409
 198  992.3489
 199  874.8561
 200  843.5427
 201  657.6917
 202  611.4899
 203  634.0417
 204  678.2031
 205  755.7727
 206  673.5599
 207  621.0201
 208  619.0621
 209  633.3984
 210  815.8876
 211  944.9527
 212  1049.624
 213  1080.441
 214  1012.518
 215  903.8453
 216  718.6941
 217  744.1554
 218  806.8784
 219  862.1741
 220  900.1003
 221  909.2455
 222  870.4756
 223  769.8911
 224  772.3489
 225  827.1402
 226  818.3615
 227  886.0743
 228  859.2493
 229  827.4012
 230  740.195
 231  762.2501
 232  718.5232
 233  591.3856
 234  604.0076
 235  817.3888
 236  945.8474
 237  840.1764
 238  766.4601
 239  649.9208
 240  753.1229
 241  722.1274
 242  849.3504
 243  831.2992
 244  830.2728
 245  1043.914
 246  1232.476
 247  1288.015
 248  1069.346
 249  982.384
 250  1070.879
 251  1050.643
 252  1024.065
 253  956.2103
 254  925.9931
 255  915.22
 256  848.8648
 257  837.4091
 258  749.2572
 259  728.4505
 260  824.1707
 261  972.7446
 262  1099.05
 263  1034.197
 264  939.2298
 265  862.6789
 266  815.0186
 267  801.7695
 268  775.366
 269  672.2655
 270  801.8942
 271  760.1874
 272  790.0503
 273  823.0444
 274  851.2717
 275  829.7366
 276  728.9428
 277  929.2966
 278  1035.241
 279  1066.589
 280  990.2138
 281  1011.836
 282  1043.713
 283  1110.626
 284  1156.843
 285  1087.856
 286  977.7563
 287  918.3588
 288  928.1962
 289  875.7795
 290  811.0965
 291  754.5433
 292  779.9875
 293  720.8078
 294  831.4808
 295  808.79
 296  880.3675
 297  787.3
 298  803.4554
 299  659.8457
 300  499.056
 301  497.8326
 302  610.3849
 303  839.4437
 304  803.1977
 305  715.5388
 306  622.6321
 307  616.8145
 308  830.7989
 309  997.6869
 310  1089.107
 311  1097.527
 312  1152.601
 313  1120.494
 314  929.5109
 315  790.4461
 316  790.6324
 317  804.1136
 318  893.287
 319  910.7861
 320  917.4827
 321  807.3455
 322  775.8947
 323  849.7146
 324  807.4875
 325  851.043
 326  948.1191
 327  985.6019
 328  889.509
 329  862.5189
 330  949.0308
 331  947.028
 332  757.952
 333  631.2408
 334  587.5615
 335  473.9792
 336  440.2426
 337  427.5331
 338  590.4404
 339  481.3473
 340  524.6828
 341  653.4036
 342  842.8766
 343  830.717
 344  1003.837
 345  1176.6
 346  1221.1
 347  1015.459
 348  1031.04
 349  947.3797
 350  846.3249
 351  753.6462
 352  811.0513
 353  904.1596
 354  883.5281
 355  793.6411
 356  654.9498
 357  567.4261
 358  616.7779
 359  703.4744
 360  814.3646
 361  959.5457
 362  1108.29
 363  1130.348
 364  894.1443
 365  725.4434
 366  550.2756
 367  534.368
 368  585.012
 369  571.754
 370  575.7627
 371  485.5641
 372  492.3585
 373  680.1226
 374  751.0233
 375  953.8386
 376  974.9711
 377  1130.296
 378  1148.992
 379  1035.548
 380  1025.435
 381  930.8765
 382  844.0193
 383  657.6133
 384  664.8839
 385  798.889
 386  918.656
 387  887.9715
 388  868.3615
 389  722.686
 390  739.7274
 391  709.5674
 392  629.2788
 393  501.8142
 394  589.0425
 395  767.3677
 396  756.6132
 397  616.0559
 398  513.0248
 399  530.0132
 400  572.1215
 401  691.2498
 402  734.7264
 403  642.2492
 404  630.4089
 405  689.0459
 406  721.199
 407  714.1586
 408  712.7681
 409  908.0238
 410  1072.908
 411  1170.363
 412  1192.614
 413  1038.149
 414  970.4688
 415  798.5771
 416  857.9246
 417  827.6381
 418  835.2889
 419  882.7998
 420  921.7545
 421  771.3635
 422  684.0851
 423  592.5004
 424  755.615
 425  803.438
 426  978.8755
 427  1093.14
 428  1147.22
 429  1066.092
 430  799.3934
 431  673.3678
 432  602.0722
 433  621.5488
 434  582.9377
 435  582.0773
 436  652.5228
 437  702.8971
 438  815.2372
 439  842.6553
 440  1031.995
 441  1084.675
 442  1117.621
 443  1081.978
 444  1151.252
 445  1009.527
 446  921.011
 447  816.7969
 448  924.6014
 449  802.4984
 450  839.6108
 451  927.5566
 452  905.2443
 453  911.9029
 454  886.1125
 455  973.9133
 456  845.4572
 457  778.8999
 458  739.6584
 459  815.7717
 460  889.051
 461  928.8491
 462  807.8188
 463  710.8406
 464  632.7986
 465  643.6193
 466  594.256
 467  500.876
 468  648.7781
 469  651.4763
 470  677.0186
 471  717.9016
 472  799.6619
 473  831.3942
 474  932.6805
 475  1074.465
 476  1158.636
 477  1143.01
 478  1207.032
 479  1230.051
 480  1107.074
 481  988.448
 482  893.1948
 483  760.3372
 484  720.3943
 485  778.1751
 486  837.8075
 487  755.5479
 488  723.9935
 489  635.6866
 490  753.6363
 491  857.4855
 492  1065.267
 493  1146.001
 494  1136.751
 495  1185.452
 496  1001.556
 497  733.2126
 498  583.2461
 499  526.8227
 500  679.6498
 501  682.8289
 502  795.2518
 503  771.7007
 504  763.4066
 505  806.3452
 506  943.2903
 507  1088.626
 508  1152.092
 509  1070.273
 510  1113.763
 511  1204.664
 512  1114.206
 513  952.8779
 514  733.1244
 515  731.3655
 516  753.2532
 517  662.142
 518  735.2045
 519  646.7543
 520  747.6648
 521  730.5121
 522  763.0084
 523  728.6918
 524  715.3494
 525  917.82
 526  1008.567
 527  978.1926
 528  938.9171
 529  841.6685
 530  730.8168
 531  661.777
 532  707.3137
 533  851.4386
 534  733.3954
 535  678.5732
 536  609.446
 537  564.2017
 538  572.2137
 539  701.8271
 540  854.5187
 541  965.5883
 542  1103.955
 543  1166.865
 544  1223.005
 545  1149.131
 546  1232.847
 547  1092.652
 548  965.7526
 549  875.4891
 550  966.646
 551  904.6645
 552  734.2727
 553  574.6216
 554  547.3738
 555  693.4581
 556  833.6344
 557  998.8907
 558  980.2186
 559  1059.499
 560  983.2399
 561  927.752
 562  704.8137
 563  647.7813
 564  652.6935
 565  665.9411
 566  712.2617
 567  716.6026
 568  789.1353
 569  685.0458
 570  777.2693
 571  887.543
 572  1007.092
 573  891.3468
 574  1122.259
 575  1282.966
 576  1366.069
 577  1231.344
 578  1214.08
 579  1189.85
 580  955.8106
 581  805.3392
 582  768.163
 583  912.715
 584  941.6937
 585  937.5596
 586  883.6691
 587  742.4659
 588  637.3718
 589  674.2376
 590  692.1763
 591  726.7163
 592  917.7339
 593  984.41
 594  977.8084
 595  812.5945
 596  868.9218
 597  801.3732
 598  746.0817
 599  706.1003
 600  650.1758
 601  590.9
 602  629.6497
 603  895.3596
 604  1054.361
 605  1047.824
 606  1213.574
 607  1515.749
 608  1729.492
 609  1748.667
 610  1740.249
 611  1758.384
 612  1587.439
 613  1447.249
 614  1474.168
 615  1459.685
 616  1429.514
 617  1353.212
 618  1367.48
 619  1281.992
 620  1102.428
 621  1017.052
 622  955.0563
 623  933.2504
 624  1074.33
 625  1221.369
 626  1134.269
 627  959.9416
 628  810.6998
 629  810.6266
 630  638.9493
 631  590.1684
 632  552.3585
 633  606.2538
 634  691.2778
 635  763.9222
 636  810.1262
 637  819.3757
 638  1015.095
 639  1166.693
 640  1108.822
 641  1097.63
 642  1220.906
 643  1330.396
 644  1167.372
 645  970.1369
 646  973.6212
 647  853.1026
 648  745.0106
 649  791.0201
 650  897.2036
 651  888.385
 652  781.4093
 653  743.9333
 654  826.511
 655  818.5005
 656  841.9232
 657  823.056
 658  880.7072
 659  949.363
 660  919.7461
 661  882.4752
 662  731.7566
 663  697.3997
 664  527.847
 665  513.2093
 666  509.3364
 667  475.2706
 668  493.1353
 669  476.3803
 670  671.2398
 671  793.2646
 672  968.3776
 673  1147.055
 674  1240.066
 675  1319.653
 676  1292.147
 677  1222.295
 678  1046.648
 679  909.8703
 680  841.8304
 681  799.3737
 682  737.0767
 683  835.5676
 684  803.4065
 685  758.2997
 686  791.9811
 687  842.4099
 688  882.1913
 689  896.2293
 690  970.8609
 691  999.862
 692  972.5689
 693  990.1423
 694  971.0377
 695  920.332
 696  807.97
 697  682.1839
 698  577.6158
 699  574.3522
 700  567.7877
 701  497.719
 702  549.9468
 703  635.6425
 704  705.8678
 705  711.8669
 706  816.3911
 707  1007.413
 708  1160.339
 709  1117.252
 710  1007.709
 711  903.0125
 712  942.6108
 713  1032.56
 714  988.5909
 715  930.3496
 716  850.7068
 717  938.4935
 718  872.9221
 719  816.0805
 720  652.7479
 721  636.3699
 722  685.3604
 723  690.1467
 724  673.8752
 725  659.6047
 726  747.2053
 727  758.4003
 728  577.3272
 729  517.8019
 730  507.7523
 731  536.1476
 732  448.1374
 733  396.5427
 734  491.3298
 735  547.2043
 736  642.3905
 737  791.97
 738  862.5143
 739  1013.684
 740  1082.267
 741  1196.842
 742  1148.061
 743  979.6682
 744  969.6841
 745  880.5544
 746  884.0311
 747  741.1885
 748  740.5997
 749  770.7619
 750  781.6313
 751  844.6647
 752  813.8682
 753  897.584
 754  901.6927
 755  981.8903
 756  936.374
 757  889.2228
 758  858.8149
 759  927.0493
 760  927.3817
 761  899.4559
 762  753.3427
 763  673.7006
 764  617.1469
 765  629.7596
 766  741.6337
 767  776.0178
 768  771.7498
 769  809.6454
 770  846.8311
 771  922.2466
 772  1038.654
 773  1107.304
 774  1175.178
 775  1071.937
 776  1205.182
 777  1175.093
 778  1005.387
 779  834.1896
 780  704.5106
 781  863.4409
 782  874.7469
 783  859.9609
 784  740.9323
 785  674.5675
 786  641.9451
 787  582.6484
 788  614.9955
 789  653.2203
 790  855.3486
 791  1014.38
 792  991.5613
 793  730.7939
 794  516.0815
 795  424.5123
 796  449.5474
 797  468.4799
 798  628.5686
 799  581.6215
 800  519.4935
 801  599.4468
 802  711.774
 803  866.637
 804  869.5897
 805  1055.951
 806  1263.655
 807  1235.1
 808  1076.119
 809  918.9943
 810  746.5827
 811  542.735
 812  562.3709
 813  772.4127
 814  808.4367
 815  711.0233
 816  767.2941
 817  743.4042
 818  624.0267
 819  568.1206
 820  746.5884
 821  774.8531
 822  773.7255
 823  803.6086
 824  754.8465
 825  610.2595
 826  527.5411
 827  528.6129
 828  591.0172
 829  626.0298
 830  697.2593
 831  798.9105
 832  679.1796
 833  682.6308
 834  588.9317
 835  586.9424
 836  551.0267
 837  695.2769
 838  747.9741
 839  824.1497
 840  974.7003
 841  1068.918
 842  963.6359
 843  809.8243
 844  801.6396
 845  751.6653
 846  756.9351
 847  793.5192
 848  1032.408
 849  1018.488
 850  950.451
 851  829.6772
 852  708.2544
 853  600.0295
 854  649.2152
 855  801.6215
 856  917.9178
 857  974.4236
 858  965.3406
 859  945.3676
 860  749.691
 861  653.0958
 862  502.3903
 863  499.1489
 864  488.7628
 865  545.8487
 866  608.7291
 867  653.3193
 868  684.0261
 869  683.8758
 870  733.6254
 871  858.0483
 872  1032.022
 873  1121.918
 874  1156.876
 875  1026.994
 876  990.0243
 877  981.8056
 878  952.1633
 879  842.8285
 880  749.4113
 881  855.9271
 882  836.9593
 883  774.0009
 884  706.0974
 885  821.2927
 886  913.3188
 887  969.8984
 888  943.2271
 889  963.8365
 890  944.3866
 891  811.202
 892  795.1302
 893  842.9122
 894  925.0627
 895  749.4457
 896  625.9736
 897  610.7181
 898  676.0259
 899  682.3835
 900  689.6938
 901  609.6201
 902  614.5096
 903  626.2737
 904  1003.802
 905  1175.429
 906  1230.203
 907  1207.514
 908  1215.002
 909  1323.141
 910  1101.61
 911  936.7582
 912  712.8502
 913  682.0405
 914  741.6227
 915  682.3566
 916  551.7487
 917  536.9738
 918  564.03
 919  797.4468
 920  817.1755
 921  835.0433
 922  982.6153
 923  1076.959
 924  1087.087
 925  964.9579
 926  800.0691
 927  691.8196
 928  559.2092
 929  665.6635
 930  634.5525
 931  570.2495
 932  519.0184
 933  516.8934
 934  598.0052
 935  686.5936
 936  858.9818
 937  998.6301
 938  1107.789
 939  1271.798
 940  1280.745
 941  1088.741
 942  787.2745
 943  677.0265
 944  737.9583
 945  740.5192
 946  845.1039
 947  951.4933
 948  952.389
 949  869.752
 950  798.3968
 951  830.7029
 952  771.3221
 953  695.0538
 954  768.189
 955  807.045
 956  743.2164
 957  638.7499
 958  670.0847
 959  640.1806
 960  607.3795
 961  620.2619
 962  659.4476
 963  705.6813
 964  753.6983
 965  833.1184
 966  784.9323
 967  676.7524
 968  605.8492
 969  611.6745
 970  704.9539
 971  841.9384
 972  1071.693
 973  1076.931
 974  1061.346
 975  997.9697
 976  992.8146
 977  888.7193
 978  747.9499
 979  819.1241
 980  737.6834
 981  584.5446
 982  377.1596
 983  526.4291
 984  625.9742
 985  772.248
 986  776.4397
 987  950.5204
 988  957.5563
 989  927.0383
 990  834.5789
 991  805.694
 992  799.4773
 993  761.366
 994  614.5009
 995  385.2371
 996  413.9165
 997  469.7113
 998  587.5334
 999  569.1277
1000  615.8246
1001  641.5486
1002  635.1508
1003  733.1064
1004  968.8851
1005  1052.059
1006  1069.454
1007  1106.566
1008  976.9675
1009  764.0112
1010  670.3255
1011  883.0438
1012  1023.417
1013  913.634
1014  871.2231
1015  779.8192
1016  741.2601
1017  644.6023
1018  786.6327
1019  907.9712
1020  1025.636
1021  1084.644
1022  1136.088
1023  1168.663
