# Input file       =  1202725192.1155_cleaned.dat
# Candidate        =  PSR_0332+5434
# Telescope        =  AR
# Epoch_topo       =  58164.430684207175
# Epoch_bary       =  N/A
# T_sample         =  0.002
# Data Folded      =  7208960
# Data Avg         =  -0.0622853390352595
# Data StdDev      =  1.00012976451481 
# Profile Bins     =  512
# Profile Avg      =  -877.000264586736
# Profile StdDev   =  118.674573543905 
# Reduced chi-sqr  =  1.006
# Prob(Noise)      <  0.454   (~0.1 sigma)
# P_topo (ms)      =  714.580061930906  +/- 0.000368
# P'_topo (s/s)    =  -0                +/- 1.98e-10
# P''_topo (s/s^2) =  0                 +/- 8.89e-14
# P_bary (ms)      =  N/A
# P'_bary (s/s)    =  N/A
# P''_bary (s/s^2) =  N/A
# P_orb (s)        =  N/A
# asin(i)/c (s)    =  N/A
# eccentricity     =  N/A
# w (rad)          =  N/A
# T_peri           =  N/A
######################################################
   0  -904.1606
   1  -862.3228
   2  -800.304
   3  -796.886
   4  -880.7568
   5  -927.1358
   6  -912.4544
   7  -966.5379
   8  -971.4528
   9  -1016.195
  10  -1093.737
  11  -932.7861
  12  -815.8929
  13  -844.8297
  14  -917.197
  15  -887.8964
  16  -860.6289
  17  -947.5717
  18  -826.3411
  19  -798.8091
  20  -799.0209
  21  -907.3427
  22  -893.3966
  23  -860.0548
  24  -986.3793
  25  -874.7963
  26  -837.5142
  27  -864.1295
  28  -897.8768
  29  -795.6483
  30  -772.6791
  31  -857.5533
  32  -882.5209
  33  -886.7466
  34  -910.9177
  35  -880.2034
  36  -883.0594
  37  -942.5546
  38  -916.7743
  39  -812.0161
  40  -922.4359
  41  -907.0699
  42  -905.7501
  43  -892.5874
  44  -894.9023
  45  -922.4603
  46  -906.2502
  47  -975.1226
  48  -939.7151
  49  -901.2342
  50  -873.9481
  51  -842.442
  52  -830.1585
  53  -858.6624
  54  -945.1391
  55  -946.0541
  56  -907.0637
  57  -883.7634
  58  -903.1275
  59  -928.0612
  60  -864.2921
  61  -903.485
  62  -864.5758
  63  -803.0931
  64  -918.7202
  65  -904.0365
  66  -894.9295
  67  -789.8174
  68  -801.9102
  69  -902.4485
  70  -906.7449
  71  -960.0867
  72  -933.4196
  73  -873.799
  74  -898.0317
  75  -901.7395
  76  -850.4301
  77  -691.291
  78  -577.395
  79  -489.1749
  80  -344.0758
  81  -259.3677
  82  -236.1522
  83  -407.2069
  84  -566.8484
  85  -738.5178
  86  -860.1544
  87  -848.221
  88  -806.5828
  89  -839.1794
  90  -865.8629
  91  -835.7667
  92  -821.1805
  93  -788.7729
  94  -810.0756
  95  -916.7803
  96  -893.6887
  97  -860.1506
  98  -913.5163
  99  -997.5742
 100  -960.3974
 101  -849.9021
 102  -783.6988
 103  -852.3428
 104  -907.9062
 105  -910.2913
 106  -980.4841
 107  -886.7848
 108  -903.5833
 109  -897.1112
 110  -904.5931
 111  -1001.852
 112  -977.4169
 113  -896.3854
 114  -939.5774
 115  -918.3592
 116  -923.6419
 117  -833.5457
 118  -862.1046
 119  -929.3158
 120  -924.1598
 121  -872.3513
 122  -872.1197
 123  -808.6548
 124  -898.7077
 125  -944.4388
 126  -892.7794
 127  -850.259
 128  -875.7157
 129  -889.216
 130  -796.7202
 131  -888.6198
 132  -1011.38
 133  -1002.947
 134  -923.174
 135  -881.1492
 136  -866.2679
 137  -893.58
 138  -895.9467
 139  -852.1564
 140  -786.5228
 141  -764.745
 142  -878.0548
 143  -932.8626
 144  -901.5271
 145  -903.6289
 146  -948.8712
 147  -879.917
 148  -719.6208
 149  -840.7084
 150  -839.2369
 151  -782.8704
 152  -934.6261
 153  -877.0695
 154  -843.3162
 155  -819.576
 156  -919.6348
 157  -975.5263
 158  -999.4862
 159  -878.0385
 160  -848.325
 161  -778.0788
 162  -855.3465
 163  -863.6937
 164  -768.7292
 165  -935.9049
 166  -904.9423
 167  -860.5101
 168  -839.8537
 169  -796.4028
 170  -914.9095
 171  -837.3519
 172  -858.9967
 173  -777.6724
 174  -788.4106
 175  -893.3234
 176  -848.4578
 177  -799.9305
 178  -913.6417
 179  -1005.3
 180  -926.9811
 181  -893.9501
 182  -957.5165
 183  -922.8541
 184  -860.1606
 185  -987.1952
 186  -971.1254
 187  -819.7639
 188  -788.8181
 189  -845.2932
 190  -859.6437
 191  -803.4845
 192  -873.1276
 193  -966.733
 194  -912.1602
 195  -916.8867
 196  -976.5563
 197  -923.0136
 198  -903.2961
 199  -921.5582
 200  -935.531
 201  -853.892
 202  -798.7899
 203  -864.2248
 204  -835.2309
 205  -907.2935
 206  -880.1653
 207  -843.9142
 208  -814.9344
 209  -850.9166
 210  -900.6612
 211  -807.0224
 212  -826.7386
 213  -925.6317
 214  -987.3994
 215  -906.228
 216  -731.6889
 217  -840.407
 218  -914.0912
 219  -948.5341
 220  -833.6273
 221  -817.309
 222  -877.0255
 223  -955.9698
 224  -823.8586
 225  -837.1613
 226  -772.8859
 227  -751.3228
 228  -790.2477
 229  -847.4844
 230  -762.3637
 231  -796.9754
 232  -812.072
 233  -862.4459
 234  -877.9489
 235  -872.238
 236  -941.7328
 237  -833.6149
 238  -867.7426
 239  -853.5907
 240  -816.6782
 241  -788.8185
 242  -849.3873
 243  -803.2529
 244  -864.4442
 245  -933.2562
 246  -917.5181
 247  -753.5755
 248  -708.9963
 249  -895.3998
 250  -927.971
 251  -894.8779
 252  -774.5251
 253  -868.3773
 254  -1036.475
 255  -945.6048
 256  -814.7839
 257  -866.5826
 258  -757.6025
 259  -786.4581
 260  -797.7465
 261  -831.4542
 262  -934.7281
 263  -907.512
 264  -896.0087
 265  -805.2068
 266  -738.2114
 267  -868.8987
 268  -1016.005
 269  -1007.2
 270  -956.6161
 271  -972.7205
 272  -868.0993
 273  -850.0522
 274  -836.3033
 275  -828.0928
 276  -804.3623
 277  -773.6666
 278  -871.0025
 279  -842.811
 280  -934.7459
 281  -893.1436
 282  -799.5463
 283  -774.718
 284  -676.9405
 285  -806.4531
 286  -898.7949
 287  -903.6208
 288  -818.0586
 289  -875.6664
 290  -934.7073
 291  -897.145
 292  -881.1041
 293  -868.9612
 294  -722.9783
 295  -794.0207
 296  -844.4199
 297  -942.3675
 298  -1064.633
 299  -987.8649
 300  -862.1413
 301  -942.168
 302  -962.6917
 303  -913.1083
 304  -914.5344
 305  -1049.346
 306  -967.1979
 307  -835.2844
 308  -888.8356
 309  -873.9528
 310  -849.5529
 311  -892.8475
 312  -867.5122
 313  -874.9726
 314  -873.2987
 315  -854.1416
 316  -847.4188
 317  -969.3157
 318  -942.4573
 319  -875.3708
 320  -829.8419
 321  -935.0499
 322  -866.5369
 323  -796.7656
 324  -828.9094
 325  -750.3085
 326  -848.1387
 327  -876.6105
 328  -795.4885
 329  -781.7925
 330  -840.9775
 331  -849.0132
 332  -917.1666
 333  -811.8589
 334  -929.0935
 335  -885.9149
 336  -946.0106
 337  -923.7431
 338  -933.783
 339  -996.8317
 340  -996.8585
 341  -859.6608
 342  -845.8803
 343  -859.9309
 344  -831.1455
 345  -849.1104
 346  -882.3439
 347  -942.032
 348  -967.9103
 349  -891.5195
 350  -862.1509
 351  -879.7039
 352  -923.6855
 353  -945.7037
 354  -848.2559
 355  -831.7841
 356  -987.538
 357  -860.7154
 358  -757.7961
 359  -823.1779
 360  -806.4807
 361  -809.4773
 362  -910.2724
 363  -1012.648
 364  -986.4862
 365  -918.5403
 366  -986.9979
 367  -985.7451
 368  -988.8664
 369  -898.6025
 370  -845.501
 371  -887.8682
 372  -884.3105
 373  -943.597
 374  -954.7899
 375  -1025.63
 376  -967.6334
 377  -801.303
 378  -902.1198
 379  -1010.462
 380  -906.3395
 381  -871.6792
 382  -885.5864
 383  -957.0065
 384  -930.4862
 385  -976.5561
 386  -931.7844
 387  -798.3879
 388  -876.6312
 389  -923.5625
 390  -902.463
 391  -842.0142
 392  -921.3604
 393  -1007.144
 394  -868.3924
 395  -807.8876
 396  -886.0234
 397  -884.7737
 398  -924.0325
 399  -919.988
 400  -858.5816
 401  -822.7368
 402  -828.8484
 403  -994.9859
 404  -992.4243
 405  -918.3361
 406  -1001.206
 407  -873.8365
 408  -872.046
 409  -872.3357
 410  -889.2904
 411  -930.9657
 412  -937.7419
 413  -882.048
 414  -901.5305
 415  -956.1735
 416  -836.4187
 417  -752.8283
 418  -744.7307
 419  -883.7767
 420  -883.3672
 421  -969.6926
 422  -892.6843
 423  -847.5052
 424  -903.3917
 425  -918.9855
 426  -868.4874
 427  -829.7441
 428  -913.014
 429  -1011.505
 430  -901.2413
 431  -842.699
 432  -898.0425
 433  -919.0893
 434  -920.1845
 435  -870.1286
 436  -844.5792
 437  -964.4468
 438  -916.4648
 439  -834.3013
 440  -903.8598
 441  -875.8656
 442  -965.8347
 443  -965.9739
 444  -918.332
 445  -843.8067
 446  -839.6085
 447  -950.3405
 448  -956.2505
 449  -917.4875
 450  -917.3009
 451  -973.6486
 452  -907.5968
 453  -953.112
 454  -954.5712
 455  -921.0012
 456  -763.9531
 457  -709.1455
 458  -840.7621
 459  -950.0984
 460  -899.1197
 461  -895.8072
 462  -768.412
 463  -733.3127
 464  -841.7036
 465  -931.4556
 466  -912.194
 467  -785.5834
 468  -763.8833
 469  -908.0891
 470  -939.2151
 471  -950.2364
 472  -893.262
 473  -907.3704
 474  -859.5486
 475  -891.3243
 476  -921.1466
 477  -814.7554
 478  -794.3024
 479  -883.6187
 480  -907.1719
 481  -885.2943
 482  -887.8749
 483  -998.6542
 484  -955.867
 485  -1006.953
 486  -1029.594
 487  -910.641
 488  -931.9178
 489  -981.5829
 490  -844.1381
 491  -828.4783
 492  -794.3073
 493  -957.7535
 494  -945.6847
 495  -907.5091
 496  -956.1402
 497  -930.1226
 498  -909.1697
 499  -823.023
 500  -893.8253
 501  -951.1302
 502  -805.2676
 503  -824.4524
 504  -849.8602
 505  -906.3212
 506  -923.1428
 507  -940.6256
 508  -923.748
 509  -848.6697
 510  -928.6127
 511  -969.4121
