# Input file       =  1202481266.11084_cleaned.dat
# Candidate        =  PSR_0332+5434
# Telescope        =  AR
# Epoch_topo       =  58161.607466560650
# Epoch_bary       =  N/A
# T_sample         =  0.002
# Data Folded      =  7340032
# Data Avg         =  0.181866793551307
# Data StdDev      =  4.24225933337857 
# Profile Bins     =  1024
# Profile Avg      =  1304.10885973786 
# Profile StdDev   =  359.166822181195 
# Reduced chi-sqr  =  0.809
# Prob(Noise)      <  1   (~0.0 sigma)
# P_topo (ms)      =  714.579556474167  +/- 0.000513
# P'_topo (s/s)    =  -0                +/- 2.71e-10
# P''_topo (s/s^2) =  0                 +/- 1.2e-13
# P_bary (ms)      =  N/A
# P'_bary (s/s)    =  N/A
# P''_bary (s/s^2) =  N/A
# P_orb (s)        =  N/A
# asin(i)/c (s)    =  N/A
# eccentricity     =  N/A
# w (rad)          =  N/A
# T_peri           =  N/A
######################################################
   0  1153.657
   1  1143.938
   2  1095.374
   3  981.2407
   4  942.6843
   5  1041.681
   6  1117.545
   7  1209.868
   8  1185.245
   9  1300.531
  10  1408.549
  11  1417.182
  12  1253.14
  13  1223.179
  14  1129.963
  15  1014.398
  16  979.2966
  17  888.2078
  18  1054.953
  19  1063.416
  20  1123.178
  21  1088.903
  22  1076.638
  23  1019.381
  24  989.9601
  25  1058.343
  26  1123.3
  27  1187.341
  28  1149.344
  29  1139.157
  30  1114.938
  31  1020.494
  32  934.835
  33  886.2466
  34  1006.767
  35  1037.336
  36  984.3701
  37  952.4739
  38  991.7007
  39  1038.201
  40  1016.735
  41  1069.619
  42  1142.941
  43  1192.374
  44  1247.712
  45  1222.953
  46  1282.545
  47  1205.66
  48  1130.701
  49  1016.163
  50  1074.631
  51  1113.051
  52  1193.517
  53  1044.433
  54  1045.768
  55  976.2487
  56  1054.907
  57  1114.715
  58  1187.166
  59  1216.082
  60  1230.686
  61  1260.861
  62  1290.843
  63  1315.225
  64  1294.055
  65  1214.201
  66  1303.579
  67  1308.697
  68  1290.811
  69  1211.491
  70  1265.938
  71  1247.002
  72  1234.929
  73  1269.837
  74  1354.221
  75  1354.918
  76  1320.101
  77  1197.818
  78  1218.491
  79  1193.246
  80  1197.651
  81  1135.71
  82  1174.446
  83  1327.111
  84  1412.093
  85  1383.022
  86  1226.997
  87  1204.911
  88  1274.619
  89  1313.348
  90  1222.699
  91  1081.175
  92  1117.844
  93  1270.834
  94  1343.128
  95  1315.31
  96  1268.841
  97  1258.03
  98  1288.827
  99  1334.415
 100  1354.286
 101  1341.625
 102  1276.058
 103  1216.015
 104  1260.027
 105  1212.899
 106  1232.093
 107  1307.038
 108  1295.197
 109  1337.749
 110  1267.454
 111  1403.517
 112  1470.02
 113  1377.029
 114  1282.072
 115  1217.514
 116  1278.503
 117  1349.823
 118  1379.843
 119  1505.852
 120  1520.481
 121  1594.677
 122  1502.801
 123  1449.886
 124  1326.784
 125  1110.124
 126  1210.98
 127  1277.699
 128  1380.915
 129  1288.266
 130  1317.858
 131  1350.41
 132  1401.502
 133  1323.98
 134  1311.284
 135  1332.629
 136  1406.034
 137  1412.863
 138  1464.132
 139  1484.157
 140  1376.633
 141  1236.561
 142  1202.605
 143  1320.764
 144  1346.633
 145  1330.463
 146  1321.079
 147  1371.488
 148  1336.786
 149  1260.713
 150  1200.119
 151  1094.827
 152  1090.089
 153  1137.338
 154  1210.526
 155  1237.776
 156  1255.321
 157  1220.967
 158  1141.639
 159  1144.311
 160  1221.07
 161  1290.021
 162  1188.182
 163  1146.879
 164  1078.031
 165  1075.098
 166  1082.014
 167  1095.719
 168  1189.719
 169  1154.042
 170  1051.181
 171  1082.475
 172  1124.547
 173  1223.859
 174  1259.97
 175  1317.734
 176  1268.983
 177  1221.349
 178  1232.017
 179  1200.762
 180  1221.334
 181  1282.32
 182  1328.465
 183  1356.988
 184  1354.476
 185  1373.498
 186  1331.592
 187  1321.793
 188  1347.62
 189  1402.422
 190  1433.6
 191  1549.397
 192  1557.071
 193  1511.187
 194  1394.763
 195  1356.067
 196  1378.614
 197  1296.051
 198  1238.692
 199  1246.643
 200  1229.47
 201  1264.772
 202  1362.244
 203  1413.532
 204  1343.054
 205  1235.536
 206  1189.296
 207  1268.424
 208  1333.457
 209  1490.43
 210  1514.22
 211  1526.09
 212  1455.18
 213  1431.26
 214  1453.782
 215  1433.022
 216  1413.451
 217  1436.608
 218  1466.189
 219  1443.207
 220  1260.967
 221  1159.564
 222  1206.441
 223  1245.107
 224  1418.808
 225  1442.986
 226  1418.462
 227  1308.121
 228  1291.715
 229  1338.56
 230  1276.905
 231  1385.341
 232  1432.786
 233  1438.501
 234  1359.612
 235  1441.547
 236  1509.574
 237  1527.762
 238  1528.56
 239  1554.949
 240  1459.045
 241  1413.494
 242  1410.237
 243  1559.771
 244  1536.511
 245  1513.837
 246  1572.19
 247  1628.631
 248  1719.184
 249  1647.809
 250  1580.444
 251  1492.282
 252  1476.179
 253  1522.013
 254  1532.138
 255  1523.325
 256  1457.416
 257  1514.236
 258  1487.6
 259  1497.332
 260  1479.653
 261  1439.027
 262  1433.822
 263  1422.425
 264  1463.918
 265  1501.392
 266  1430.537
 267  1421.417
 268  1453.831
 269  1322.472
 270  1236.297
 271  1167.949
 272  1297.539
 273  1317.017
 274  1314.843
 275  1305.994
 276  1253.839
 277  1229.035
 278  1166.765
 279  1319.812
 280  1340.339
 281  1384.711
 282  1305.495
 283  1172.584
 284  1192.498
 285  1295.825
 286  1423.989
 287  1353.756
 288  1283.969
 289  1222.425
 290  1353.597
 291  1289.203
 292  1371.127
 293  1416.771
 294  1507.387
 295  1410.4
 296  1320.71
 297  1264.134
 298  1268.252
 299  1197.866
 300  1203.367
 301  1275.204
 302  1391.357
 303  1380.29
 304  1287.469
 305  1303.374
 306  1362.985
 307  1312.591
 308  1236.847
 309  1237.546
 310  1252.277
 311  1236.368
 312  1275.474
 313  1225.892
 314  1217.384
 315  1232.497
 316  1218.104
 317  1246.763
 318  1247.89
 319  1278.939
 320  1124.64
 321  1156.103
 322  1143.78
 323  1135.549
 324  1092.896
 325  1166.648
 326  1165.826
 327  1165.14
 328  1190.479
 329  1185.347
 330  1166.654
 331  1194.084
 332  1259.43
 333  1234.061
 334  1158.546
 335  1151.867
 336  1200.719
 337  1328.526
 338  1379.455
 339  1484.928
 340  1445.437
 341  1329.928
 342  1231.649
 343  1197.201
 344  1198.177
 345  1207.376
 346  1141.246
 347  1233.257
 348  1246.727
 349  1278.568
 350  1300.432
 351  1459.188
 352  1541.337
 353  1477.318
 354  1365.828
 355  1332.358
 356  1280.953
 357  1384.036
 358  1429.108
 359  1475.878
 360  1361.12
 361  1431.183
 362  1431.737
 363  1498.541
 364  1483.752
 365  1594.563
 366  1686.287
 367  1705.969
 368  1626.419
 369  1523.779
 370  1456.638
 371  1506.268
 372  1470.121
 373  1404.034
 374  1330.275
 375  1303.188
 376  1355.648
 377  1315.732
 378  1418.562
 379  1462.625
 380  1401.172
 381  1366.385
 382  1383.244
 383  1347.034
 384  1376.325
 385  1356.807
 386  1444.341
 387  1408.319
 388  1487.573
 389  1491.799
 390  1441.246
 391  1413.562
 392  1310.341
 393  1337.019
 394  1382.167
 395  1529.089
 396  1582.741
 397  1651.187
 398  1641.599
 399  1545.203
 400  1481.898
 401  1473.782
 402  1547.012
 403  1672.676
 404  1608.524
 405  1453.879
 406  1311.828
 407  1302.765
 408  1444.19
 409  1664.187
 410  1669.636
 411  1590.734
 412  1530.717
 413  1415.466
 414  1360.66
 415  1309.089
 416  1408.951
 417  1300.999
 418  1235.206
 419  1207.461
 420  1190.718
 421  1293.905
 422  1340.787
 423  1500.331
 424  1407.079
 425  1392.088
 426  1278.406
 427  1183.368
 428  1201.429
 429  1263.975
 430  1437.704
 431  1317.304
 432  1163.342
 433  1141.089
 434  1289.347
 435  1355.374
 436  1435.502
 437  1509.367
 438  1481.773
 439  1438.227
 440  1351.599
 441  1369.94
 442  1488.206
 443  1453.974
 444  1312.332
 445  1165.171
 446  1147.036
 447  1199.735
 448  1189.083
 449  1266.31
 450  1367.989
 451  1364.893
 452  1309.278
 453  1244.027
 454  1252.646
 455  1221.472
 456  1237.088
 457  1290.409
 458  1260.14
 459  1169.196
 460  1249.49
 461  1370.924
 462  1419.628
 463  1443.913
 464  1490.321
 465  1485.672
 466  1402.862
 467  1348.297
 468  1320.526
 469  1260.861
 470  1352.946
 471  1409.734
 472  1449.546
 473  1370.786
 474  1406.589
 475  1499.831
 476  1596.188
 477  1604.159
 478  1628.47
 479  1622.586
 480  1653.601
 481  1692.743
 482  1688.496
 483  1655.546
 484  1637.422
 485  1560.237
 486  1565.433
 487  1511.655
 488  1600.472
 489  1549.935
 490  1432.926
 491  1445.076
 492  1448.742
 493  1515.422
 494  1461.321
 495  1364.31
 496  1398.338
 497  1418.709
 498  1579.787
 499  1501.479
 500  1375.609
 501  1169.672
 502  1223.185
 503  1316.144
 504  1371.871
 505  1327.645
 506  1249.055
 507  1305.585
 508  1499.552
 509  1662.267
 510  1587.595
 511  1444.663
 512  1439.549
 513  1566.604
 514  1618.396
 515  1623.675
 516  1528.997
 517  1606.691
 518  1524.647
 519  1557.318
 520  1395.836
 521  1394.997
 522  1373.939
 523  1415.19
 524  1292.192
 525  1334.481
 526  1409.467
 527  1543.238
 528  1484.242
 529  1466.857
 530  1463.425
 531  1522.124
 532  1510.207
 533  1392.643
 534  1175.742
 535  1240.381
 536  1353.075
 537  1430.173
 538  1404.63
 539  1327.198
 540  1213.809
 541  1210.462
 542  1195.275
 543  1273.172
 544  1211.717
 545  1236.256
 546  1368.413
 547  1414.92
 548  1460.106
 549  1372.077
 550  1339.066
 551  1274.332
 552  1137.088
 553  1122.484
 554  1172.346
 555  1258.499
 556  1253.684
 557  1334.719
 558  1358.769
 559  1365.246
 560  1285.515
 561  1253.413
 562  1287.229
 563  1280.405
 564  1338.944
 565  1334.717
 566  1276.087
 567  1283.849
 568  1270.686
 569  1351.314
 570  1402.222
 571  1387.535
 572  1244.473
 573  1218.533
 574  1262.588
 575  1283.024
 576  1310.254
 577  1282.859
 578  1162.795
 579  1076.292
 580  1161.458
 581  1191.666
 582  1236.163
 583  1305.434
 584  1414.204
 585  1431.296
 586  1390.687
 587  1369.668
 588  1414.749
 589  1358.62
 590  1361.144
 591  1322.035
 592  1341.559
 593  1372.236
 594  1358.538
 595  1393.365
 596  1349.271
 597  1302.793
 598  1316.493
 599  1312.826
 600  1469.032
 601  1517.653
 602  1516.154
 603  1489.786
 604  1552.683
 605  1618.724
 606  1706.322
 607  1804.917
 608  1931.141
 609  2136.136
 610  2336.706
 611  2515.594
 612  2498.287
 613  2408.893
 614  2256.616
 615  2130.287
 616  2051.456
 617  1907.504
 618  1758.741
 619  1585.836
 620  1403.297
 621  1332.263
 622  1285.907
 623  1270.373
 624  1220.02
 625  1204.863
 626  1284.846
 627  1352.214
 628  1286.884
 629  1265.14
 630  1308.401
 631  1303.751
 632  1286.686
 633  1154.227
 634  1176.404
 635  1004.908
 636  1103.558
 637  1105.717
 638  1235.939
 639  1264.168
 640  1374.3
 641  1381.078
 642  1321.531
 643  1266.392
 644  1284.442
 645  1334.459
 646  1338.393
 647  1350.821
 648  1268.349
 649  1250.682
 650  1142.215
 651  1119.425
 652  1251.024
 653  1407.052
 654  1566.231
 655  1443.859
 656  1407.893
 657  1357.362
 658  1382.558
 659  1383.642
 660  1422.451
 661  1397.766
 662  1322.07
 663  1330.443
 664  1360.271
 665  1334.003
 666  1272.487
 667  1261.957
 668  1342.865
 669  1388.919
 670  1455.132
 671  1522.028
 672  1471.59
 673  1403.018
 674  1384.848
 675  1438.112
 676  1491.454
 677  1514.324
 678  1512.11
 679  1477.491
 680  1424.857
 681  1375.594
 682  1322.531
 683  1381.192
 684  1400.312
 685  1443.938
 686  1355.575
 687  1290.167
 688  1242.221
 689  1302.043
 690  1367.503
 691  1400.316
 692  1414.2
 693  1419.089
 694  1465.008
 695  1487.222
 696  1484.762
 697  1346.265
 698  1313.871
 699  1297.093
 700  1348.687
 701  1301.683
 702  1255.735
 703  1207.618
 704  1248.108
 705  1323.754
 706  1282.432
 707  1150.29
 708  1105.963
 709  1192.715
 710  1205.104
 711  1152.257
 712  1210.293
 713  1246.723
 714  1246.517
 715  1218.423
 716  1169.845
 717  1244.661
 718  1215.098
 719  1222.502
 720  1265.888
 721  1278.416
 722  1338.958
 723  1337.847
 724  1378.517
 725  1255.248
 726  1176.377
 727  1202.233
 728  1238.965
 729  1305.862
 730  1180.867
 731  1183.915
 732  1155.435
 733  1187.278
 734  1279.643
 735  1337.977
 736  1243.825
 737  1130.237
 738  1134.218
 739  1242.98
 740  1241.972
 741  1291.903
 742  1196.274
 743  1146.678
 744  1123.064
 745  1208.002
 746  1228.937
 747  1181.422
 748  1132.104
 749  1146.435
 750  1090.947
 751  1078.216
 752  1117.489
 753  1144.316
 754  1160.021
 755  1136.971
 756  1306.735
 757  1252.789
 758  1226.401
 759  1064.614
 760  1008.57
 761  1004.178
 762  1046.963
 763  1160.451
 764  1206.38
 765  1168.461
 766  1127.435
 767  1233.115
 768  1410.2
 769  1436.946
 770  1424.88
 771  1414.952
 772  1297.357
 773  1129.102
 774  1159.169
 775  1303.867
 776  1388.915
 777  1382.564
 778  1336.198
 779  1313.247
 780  1245.732
 781  1222.615
 782  1228.715
 783  1328.821
 784  1272.879
 785  1202.613
 786  1085.502
 787  946.6022
 788  925.097
 789  968.298
 790  1138.18
 791  1239.605
 792  1200.292
 793  1169.905
 794  1118.596
 795  1117.07
 796  1122.63
 797  1184.139
 798  1155.514
 799  1179.919
 800  1219.742
 801  1200.181
 802  1174.343
 803  1264.19
 804  1413.715
 805  1390.1
 806  1257.219
 807  1362.273
 808  1445.172
 809  1603.313
 810  1476.079
 811  1430.031
 812  1370.19
 813  1321.23
 814  1281.226
 815  1334.27
 816  1325.007
 817  1321.983
 818  1322.883
 819  1296.455
 820  1143.438
 821  1136.542
 822  1231.771
 823  1303.834
 824  1252.935
 825  1214.539
 826  1173.559
 827  1220.069
 828  1281.424
 829  1345.777
 830  1257.699
 831  1179.379
 832  1122.949
 833  1245.94
 834  1282.711
 835  1398.812
 836  1351.252
 837  1422.601
 838  1363.151
 839  1406.511
 840  1397.587
 841  1356.942
 842  1267.572
 843  1240.459
 844  1187.129
 845  1193.55
 846  1140.791
 847  1214.487
 848  1206.049
 849  1319.908
 850  1363.274
 851  1497.016
 852  1345.847
 853  1356.814
 854  1348.441
 855  1407.165
 856  1341.264
 857  1321.651
 858  1402.667
 859  1388.411
 860  1329.752
 861  1351.849
 862  1446.967
 863  1478.76
 864  1436.176
 865  1434.013
 866  1436.351
 867  1383.849
 868  1300.022
 869  1195.559
 870  1177.601
 871  1134.107
 872  1167.093
 873  1227.308
 874  1182.569
 875  1286.017
 876  1343.716
 877  1339.373
 878  1259.259
 879  1142.02
 880  1074.846
 881  1001.487
 882  1061.944
 883  1035.464
 884  1048.687
 885  1140.583
 886  1217.425
 887  1137.143
 888  1060.975
 889  975.0353
 890  1038.703
 891  1139.449
 892  1193.911
 893  1123.801
 894  1030.836
 895  981.7006
 896  895.5114
 897  901.1
 898  882.3378
 899  924.1678
 900  1070.218
 901  1197.27
 902  1238.335
 903  1248.589
 904  1229.457
 905  1184.935
 906  1099.272
 907  1136.144
 908  1128.617
 909  1063.059
 910  959.2937
 911  1014.878
 912  1045.611
 913  1086.296
 914  1103.205
 915  1090.169
 916  1102.835
 917  1162.655
 918  1264.818
 919  1356.31
 920  1258.266
 921  1180.03
 922  974.212
 923  893.9098
 924  871.3087
 925  824.6899
 926  893.9503
 927  836.0222
 928  806.1243
 929  747.5796
 930  837.0551
 931  976.1077
 932  1088.742
 933  1117.359
 934  1120.398
 935  991.3188
 936  1062.88
 937  1084.083
 938  1187.365
 939  1167.193
 940  1166.088
 941  1118.229
 942  1014.28
 943  988.0918
 944  1109.865
 945  1225.171
 946  1315.077
 947  1390.04
 948  1363.166
 949  1346.03
 950  1306.864
 951  1389.799
 952  1424.608
 953  1377.36
 954  1330.066
 955  1292.745
 956  1393.56
 957  1380.237
 958  1361.885
 959  1304.17
 960  1362.213
 961  1343.249
 962  1293.939
 963  1249.711
 964  1350.741
 965  1410.761
 966  1339.924
 967  1144.311
 968  1144.602
 969  1238.934
 970  1379.441
 971  1342.357
 972  1344.999
 973  1250.632
 974  1153.483
 975  1093.523
 976  1166.85
 977  1232.591
 978  1334.541
 979  1348.917
 980  1319.74
 981  1330.687
 982  1358.769
 983  1387.026
 984  1346.187
 985  1248.35
 986  1174.474
 987  1143.559
 988  1191.118
 989  1233.211
 990  1142.51
 991  1043.646
 992  1145.022
 993  1217.215
 994  1228.361
 995  1138.381
 996  1143.397
 997  1162.569
 998  1187.8
 999  1332.735
1000  1348.227
1001  1221.629
1002  1065.073
1003  1099.454
1004  1199.253
1005  1272.837
1006  1370.726
1007  1428.675
1008  1363.733
1009  1361.722
1010  1415.309
1011  1438.093
1012  1394.664
1013  1412.097
1014  1393.542
1015  1347.529
1016  1220.573
1017  1199.057
1018  1167.839
1019  1110.854
1020  1154.329
1021  1196.416
1022  1189.897
1023  1168.81
