# Input file       =  1203698822.10975_cleaned.dat
# Candidate        =  PSR_0332+5434
# Telescope        =  AR
# Epoch_topo       =  58175.699549881363
# Epoch_bary       =  N/A
# T_sample         =  0.002
# Data Folded      =  7340032
# Data Avg         =  0.0444977563047469
# Data StdDev      =  1.00009215113006 
# Profile Bins     =  512
# Profile Avg      =  637.954291255837 
# Profile StdDev   =  119.744069911374 
# Reduced chi-sqr  =  1.338
# Prob(Noise)      <  4.56e-07   (~4.9 sigma)
# P_topo (ms)      =  714.580907886589  +/- 0.000263
# P'_topo (s/s)    =  -0                +/- 1.39e-10
# P''_topo (s/s^2) =  0                 +/- 6.12e-14
# P_bary (ms)      =  N/A
# P'_bary (s/s)    =  N/A
# P''_bary (s/s^2) =  N/A
# P_orb (s)        =  N/A
# asin(i)/c (s)    =  N/A
# eccentricity     =  N/A
# w (rad)          =  N/A
# T_peri           =  N/A
######################################################
   0  1210.853
   1  1021.293
   2  882.3335
   3  748.3806
   4  677.7252
   5  724.2757
   6  696.6313
   7  742.4413
   8  746.3393
   9  681.1694
  10  654.9044
  11  667.0062
  12  670.4601
  13  623.9413
  14  659.3627
  15  689.9593
  16  622.7622
  17  630.966
  18  621.2818
  19  584.4225
  20  674.4401
  21  663.9476
  22  642.8972
  23  641.0441
  24  641.0635
  25  655.831
  26  642.6971
  27  545.571
  28  551.7216
  29  580.046
  30  566.5455
  31  550.6849
  32  602.6558
  33  597.7144
  34  462.0261
  35  445.7009
  36  485.5033
  37  535.1832
  38  553.0327
  39  612.1934
  40  577.3986
  41  474.7584
  42  428.4113
  43  463.621
  44  563.0646
  45  534.1973
  46  599.1783
  47  487.24
  48  603.1673
  49  707.3312
  50  581.8192
  51  549.3267
  52  482.7548
  53  635.9105
  54  542.4337
  55  543.5024
  56  619.8497
  57  587.1516
  58  507.8451
  59  586.6385
  60  624.3535
  61  618.906
  62  605.5241
  63  669.0682
  64  737.4054
  65  680.3831
  66  721.073
  67  833.5839
  68  757.5649
  69  766.1047
  70  780.1575
  71  702.6627
  72  663.5342
  73  647.2531
  74  749.7134
  75  740.8641
  76  755.559
  77  696.8263
  78  610.0364
  79  663.3411
  80  680.8841
  81  679.7108
  82  623.2823
  83  529.1844
  84  494.7189
  85  597.3828
  86  558.2468
  87  573.6545
  88  621.2407
  89  651.0251
  90  760.7064
  91  673.3235
  92  557.7192
  93  571.213
  94  612.2283
  95  686.8534
  96  708.1265
  97  663.5759
  98  665.4983
  99  670.0458
 100  690.3679
 101  589.8254
 102  697.5317
 103  640.7205
 104  618.4098
 105  652.0571
 106  711.9451
 107  646.3129
 108  621.7206
 109  603.9219
 110  566.7542
 111  577.6709
 112  634.7869
 113  625.767
 114  563.9827
 115  602.7032
 116  604.1728
 117  594.3322
 118  614.6792
 119  713.2243
 120  596.1859
 121  561.5708
 122  605.4249
 123  572.1208
 124  516.4572
 125  499.7223
 126  603.4533
 127  711.944
 128  661.6253
 129  537.4357
 130  496.8023
 131  502.0446
 132  638.2666
 133  595.7935
 134  621.4147
 135  690.5798
 136  709.2986
 137  662.3121
 138  648.7168
 139  591.024
 140  671.7442
 141  719.3351
 142  733.8641
 143  707.2834
 144  708.965
 145  769.13
 146  762.2086
 147  679.9293
 148  675.4229
 149  711.9058
 150  679.7563
 151  699.588
 152  672.8637
 153  637.4501
 154  617.8074
 155  626.0775
 156  653.7212
 157  630.3561
 158  650.3866
 159  624.6559
 160  627.2488
 161  678.2767
 162  659.6339
 163  576.9325
 164  657.2933
 165  668.5208
 166  691.3284
 167  714.1953
 168  621.226
 169  572.8634
 170  685.4555
 171  639.5644
 172  661.752
 173  599.9802
 174  563.9218
 175  576.3933
 176  493.3477
 177  536.3414
 178  514.231
 179  542.4128
 180  555.2337
 181  599.7484
 182  619.3528
 183  485.4488
 184  543.2534
 185  533.5867
 186  525.8576
 187  476.0887
 188  496.2052
 189  484.4498
 190  526.6379
 191  529.8954
 192  517.9916
 193  551.2573
 194  492.0714
 195  442.1241
 196  474.0815
 197  590.2169
 198  586.0136
 199  616.0774
 200  626.8679
 201  637.4393
 202  661.5427
 203  647.2701
 204  697.6528
 205  620.5886
 206  683.0776
 207  798.1384
 208  772.095
 209  707.241
 210  726.8787
 211  704.661
 212  658.3689
 213  629.1905
 214  621.6773
 215  644.1888
 216  595.7918
 217  701.5465
 218  697.9979
 219  620.4116
 220  637.6814
 221  699.9083
 222  815.0634
 223  684.4175
 224  670.0425
 225  731.3438
 226  679.335
 227  640.8059
 228  580.8952
 229  600.1542
 230  653.3257
 231  714.6449
 232  727.4752
 233  678.3859
 234  759.7331
 235  687.1739
 236  615.878
 237  659.0323
 238  685.9541
 239  650.8029
 240  588.1986
 241  640.5106
 242  620.7432
 243  647.8558
 244  692.832
 245  691.4194
 246  659.152
 247  689.585
 248  631.6934
 249  615.402
 250  621.8165
 251  558.6678
 252  577.7151
 253  669.6102
 254  629.6735
 255  533.3932
 256  591.4313
 257  663.8668
 258  612.2993
 259  537.3618
 260  589.835
 261  628.3636
 262  574.7927
 263  525.641
 264  572.7811
 265  587.8736
 266  582.5127
 267  516.1441
 268  581.6855
 269  680.1444
 270  630.9509
 271  729.2366
 272  774.5223
 273  740.2595
 274  649.0765
 275  674.9405
 276  702.9643
 277  667.7873
 278  656.078
 279  724.0308
 280  746.2557
 281  784.6904
 282  809.4222
 283  790.2588
 284  764.2736
 285  754.0239
 286  718.3323
 287  790.9278
 288  860.4947
 289  856.8207
 290  823.6549
 291  756.704
 292  813.5034
 293  747.2696
 294  677.291
 295  762.8095
 296  772.8398
 297  794.6056
 298  826.2728
 299  819.7534
 300  747.3679
 301  782.42
 302  696.8482
 303  621.2853
 304  693.4776
 305  751.0603
 306  774.6291
 307  613.0939
 308  586.4785
 309  626.5428
 310  673.6469
 311  681.9359
 312  665.464
 313  660.7853
 314  604.6287
 315  615.4952
 316  594.5995
 317  674.6339
 318  564.8937
 319  538.8723
 320  530.6745
 321  538.626
 322  558.0706
 323  568.9781
 324  620.6122
 325  562.5887
 326  512.84
 327  470.226
 328  504.3377
 329  485.2713
 330  455.6786
 331  473.4841
 332  576.3073
 333  625.2008
 334  568.3152
 335  541.1356
 336  515.3888
 337  596.8556
 338  476.2248
 339  489.9245
 340  518.7
 341  487.6852
 342  593.8018
 343  567.172
 344  628.4656
 345  674.4882
 346  552.3583
 347  719.3201
 348  647.3492
 349  551.6532
 350  530.8417
 351  586.0516
 352  578.4304
 353  626.2645
 354  562.3422
 355  732.2292
 356  761.5962
 357  738.3914
 358  751.7255
 359  694.9794
 360  667.2581
 361  742.7695
 362  781.2714
 363  665.0229
 364  799.5853
 365  871.0367
 366  815.458
 367  789.5629
 368  719.5482
 369  749.1316
 370  703.0521
 371  746.3988
 372  705.1308
 373  762.6808
 374  690.4433
 375  682.204
 376  702.037
 377  795.7348
 378  757.6188
 379  654.4233
 380  633.3325
 381  649.2886
 382  703.7001
 383  660.113
 384  681.7903
 385  637.443
 386  587.6968
 387  509.2212
 388  536.459
 389  615.1933
 390  522.4509
 391  567.6978
 392  586.3427
 393  632.9451
 394  635.0331
 395  703.2642
 396  654.8471
 397  618.0804
 398  566.1105
 399  595.4051
 400  550.3168
 401  500.627
 402  435.8963
 403  469.3543
 404  461.4516
 405  570.6508
 406  545.1166
 407  503.4125
 408  545.4032
 409  569.9658
 410  513.132
 411  536.1099
 412  586.4396
 413  613.1619
 414  605.8234
 415  549.4294
 416  499.3838
 417  567.3646
 418  597.2382
 419  604.5704
 420  614.1939
 421  544.3353
 422  576.4423
 423  499.6989
 424  545.1394
 425  513.05
 426  524.2896
 427  557.6718
 428  634.4425
 429  737.4009
 430  684.5916
 431  663.1801
 432  640.923
 433  625.2553
 434  622.4445
 435  602.4488
 436  632.7224
 437  650.8112
 438  646.0025
 439  647.4891
 440  638.1616
 441  570.0143
 442  595.957
 443  672.8218
 444  542.7139
 445  540.7167
 446  594.1407
 447  596.5578
 448  569.3086
 449  573.0359
 450  567.4625
 451  569.12
 452  556.5114
 453  662.4517
 454  716.5599
 455  673.9637
 456  674.6678
 457  640.1115
 458  595.1415
 459  506.9001
 460  599.6439
 461  636.537
 462  578.4111
 463  525.9625
 464  542.4176
 465  583.3479
 466  537.9733
 467  556.0097
 468  579.6232
 469  467.2773
 470  550.2833
 471  588.9363
 472  590.3875
 473  526.8483
 474  644.2377
 475  706.9584
 476  600.2447
 477  476.8947
 478  552.5488
 479  581.7494
 480  556.178
 481  492.1991
 482  525.0898
 483  537.8681
 484  550.2097
 485  623.6577
 486  654.5389
 487  646.7664
 488  650.3838
 489  641.3431
 490  636.1588
 491  733.564
 492  695.0303
 493  765.5391
 494  736.8676
 495  782.6261
 496  748.4269
 497  713.6553
 498  715.4305
 499  713.897
 500  702.4282
 501  806.517
 502  858.2634
 503  794.9515
 504  751.4878
 505  714.0478
 506  802.3665
 507  870.3675
 508  940.3375
 509  930.6306
 510  1144.169
 511  1293.163
