# Input file       =  1203343110.089843_cleaned.dat
# Candidate        =  PSR_0332+5434
# Telescope        =  AR
# Epoch_topo       =  58171.582512613924
# Epoch_bary       =  N/A
# T_sample         =  0.002
# Data Folded      =  7340032
# Data Avg         =  0.461096115990325
# Data StdDev      =  5.51272471945315 
# Profile Bins     =  512
# Profile Avg      =  6610.45496370813 
# Profile StdDev   =  660.055269369381 
# Reduced chi-sqr  =  1.567
# Prob(Noise)      <  3.74e-15   (~7.8 sigma)
# P_topo (ms)      =  714.580730521334  +/- 0.000779
# P'_topo (s/s)    =  -0                +/- 4.11e-10
# P''_topo (s/s^2) =  0                 +/- 1.81e-13
# P_bary (ms)      =  N/A
# P'_bary (s/s)    =  N/A
# P''_bary (s/s^2) =  N/A
# P_orb (s)        =  N/A
# asin(i)/c (s)    =  N/A
# eccentricity     =  N/A
# w (rad)          =  N/A
# T_peri           =  N/A
######################################################
   0  6424.617
   1  6466.013
   2  6825.033
   3  6707.519
   4  6793.859
   5  6586.607
   6  6374.721
   7  6330.571
   8  6171.811
   9  5975.698
  10  6069.498
  11  5579.479
  12  5351.99
  13  5843.407
  14  6089.627
  15  5915.158
  16  6080.554
  17  6107.888
  18  6256.393
  19  5814.341
  20  5869.879
  21  5909.728
  22  5734.444
  23  5714.914
  24  6131.6
  25  6198.497
  26  6015.056
  27  5469.639
  28  5843.035
  29  5925.391
  30  5990.041
  31  6146.878
  32  5870.187
  33  6015.711
  34  6257.152
  35  6254.59
  36  6141.386
  37  6292.256
  38  6199.881
  39  6011.367
  40  6249.705
  41  6248.635
  42  6080.22
  43  5997.656
  44  6137.229
  45  6252.181
  46  6357.872
  47  6264.077
  48  6135.172
  49  5756.324
  50  6208.728
  51  6102.892
  52  6399.656
  53  6066.225
  54  6338.113
  55  6488.133
  56  6293.68
  57  6328.147
  58  6462.789
  59  6756.831
  60  6438.488
  61  6766.188
  62  6788.178
  63  6838.093
  64  6690.494
  65  6645.907
  66  6381.651
  67  6224.003
  68  6526.132
  69  6363.01
  70  6496.007
  71  6677.93
  72  6656.416
  73  6372.385
  74  6194.394
  75  6307.784
  76  6619.253
  77  6668.828
  78  6445.267
  79  6676.203
  80  6709.895
  81  6455.078
  82  6416.712
  83  6369.384
  84  6395.434
  85  6624.815
  86  6817.454
  87  6646.321
  88  6454.342
  89  6470.235
  90  6828.91
  91  6764.774
  92  6495.264
  93  6468.2
  94  6398.044
  95  6226.659
  96  6266.963
  97  6776.354
  98  6747.363
  99  7004.727
 100  7285.987
 101  7418.788
 102  7275.006
 103  7118.031
 104  6865.24
 105  6833.588
 106  7234.266
 107  7533.576
 108  7358.192
 109  7252.917
 110  7029.206
 111  7054.72
 112  7209.442
 113  7034.443
 114  6866.405
 115  6796.438
 116  6692.513
 117  6885.938
 118  7132.102
 119  6913.741
 120  6875.09
 121  6788.715
 122  6537.863
 123  6771.846
 124  6683.881
 125  6404.877
 126  6347.107
 127  6470.478
 128  6477.232
 129  6213.906
 130  6202.41
 131  5928.385
 132  5860.676
 133  5940.006
 134  6421.24
 135  6445.812
 136  6333.41
 137  6258.358
 138  6256.798
 139  5995.178
 140  6271.302
 141  6395.286
 142  6429.472
 143  6718.354
 144  6709.105
 145  6613.373
 146  6058.867
 147  6232.1
 148  6727.216
 149  6618.167
 150  6233.198
 151  6679.845
 152  6498.757
 153  6604.05
 154  6388.121
 155  6335.1
 156  6328.372
 157  6703.016
 158  6847.486
 159  6905.466
 160  6948.613
 161  6564.402
 162  6892.317
 163  6958.207
 164  6964.058
 165  6583.308
 166  6660.717
 167  7265.708
 168  7121.612
 169  6904.303
 170  7141.235
 171  7235.595
 172  7054.618
 173  6961.348
 174  6787.524
 175  7055.687
 176  7105.104
 177  7143.2
 178  7190.918
 179  7226.047
 180  7186.456
 181  6923.777
 182  7000.067
 183  6887.149
 184  6697.193
 185  6797.013
 186  7320.048
 187  7476.328
 188  7494.92
 189  7487.153
 190  7236.874
 191  7127.649
 192  7499.958
 193  7629.782
 194  7314.084
 195  7239.71
 196  7626.829
 197  7705.621
 198  7035.654
 199  7059.846
 200  7206.125
 201  7139.029
 202  6936.75
 203  6799.47
 204  7382.026
 205  7316.906
 206  7039.87
 207  6700.012
 208  6847.556
 209  6652.88
 210  6541.418
 211  6557.635
 212  6987.543
 213  7202.341
 214  6996.14
 215  6733.91
 216  6720.37
 217  6399.634
 218  6483.335
 219  6559.939
 220  6456.111
 221  6418.358
 222  6465.462
 223  6344.816
 224  6319.599
 225  6326.745
 226  6216.568
 227  6214.739
 228  5848.053
 229  6044.2
 230  6432.321
 231  6664.37
 232  6196.389
 233  6095.25
 234  5998.867
 235  6304.862
 236  6341.283
 237  6221.953
 238  6576.187
 239  6550.723
 240  6414.079
 241  6333.063
 242  5989.728
 243  6147.448
 244  6378.444
 245  6417.49
 246  6794.278
 247  7031.872
 248  6796.965
 249  6795.979
 250  6676.694
 251  6811.701
 252  6743.943
 253  6929.024
 254  7253.541
 255  7286.03
 256  7175.589
 257  6840.308
 258  6847.664
 259  6734.709
 260  6967.439
 261  7031.498
 262  6668.845
 263  6880.092
 264  6498.639
 265  6558.806
 266  6818.987
 267  6697.696
 268  6716.602
 269  6996.576
 270  7115.804
 271  7172.126
 272  6857.229
 273  7207.894
 274  7445.468
 275  7764.837
 276  7936.961
 277  8059.394
 278  8092.268
 279  8124.687
 280  7877.194
 281  7899.965
 282  7961.082
 283  7842.593
 284  7896.936
 285  8028.126
 286  8198.845
 287  8338.128
 288  8025.478
 289  7947.538
 290  8173.324
 291  7988.983
 292  7499.378
 293  7401.627
 294  7304.991
 295  7457.961
 296  7854.214
 297  8007.343
 298  7926.091
 299  8118.793
 300  7937.835
 301  7713.531
 302  7524.071
 303  7999.457
 304  8649.957
 305  8574.878
 306  8501.848
 307  8478.843
 308  8411.818
 309  8168.034
 310  7579.263
 311  7193.279
 312  7518.002
 313  7479.194
 314  7453.624
 315  7080.625
 316  6832.834
 317  6928.723
 318  6974.667
 319  7121.013
 320  7300.233
 321  7078.354
 322  7073.357
 323  7202.376
 324  7324.505
 325  7022.283
 326  6963.789
 327  6901.787
 328  6735.717
 329  6996.397
 330  6737.291
 331  6701.37
 332  6606.248
 333  6625.996
 334  6533.524
 335  6450.964
 336  6648.824
 337  6809.779
 338  6613.781
 339  6846.123
 340  6852.094
 341  6532.855
 342  6695.094
 343  6936.643
 344  6672.013
 345  6885.486
 346  6915.236
 347  6798.359
 348  6357.559
 349  6618.609
 350  6615.64
 351  6391.134
 352  6334.412
 353  6606.631
 354  6560.492
 355  6271.81
 356  6693.951
 357  6903.518
 358  6905.62
 359  6978.492
 360  7014.229
 361  7105.313
 362  7172.212
 363  7002.923
 364  6812.07
 365  7282.2
 366  7459.147
 367  7347.939
 368  6737.417
 369  7207.363
 370  7278.151
 371  7176.335
 372  6954.324
 373  6992.85
 374  6925.622
 375  6861.066
 376  6992.524
 377  6882.872
 378  6872.553
 379  6690.027
 380  6763.288
 381  6509.507
 382  6305.014
 383  6301.895
 384  6347.455
 385  6180.923
 386  5909.472
 387  6137.567
 388  5486.316
 389  5799.996
 390  6117.562
 391  5977.132
 392  5824.46
 393  5588.798
 394  5724.376
 395  5824.723
 396  5821.875
 397  5550.92
 398  5972.884
 399  5881.12
 400  5784.614
 401  5564.653
 402  5425.992
 403  5570.676
 404  5664.672
 405  5832.477
 406  5992.301
 407  5940.302
 408  6011.371
 409  6102.825
 410  6196.031
 411  5895.621
 412  5894.946
 413  6210.34
 414  6262.788
 415  6120.245
 416  6070.615
 417  6096.413
 418  6046.591
 419  5826.526
 420  5632.948
 421  5620.195
 422  5543.391
 423  6091.733
 424  5844.885
 425  5600.361
 426  5684.848
 427  6238.165
 428  5938.906
 429  5631.431
 430  5590.825
 431  5494.099
 432  5717.52
 433  6094.657
 434  6301.224
 435  6327.769
 436  6227.289
 437  5913.479
 438  5592.793
 439  6050.464
 440  6032.272
 441  6228.568
 442  6199.478
 443  5944.606
 444  5853.222
 445  6077.769
 446  6124.525
 447  6135.375
 448  6305.544
 449  6294.283
 450  6173.888
 451  6091.475
 452  6045.866
 453  5557.96
 454  5748.292
 455  5969.1
 456  5995.228
 457  5965.774
 458  5909.785
 459  5861.796
 460  5837.448
 461  5813.308
 462  6108.198
 463  6250.856
 464  5437.118
 465  5494.23
 466  5917.461
 467  6190.588
 468  6058.932
 469  6401.104
 470  6150.777
 471  6190.557
 472  6386.842
 473  6573.18
 474  6587.617
 475  6204.596
 476  6419.828
 477  6858.651
 478  6565.354
 479  6528.342
 480  6398.209
 481  6483.021
 482  6617.789
 483  6636.606
 484  6627.475
 485  6324.82
 486  6421.917
 487  6413.523
 488  6613.891
 489  6582.806
 490  6246.222
 491  5997.082
 492  5899.763
 493  6457.859
 494  6794.417
 495  6545.027
 496  6849.561
 497  6718.981
 498  6749.926
 499  6359.213
 500  6365.352
 501  6476.516
 502  6373.218
 503  6202.715
 504  6133.515
 505  6139.198
 506  5886.396
 507  6025.192
 508  6190.253
 509  6562.165
 510  6569.767
 511  6537.471
