# Input file       =  1203672702.105511_cleaned.dat
# Candidate        =  PSR_0332+5434
# Telescope        =  AR
# Epoch_topo       =  58175.397235017488
# Epoch_bary       =  N/A
# T_sample         =  0.002
# Data Folded      =  7405568
# Data Avg         =  0.506636324398369
# Data StdDev      =  6.60972195734303 
# Profile Bins     =  512
# Profile Avg      =  7328.05981720609 
# Profile StdDev   =  794.927273307015 
# Reduced chi-sqr  =  1.257
# Prob(Noise)      <  6.47e-05   (~3.8 sigma)
# P_topo (ms)      =  714.580666988539  +/- 7.29e-05
# P'_topo (s/s)    =  -0                +/- 3.81e-11
# P''_topo (s/s^2) =  0                 +/- 1.67e-14
# P_bary (ms)      =  N/A
# P'_bary (s/s)    =  N/A
# P''_bary (s/s^2) =  N/A
# P_orb (s)        =  N/A
# asin(i)/c (s)    =  N/A
# eccentricity     =  N/A
# w (rad)          =  N/A
# T_peri           =  N/A
######################################################
   0  7650.076
   1  7301.254
   2  7652.08
   3  7327.909
   4  7149.89
   5  6345.316
   6  6832.17
   7  7274.727
   8  7123.741
   9  7650.644
  10  7951.88
  11  8240.641
  12  8176.242
  13  8361.259
  14  8175.677
  15  8297.525
  16  8150.215
  17  8145.553
  18  7816.208
  19  7710.158
  20  7233.876
  21  6923.39
  22  7025.817
  23  7358.508
  24  7547.979
  25  7955.786
  26  7975.113
  27  8056.638
  28  7773.289
  29  7954.686
  30  7675.039
  31  7521.45
  32  7927.668
  33  7465.175
  34  6999.736
  35  7038.358
  36  7257.985
  37  6997.599
  38  6732.186
  39  6948.631
  40  7312.005
  41  7578.11
  42  7675.198
  43  8509.11
  44  8696.475
  45  8744.614
  46  8460.375
  47  8476.242
  48  8012.402
  49  7371.517
  50  7404.166
  51  7284.328
  52  7149.471
  53  7167.191
  54  7035.78
  55  6912.187
  56  7137.113
  57  7602.909
  58  7275.939
  59  7548.45
  60  7564.508
  61  7850.596
  62  7712.095
  63  8025.222
  64  7979.826
  65  7289.911
  66  6760.705
  67  6670.093
  68  6690.382
  69  6661.875
  70  6034.475
  71  6134.086
  72  6357.378
  73  6811.897
  74  6907.102
  75  7054.341
  76  7487.854
  77  7898.525
  78  7606.806
  79  7606.076
  80  7573.669
  81  7198.724
  82  7047.542
  83  7148.12
  84  7239.754
  85  6921.526
  86  6528.598
  87  6572.539
  88  6570.519
  89  6744.108
  90  6986.3
  91  7324.002
  92  6585.367
  93  6783.717
  94  7433.071
  95  6966.278
  96  6836.195
  97  7061.986
  98  7214.098
  99  7230.538
 100  6787.689
 101  6629.053
 102  5776.776
 103  5614.485
 104  5260.731
 105  5589.135
 106  6411.22
 107  6129.291
 108  6258.632
 109  6368.172
 110  6686.431
 111  6043.511
 112  6299.081
 113  6302.072
 114  6312.532
 115  6516.558
 116  6148.486
 117  6231.467
 118  5564.187
 119  5873.051
 120  5498.783
 121  5449.745
 122  5589.689
 123  5794.604
 124  6089.512
 125  5975.511
 126  5991.47
 127  6460.578
 128  6317.665
 129  6203.288
 130  6699.381
 131  6899.37
 132  6658.641
 133  6452.933
 134  6198.131
 135  6190.438
 136  5573.943
 137  5815.312
 138  5909.456
 139  6565.287
 140  6907.357
 141  6757.568
 142  6852.977
 143  7046.467
 144  7107.485
 145  7218.665
 146  7163.443
 147  7390.969
 148  7505.269
 149  7208.065
 150  7096.784
 151  6842.724
 152  6863.529
 153  6379.758
 154  6623.421
 155  7126.25
 156  7249.688
 157  7242.116
 158  7529.12
 159  7777.858
 160  7746.101
 161  7815.268
 162  8207.751
 163  7928.709
 164  7673.294
 165  7411.284
 166  6866.046
 167  6604.068
 168  6886.234
 169  6702.469
 170  6685.177
 171  7134.363
 172  7211.788
 173  7143.59
 174  7411.222
 175  7812.608
 176  7697.741
 177  7404.183
 178  7382.282
 179  7472.876
 180  7566.75
 181  7457.875
 182  7259.846
 183  7022.604
 184  6925.874
 185  6911.911
 186  6863.036
 187  6547.096
 188  6909.419
 189  7045.1
 190  6948.636
 191  7469.603
 192  7651.67
 193  7521.612
 194  7505.252
 195  7580.911
 196  7462.451
 197  7507.366
 198  7373.802
 199  7222.279
 200  7016.753
 201  7138.504
 202  6818.432
 203  6849.067
 204  6831.558
 205  6940.875
 206  7268.312
 207  7689.894
 208  7510.591
 209  7331.012
 210  7094.385
 211  7419.069
 212  7408.029
 213  7657.861
 214  8059.972
 215  8175.085
 216  7850.557
 217  7509.281
 218  7522.333
 219  7160.004
 220  6589.695
 221  6955.464
 222  7525.901
 223  7658.758
 224  7801.615
 225  8497.366
 226  8552.487
 227  8502.563
 228  8644.666
 229  8547.009
 230  8309.726
 231  8188.813
 232  8083.611
 233  8012.474
 234  7924.402
 235  8109.827
 236  8026.795
 237  7887.951
 238  7839.82
 239  7624.906
 240  7763.462
 241  8257.284
 242  8831.665
 243  8651.045
 244  8202.829
 245  8097.871
 246  7722.295
 247  7793.512
 248  8004.182
 249  7857.717
 250  7516.402
 251  7321.095
 252  7130.773
 253  6500.43
 254  6767.806
 255  7093.61
 256  7397.027
 257  7620.194
 258  7692.92
 259  8083.093
 260  7863.217
 261  7679.183
 262  7300.776
 263  7263.805
 264  7250.772
 265  6950.39
 266  6279.829
 267  6915.507
 268  7133.489
 269  6966.567
 270  6546.094
 271  6614.473
 272  6968.501
 273  6898.483
 274  7739.379
 275  7775.035
 276  7602.733
 277  7840.033
 278  8025.464
 279  7756.236
 280  7551.383
 281  6880.831
 282  6798.306
 283  7145.648
 284  7024.041
 285  6486.555
 286  6695.424
 287  7049.192
 288  7177.129
 289  7154.809
 290  7691.83
 291  7871.902
 292  7481.676
 293  7166.619
 294  7537.263
 295  7680.147
 296  7867.641
 297  8036.105
 298  7911.247
 299  7334.923
 300  7384.638
 301  7561.053
 302  7152.785
 303  6975.481
 304  7387.856
 305  7859.628
 306  8152.717
 307  8237.352
 308  8494.076
 309  8422.945
 310  8504.755
 311  8386.568
 312  8697.685
 313  8728.483
 314  7881.998
 315  7415.305
 316  7580.041
 317  7922.062
 318  7337.279
 319  7784.108
 320  8080.071
 321  8027.359
 322  7854.036
 323  7971.426
 324  8077.401
 325  8199.632
 326  8067.837
 327  7993.898
 328  8426.204
 329  8314.069
 330  8374.03
 331  7992.773
 332  6998.066
 333  7285.813
 334  6870.934
 335  6673.234
 336  6486.581
 337  6850.629
 338  7626.058
 339  7514.579
 340  7729.187
 341  7872.035
 342  8242.079
 343  8454.263
 344  8401.271
 345  8098.416
 346  7922.329
 347  7694.417
 348  7034.531
 349  6618.812
 350  6531.983
 351  7129.28
 352  7282.602
 353  7262.594
 354  7072.784
 355  7036.451
 356  7273.061
 357  7428.149
 358  7432.789
 359  7199.128
 360  7528.722
 361  7415.845
 362  7591.849
 363  7760.58
 364  7068.995
 365  7127.778
 366  7432.452
 367  7224.079
 368  6593.338
 369  6715.546
 370  6886.386
 371  6972.302
 372  7060.787
 373  7051.367
 374  7394.828
 375  6916.342
 376  7108.653
 377  7170.894
 378  7082.811
 379  7061.578
 380  6974.136
 381  6481.025
 382  6020.312
 383  6296.648
 384  6807.123
 385  6696.907
 386  6941.795
 387  7126.874
 388  7474.913
 389  7508.598
 390  7191.744
 391  7260.619
 392  6991.51
 393  7243.126
 394  7226.742
 395  7229.555
 396  7293.037
 397  7035.331
 398  6924.1
 399  6842.004
 400  6868.786
 401  6370.312
 402  6478.165
 403  6611.587
 404  6829.755
 405  6914.385
 406  6633.19
 407  7371.483
 408  7207.169
 409  6977.076
 410  7202.104
 411  7308.83
 412  7109.18
 413  7129.636
 414  6627.216
 415  6523.863
 416  6444.549
 417  6235.851
 418  6282.704
 419  6209.633
 420  6846.477
 421  7064.564
 422  6910.53
 423  6977.074
 424  7123.341
 425  7355.739
 426  7372.404
 427  7484.243
 428  7847.002
 429  7808.342
 430  7453.823
 431  6863.914
 432  6749.007
 433  6681.287
 434  6426.56
 435  6620.73
 436  7312.794
 437  7952.999
 438  7961.213
 439  8239.248
 440  8671.729
 441  8414.581
 442  8187.188
 443  7828.215
 444  7654.243
 445  7835.254
 446  7913.567
 447  7943.403
 448  8135.228
 449  7878.988
 450  7509.14
 451  7025.529
 452  7101.309
 453  7282.659
 454  7731.465
 455  8058.693
 456  8083.735
 457  8154.12
 458  8241.861
 459  8496.835
 460  8308.113
 461  8325.108
 462  8464.916
 463  8190.806
 464  7531.756
 465  7385.492
 466  7589.414
 467  7065.101
 468  6803.465
 469  7596.931
 470  8003.394
 471  7978.518
 472  8326.428
 473  8168.458
 474  7859.482
 475  7751.775
 476  7197.128
 477  7542.04
 478  7641.106
 479  7684.374
 480  7283.588
 481  7120.293
 482  7604.107
 483  6833.012
 484  7116.93
 485  7053.493
 486  7548.003
 487  7324.636
 488  7188.791
 489  7880.932
 490  8079.493
 491  8080.518
 492  8224.568
 493  8403.961
 494  8463.523
 495  8073.684
 496  7754.166
 497  7436.515
 498  7480.939
 499  7341.567
 500  7096.506
 501  7497.983
 502  7802.074
 503  7600.124
 504  7659.676
 505  7419.984
 506  8004.53
 507  7666.037
 508  7619.521
 509  8090.102
 510  7650.375
 511  7764.555
