# Input file       =  1203525206.118787_cleaned.dat
# Candidate        =  PSR_0332+5434
# Telescope        =  AR
# Epoch_topo       =  58173.690105541515
# Epoch_bary       =  N/A
# T_sample         =  0.002
# Data Folded      =  7340032
# Data Avg         =  0.0541244572162027
# Data StdDev      =  1.0001370105885  
# Profile Bins     =  512
# Profile Avg      =  775.911480343265 
# Profile StdDev   =  119.749441070543 
# Reduced chi-sqr  =  0.750
# Prob(Noise)      <  1   (~0.0 sigma)
# P_topo (ms)      =  714.580942577004  +/- 0.000621
# P'_topo (s/s)    =  -0                +/- 3.28e-10
# P''_topo (s/s^2) =  0                 +/- 1.45e-13
# P_bary (ms)      =  N/A
# P'_bary (s/s)    =  N/A
# P''_bary (s/s^2) =  N/A
# P_orb (s)        =  N/A
# asin(i)/c (s)    =  N/A
# eccentricity     =  N/A
# w (rad)          =  N/A
# T_peri           =  N/A
######################################################
   0  922.9708
   1  898.5085
   2  832.3653
   3  827.0043
   4  807.8654
   5  789.2216
   6  834.7511
   7  919.1942
   8  872.5439
   9  798.326
  10  887.1932
  11  866.2605
  12  861.7209
  13  865.8405
  14  923.8336
  15  889.8676
  16  884.546
  17  835.0212
  18  773.4119
  19  777.6555
  20  814.7856
  21  786.2398
  22  776.3954
  23  706.0469
  24  831.3735
  25  799.9979
  26  863.5429
  27  782.8017
  28  713.9366
  29  700.0717
  30  806.1084
  31  711.4102
  32  719.6017
  33  765.0605
  34  762.315
  35  769.5826
  36  751.5198
  37  725.1275
  38  721.3659
  39  759.7269
  40  739.3419
  41  744.6055
  42  765.6031
  43  767.5609
  44  818.7684
  45  832.6979
  46  904.477
  47  901.7902
  48  806.3298
  49  803.2485
  50  808.1304
  51  816.4573
  52  820.4741
  53  846.4366
  54  887.8787
  55  873.2565
  56  896.4284
  57  902.4813
  58  890.6127
  59  996.4714
  60  1093.408
  61  1135.718
  62  1205.675
  63  1032.772
  64  916.9398
  65  767.6078
  66  747.3173
  67  797.9543
  68  769.8481
  69  728.489
  70  767.3295
  71  678.6991
  72  653.6168
  73  737.2169
  74  876.8248
  75  827.4225
  76  704.663
  77  710.5726
  78  691.7606
  79  645.2201
  80  632.7823
  81  706.5919
  82  755.309
  83  812.5948
  84  838.2232
  85  821.4568
  86  686.9919
  87  772.2599
  88  764.8391
  89  721.7534
  90  783.6064
  91  863.8942
  92  883.8568
  93  853.2142
  94  710.7794
  95  800.3218
  96  854.0416
  97  804.9325
  98  793.5773
  99  778.5971
 100  731.1151
 101  621.1067
 102  617.2023
 103  681.3689
 104  653.7413
 105  647.8679
 106  661.1805
 107  658.4374
 108  563.482
 109  591.6829
 110  744.0338
 111  804.7606
 112  754.2314
 113  653.2589
 114  722.691
 115  794.9142
 116  709.5569
 117  678.4764
 118  889.0111
 119  765.8567
 120  706.668
 121  657.7438
 122  680.1852
 123  724.0675
 124  670.2717
 125  667.4055
 126  724.4244
 127  661.6487
 128  720.8261
 129  750.2277
 130  721.2847
 131  749.0569
 132  766.7383
 133  784.9538
 134  721.577
 135  758.0829
 136  734.9845
 137  740.6286
 138  761.9182
 139  725.8115
 140  739.0378
 141  743.6725
 142  745.5548
 143  806.7726
 144  896.3083
 145  806.7655
 146  702.1412
 147  815.0936
 148  810.2509
 149  728.0395
 150  697.4806
 151  782.7208
 152  737.2572
 153  781.9396
 154  814.9694
 155  760.147
 156  773.978
 157  766.5782
 158  769.1296
 159  749.7735
 160  826.5922
 161  748.0837
 162  770.1748
 163  746.1609
 164  799.5634
 165  827.0917
 166  798.996
 167  799.3489
 168  867.7762
 169  912.5476
 170  894.5057
 171  770.5408
 172  734.8358
 173  763.9353
 174  857.2946
 175  863.8951
 176  813.9641
 177  786.0825
 178  772.8632
 179  680.9498
 180  656.0031
 181  714.7661
 182  649.447
 183  734.3261
 184  799.5514
 185  819.8959
 186  811.2384
 187  711.2926
 188  815.4025
 189  815.5183
 190  772.6375
 191  754.8391
 192  779.0505
 193  756.0657
 194  753.9965
 195  747.3387
 196  747.1865
 197  674.4651
 198  624.6639
 199  717.4906
 200  755.0676
 201  829.8411
 202  777.4433
 203  792.8314
 204  803.2553
 205  770.72
 206  782.9265
 207  839.4199
 208  860.8793
 209  835.1494
 210  792.6852
 211  802.9446
 212  785.9937
 213  750.5663
 214  775.3132
 215  822.5169
 216  796.8972
 217  837.3566
 218  785.8707
 219  778.7444
 220  781.7334
 221  754.5651
 222  782.8682
 223  784.2759
 224  935.0152
 225  877.1378
 226  781.5773
 227  852.428
 228  828.3198
 229  800.5148
 230  817.9827
 231  865.6603
 232  895.9662
 233  852.0706
 234  805.7272
 235  799.033
 236  811.1876
 237  760.9586
 238  722.318
 239  787.0076
 240  822.7311
 241  761.7914
 242  754.4302
 243  711.4044
 244  698.0834
 245  685.0482
 246  762.1782
 247  742.9503
 248  735.1995
 249  779.1657
 250  795.7755
 251  703.6802
 252  740.2535
 253  811.5214
 254  767.7833
 255  706.1976
 256  729.8478
 257  742.9213
 258  746.9482
 259  835.8557
 260  786.1221
 261  651.187
 262  756.012
 263  784.2031
 264  781.7836
 265  726.7859
 266  754.1777
 267  729.9127
 268  666.7242
 269  749.0076
 270  752.7827
 271  714.1017
 272  727.8824
 273  697.2848
 274  703.9523
 275  732.6301
 276  712.2541
 277  688.2114
 278  695.5046
 279  695.5992
 280  624.6191
 281  716.0296
 282  736.6879
 283  685.2237
 284  680.1747
 285  684.6066
 286  683.0101
 287  722.8036
 288  843.217
 289  817.1979
 290  779.0933
 291  712.7332
 292  737.4836
 293  747.3459
 294  689.8177
 295  684.7233
 296  758.3358
 297  764.9088
 298  821.8811
 299  810.8723
 300  787.1586
 301  827.4138
 302  873.3981
 303  824.0437
 304  785.6481
 305  817.6204
 306  862.548
 307  811.7684
 308  811.6151
 309  853.5806
 310  899.6166
 311  895.7756
 312  785.7906
 313  869.6061
 314  800.6111
 315  790.6205
 316  720.0897
 317  724.8094
 318  792.6232
 319  713.8352
 320  758.6262
 321  758.1478
 322  774.0197
 323  789.7523
 324  873.4656
 325  870.4234
 326  898.1872
 327  820.1279
 328  720.6614
 329  673.8879
 330  719.429
 331  779.1145
 332  709.6813
 333  710.0295
 334  683.2126
 335  708.7847
 336  669.2176
 337  716.0009
 338  742.8485
 339  742.5984
 340  761.9859
 341  708.1603
 342  746.5325
 343  812.2761
 344  775.3862
 345  670.2803
 346  741.9346
 347  781.4726
 348  731.8712
 349  707.1492
 350  694.9212
 351  656.1013
 352  628.8547
 353  667.0956
 354  677.0277
 355  694.9125
 356  710.9083
 357  728.3712
 358  675.7328
 359  704.9847
 360  754.3687
 361  751.3801
 362  777.9738
 363  807.4897
 364  742.3223
 365  715.1857
 366  773.8465
 367  798.2573
 368  822.6841
 369  771.0026
 370  777.5272
 371  783.46
 372  848.8498
 373  837.8857
 374  758.3562
 375  744.5161
 376  780.4395
 377  793.4151
 378  871.2034
 379  856.1966
 380  818.5276
 381  772.3196
 382  845.7274
 383  908.3406
 384  847.1287
 385  812.6373
 386  825.1741
 387  756.3563
 388  734.8968
 389  743.9795
 390  743.7265
 391  719.6104
 392  791.2018
 393  876.3738
 394  829.5149
 395  777.6372
 396  774.0859
 397  745.6144
 398  695.4557
 399  747.8834
 400  804.6854
 401  725.8875
 402  732.5738
 403  801.2953
 404  839.9296
 405  776.2338
 406  817.7944
 407  887.6382
 408  885.8422
 409  816.4543
 410  777.5675
 411  803.2626
 412  821.746
 413  854.6115
 414  851.9789
 415  891.4095
 416  840.0867
 417  854.628
 418  782.0754
 419  768.6327
 420  842.3149
 421  887.0602
 422  898.1965
 423  762.4476
 424  770.287
 425  794.5278
 426  772.1846
 427  795.4847
 428  729.1512
 429  705.975
 430  685.2058
 431  691.6138
 432  714.975
 433  770.5597
 434  763.1694
 435  731.6959
 436  732.5157
 437  767.6061
 438  772.4025
 439  683.1227
 440  632.7105
 441  651.4294
 442  726.5071
 443  763.723
 444  670.774
 445  659.2334
 446  621.4282
 447  723.0789
 448  706.2379
 449  692.9045
 450  702.3894
 451  741.661
 452  716.9662
 453  746.0673
 454  744.795
 455  790.3071
 456  813.7903
 457  768.8821
 458  748.7808
 459  785.9432
 460  758.9601
 461  793.9898
 462  743.9879
 463  642.61
 464  654.8527
 465  729.2729
 466  783.8534
 467  788.8661
 468  786.0777
 469  714.4675
 470  704.7147
 471  699.0639
 472  664.7052
 473  713.9797
 474  743.8228
 475  755.1282
 476  707.7534
 477  728.1523
 478  768.1436
 479  767.7543
 480  728.6518
 481  686.4908
 482  733.9375
 483  793.264
 484  746.3024
 485  773.2938
 486  806.5519
 487  828.3778
 488  826.9277
 489  863.2073
 490  927.837
 491  849.0887
 492  975.024
 493  960.5141
 494  779.6036
 495  747.2281
 496  849.6108
 497  927.6129
 498  938.1436
 499  888.9595
 500  838.4847
 501  878.6996
 502  860.7853
 503  877.9117
 504  845.4444
 505  861.1921
 506  879.2935
 507  919.1746
 508  895.3898
 509  834.2001
 510  820.7898
 511  796.4572
