# Input file       =  1203759049.105247_cleaned.dat
# Candidate        =  PSR_0332+5434
# Telescope        =  AR
# Epoch_topo       =  58176.396621588508
# Epoch_bary       =  N/A
# T_sample         =  0.002
# Data Folded      =  7340032
# Data Avg         =  0.453025380753387
# Data StdDev      =  6.31867116348256 
# Profile Bins     =  512
# Profile Avg      =  6494.55022120065 
# Profile StdDev   =  756.55368427008  
# Reduced chi-sqr  =  0.943
# Prob(Noise)      <  0.819   (~0.0 sigma)
# P_topo (ms)      =  714.580610897064  +/- 7.71e-05
# P'_topo (s/s)    =  -0                +/- 4.07e-11
# P''_topo (s/s^2) =  0                 +/- 1.8e-14
# P_bary (ms)      =  N/A
# P'_bary (s/s)    =  N/A
# P''_bary (s/s^2) =  N/A
# P_orb (s)        =  N/A
# asin(i)/c (s)    =  N/A
# eccentricity     =  N/A
# w (rad)          =  N/A
# T_peri           =  N/A
######################################################
   0  6238.266
   1  6382.817
   2  6233.317
   3  6391.48
   4  6097.17
   5  6416.985
   6  6255.283
   7  6130.26
   8  5603.505
   9  5812.492
  10  6179.049
  11  6311.218
  12  6109.459
  13  5567.333
  14  5433.993
  15  5802.852
  16  5869.609
  17  6209.011
  18  6102.702
  19  6006.716
  20  6356.817
  21  6369.21
  22  6336.256
  23  6192.382
  24  6537.28
  25  6533.042
  26  6492.896
  27  6885.923
  28  6562.483
  29  6204.951
  30  5867.9
  31  5849.204
  32  6292.152
  33  6344.202
  34  6332.516
  35  6370.745
  36  6709.08
  37  6896.651
  38  6555.164
  39  6400.808
  40  6383.664
  41  6443.15
  42  6820.227
  43  6917.468
  44  6674.847
  45  6254.239
  46  5974.666
  47  6040.9
  48  6352.221
  49  6696.579
  50  6555.692
  51  6872.618
  52  7033.242
  53  6948.629
  54  6938.477
  55  6415.815
  56  6511.882
  57  6910.778
  58  7446.8
  59  7415.543
  60  6871.642
  61  6253.577
  62  5884.682
  63  6240.28
  64  6901.881
  65  6709.006
  66  7061.035
  67  7001.931
  68  7126.163
  69  6827.602
  70  6699.267
  71  6549.3
  72  6277.404
  73  6757.112
  74  6797.277
  75  6644.665
  76  7005.772
  77  6627.844
  78  6404.189
  79  6152.205
  80  5547.166
  81  5853.849
  82  6277.717
  83  6793.583
  84  6451.502
  85  6471.696
  86  6855.075
  87  6594.042
  88  6399.638
  89  6308.11
  90  6391.463
  91  6568.104
  92  7158.718
  93  7264.897
  94  6990.679
  95  6828.399
  96  6333.134
  97  6406.148
  98  6657.155
  99  6703.16
 100  6420.761
 101  6662.25
 102  7174.558
 103  7046.273
 104  6629.312
 105  6992.448
 106  7081.077
 107  6730.568
 108  7234.279
 109  7671.998
 110  7386.484
 111  7320.659
 112  7093.293
 113  6557.013
 114  6572.332
 115  6880.195
 116  7466.74
 117  7574.473
 118  8077.733
 119  7886.21
 120  7571.494
 121  7486.004
 122  7528.849
 123  7531.688
 124  7901.138
 125  7804.95
 126  7409.048
 127  7088.785
 128  7067.422
 129  7150.784
 130  6919.139
 131  6760.512
 132  7138.892
 133  6764.605
 134  7163.666
 135  7290.869
 136  7419.119
 137  7409.899
 138  7454.586
 139  7417.69
 140  7599.636
 141  7488.458
 142  7375.156
 143  7022.128
 144  7015.664
 145  7327.629
 146  7058.852
 147  7135.152
 148  7487.807
 149  7167.678
 150  7622.322
 151  7767.221
 152  7735.096
 153  7920.353
 154  7764.244
 155  7308.1
 156  7363.813
 157  7514.09
 158  7726.683
 159  7491.169
 160  7037.521
 161  6831.245
 162  6792.56
 163  6643.491
 164  6693.771
 165  6891.229
 166  7229.677
 167  7260.006
 168  7212.632
 169  7300.47
 170  6976.865
 171  6855.644
 172  6852.956
 173  7246.282
 174  7191.229
 175  6880.383
 176  7013.57
 177  7129.944
 178  7256.082
 179  6688.132
 180  6560.138
 181  6850.755
 182  7303.761
 183  7862.25
 184  7724.835
 185  7482.721
 186  7141.967
 187  7059.679
 188  7004.757
 189  6937.376
 190  7050.152
 191  7306.91
 192  7325.378
 193  7143.18
 194  7146.632
 195  6687.429
 196  6323.987
 197  6252.338
 198  7020.586
 199  7076.789
 200  7113.578
 201  7396.375
 202  7323.845
 203  6782.721
 204  6163.751
 205  6349.568
 206  6126.591
 207  6510.618
 208  7036.289
 209  6422.196
 210  6163.423
 211  6378.114
 212  6699.108
 213  6592.226
 214  6334.727
 215  6359.941
 216  6112.204
 217  6645.479
 218  6684.321
 219  6952.976
 220  6877.051
 221  6709.552
 222  6782.042
 223  6965.058
 224  6863.773
 225  6306.498
 226  6254.776
 227  6327.309
 228  6129.738
 229  6040.203
 230  6131.693
 231  5985.178
 232  6485.627
 233  6607.288
 234  6823.611
 235  7023.097
 236  6810.201
 237  6554.348
 238  6599.574
 239  6801.655
 240  6794.917
 241  6677.923
 242  6379.56
 243  6441.027
 244  6541.8
 245  6366.926
 246  6210.226
 247  6067.386
 248  6233.869
 249  6809.646
 250  6831.117
 251  6954.942
 252  6590.794
 253  6351.875
 254  6460.492
 255  6263.668
 256  6311.351
 257  6724.005
 258  6802.232
 259  6358.008
 260  5885.504
 261  5772.03
 262  5621.492
 263  5836.387
 264  6052.872
 265  6236.687
 266  6581.795
 267  6539.124
 268  6218.694
 269  6261.939
 270  6485.477
 271  6196.498
 272  6020.046
 273  6311.752
 274  6554.28
 275  6486.39
 276  6336.711
 277  6193.197
 278  5896.74
 279  5796.424
 280  5939.955
 281  6193.656
 282  6473.762
 283  6796.094
 284  6694.378
 285  6845.751
 286  6217.995
 287  6146.149
 288  6368.832
 289  5981.802
 290  5914.871
 291  5852.678
 292  5926.184
 293  5686.844
 294  5394.187
 295  5262.628
 296  5493.261
 297  5884.48
 298  6240.765
 299  6539.351
 300  6576.705
 301  6746.555
 302  6508.112
 303  6724.521
 304  6978.777
 305  6976.65
 306  7364.901
 307  7406.829
 308  6440.057
 309  6097.764
 310  6152.863
 311  5891.6
 312  5529.49
 313  5727.436
 314  5927.672
 315  6245.116
 316  6559.748
 317  6175.986
 318  6237.401
 319  5827.261
 320  5870.305
 321  5587.722
 322  5771.351
 323  5779.374
 324  6129.463
 325  5974.856
 326  5495.116
 327  5409.501
 328  5363.177
 329  5626.221
 330  5765.097
 331  6268.581
 332  6223.369
 333  6124.297
 334  6295.174
 335  6138.023
 336  6167.344
 337  6118.125
 338  6228.523
 339  6224.073
 340  6383.716
 341  6711.755
 342  6717.987
 343  6532.676
 344  5705.114
 345  5411.085
 346  5873.343
 347  6369.234
 348  6388.418
 349  6753.888
 350  6793.542
 351  6571.144
 352  6205.319
 353  6228.656
 354  6160.575
 355  6231.22
 356  6701.023
 357  6304.784
 358  5805.773
 359  5763.793
 360  5685.897
 361  5471.641
 362  5864.316
 363  6123.454
 364  6078.948
 365  6286.209
 366  6313.329
 367  6226.169
 368  6283.157
 369  5721.952
 370  5726.145
 371  6192.58
 372  6199.907
 373  6623.558
 374  6610.755
 375  5956.505
 376  6064.562
 377  5886.809
 378  6138.812
 379  6255.479
 380  6584.594
 381  6660.051
 382  6515.944
 383  6712.732
 384  6556.18
 385  6488.714
 386  6274.435
 387  6034.921
 388  6498.66
 389  6606.963
 390  6511.666
 391  6459.465
 392  6703.425
 393  6367.837
 394  5685.858
 395  6262.813
 396  6482.449
 397  6656.827
 398  6749.468
 399  6763.509
 400  6785.849
 401  6562.411
 402  6271.501
 403  6067.165
 404  5940.21
 405  6846.604
 406  7008.7
 407  6875.582
 408  6556.425
 409  6228.672
 410  6052.803
 411  5743.837
 412  6269.407
 413  6381.314
 414  6644.825
 415  6990.355
 416  6805.583
 417  6270.186
 418  6104.098
 419  5772.99
 420  5963.905
 421  6028.961
 422  6348.042
 423  6569.328
 424  6455.273
 425  5992.759
 426  5343.265
 427  5684.932
 428  6065.131
 429  6300.5
 430  6420.867
 431  6146.062
 432  6387.639
 433  6102.335
 434  6009.263
 435  5867.58
 436  5881.562
 437  5793.897
 438  5759.303
 439  6186.829
 440  5971.628
 441  5650.936
 442  5648.388
 443  5392.782
 444  5561.17
 445  5570.594
 446  5998.665
 447  6218.008
 448  6408.03
 449  5986.47
 450  5953.009
 451  5818.417
 452  5857.808
 453  5940.842
 454  5838.609
 455  5933.573
 456  5808.573
 457  5762.097
 458  5630.401
 459  5545.871
 460  5357.659
 461  5822.159
 462  5772.353
 463  5893.331
 464  6609.167
 465  6328.681
 466  6452.521
 467  6353.601
 468  6263.032
 469  6395.071
 470  6498.378
 471  6457.158
 472  6132.014
 473  6642.321
 474  6776.732
 475  6289.675
 476  6019.816
 477  6097.968
 478  6356.269
 479  6321.214
 480  6283.366
 481  6687.155
 482  7246.723
 483  6965.249
 484  6369.273
 485  6382.797
 486  6481.628
 487  6792.432
 488  6613.091
 489  6297.869
 490  6308.229
 491  6528.188
 492  6718.681
 493  6119.115
 494  6269.559
 495  6284.548
 496  6282.347
 497  6750.586
 498  7082.349
 499  7165.345
 500  6811.499
 501  6332.917
 502  6215.115
 503  6354.254
 504  6456.716
 505  6917.859
 506  6559.159
 507  5945.218
 508  5947.078
 509  5562.096
 510  5762.203
 511  6433.464
