# Input file       =  1203155681.096231_cleaned.dat
# Candidate        =  PSR_0332+5434
# Telescope        =  AR
# Epoch_topo       =  58169.413195558227
# Epoch_bary       =  N/A
# T_sample         =  0.002
# Data Folded      =  7405568
# Data Avg         =  0.0538645934112956
# Data StdDev      =  1.00018365564726 
# Profile Bins     =  512
# Profile Avg      =  779.082596111994 
# Profile StdDev   =  120.288458625197 
# Reduced chi-sqr  =  0.779
# Prob(Noise)      <  1   (~0.0 sigma)
# P_topo (ms)      =  714.580619118919  +/- 0.000449
# P'_topo (s/s)    =  -0                +/- 2.35e-10
# P''_topo (s/s^2) =  0                 +/- 1.03e-13
# P_bary (ms)      =  N/A
# P'_bary (s/s)    =  N/A
# P''_bary (s/s^2) =  N/A
# P_orb (s)        =  N/A
# asin(i)/c (s)    =  N/A
# eccentricity     =  N/A
# w (rad)          =  N/A
# T_peri           =  N/A
######################################################
   0  1095.077
   1  1071.522
   2  966.3907
   3  864.0895
   4  842.7497
   5  870.4125
   6  820.497
   7  759.4673
   8  786.7835
   9  821.7277
  10  771.9216
  11  766.1277
  12  796.2809
  13  832.6769
  14  877.1269
  15  864.0421
  16  908.197
  17  798.3373
  18  741.0965
  19  719.3192
  20  725.9985
  21  806.186
  22  799.3487
  23  801.7132
  24  766.6346
  25  840.3808
  26  759.1238
  27  807.4286
  28  720.8952
  29  753.5114
  30  741.907
  31  687.9048
  32  737.2941
  33  740.5802
  34  826.4819
  35  805.9443
  36  820.3521
  37  795.9446
  38  784.1799
  39  762.038
  40  774.7587
  41  822.7079
  42  773.1694
  43  781.3347
  44  794.5388
  45  823.4412
  46  780.7944
  47  657.747
  48  682.6512
  49  647.3475
  50  585.7194
  51  614.0574
  52  575.8975
  53  641.6627
  54  842.4241
  55  845.7818
  56  849.8883
  57  813.5549
  58  789.178
  59  839.1938
  60  702.6426
  61  698.2173
  62  751.1821
  63  729.0637
  64  719.2716
  65  743.1097
  66  646.6235
  67  596.9993
  68  655.6633
  69  734.3486
  70  787.7271
  71  749.3943
  72  764.4989
  73  679.9872
  74  700.6826
  75  630.7452
  76  634.1287
  77  823.3716
  78  821.0905
  79  629.3398
  80  678.037
  81  791.5739
  82  708.783
  83  759.1418
  84  831.958
  85  788.4572
  86  750.6897
  87  727.7569
  88  763.5717
  89  808.589
  90  868.3398
  91  843.3337
  92  796.4432
  93  770.8829
  94  708.6198
  95  761.3959
  96  806.9811
  97  843.0221
  98  946.7042
  99  844.6685
 100  779.8572
 101  796.572
 102  673.8766
 103  723.3909
 104  764.0573
 105  712.9717
 106  831.9631
 107  808.9199
 108  796.387
 109  716.3121
 110  633.6835
 111  769.3484
 112  778.3112
 113  770.9487
 114  815.6942
 115  858.541
 116  704.0571
 117  728.7321
 118  886.3018
 119  800.7367
 120  749.1006
 121  859.9254
 122  878.8043
 123  815.9108
 124  838.7421
 125  800.2759
 126  781.5781
 127  751.5777
 128  863.9449
 129  860.3082
 130  712.0281
 131  763.5645
 132  764.4531
 133  716.5713
 134  819.1049
 135  826.413
 136  835.8441
 137  758.5898
 138  711.3773
 139  733.6535
 140  795.0763
 141  805.7955
 142  861.4362
 143  830.166
 144  745.3524
 145  770.1639
 146  799.2794
 147  799.0544
 148  705.2681
 149  710.0828
 150  837.1852
 151  814.0507
 152  748.3942
 153  731.8367
 154  803.9154
 155  876.9156
 156  842.7103
 157  815.9514
 158  765.5231
 159  797.3973
 160  805.5701
 161  864.813
 162  853.5867
 163  745.015
 164  691.5815
 165  753.5761
 166  826.5114
 167  795.5847
 168  821.3776
 169  882.3808
 170  859.4726
 171  857.3896
 172  853.486
 173  784.6146
 174  878.3032
 175  924.7867
 176  713.5891
 177  780.8493
 178  894.7652
 179  773.8866
 180  791.137
 181  721.611
 182  760.5851
 183  701.8334
 184  705.9987
 185  666.7195
 186  596.704
 187  833.6601
 188  952.71
 189  909.721
 190  793.1456
 191  812.2645
 192  814.9464
 193  722.0541
 194  701.0421
 195  876.5984
 196  924.0338
 197  899.9309
 198  824.7235
 199  905.0465
 200  830.0064
 201  735.2826
 202  744.4006
 203  800.7182
 204  831.4927
 205  799.5109
 206  846.6512
 207  855.4924
 208  807.8621
 209  815.9243
 210  837.9448
 211  784.8128
 212  778.8633
 213  742.5466
 214  635.8024
 215  775.4132
 216  730.5643
 217  740.4039
 218  723.2535
 219  721.3088
 220  786.8365
 221  818.0182
 222  816.9734
 223  709.0362
 224  772.3311
 225  780.3011
 226  740.8046
 227  728.0327
 228  757.5361
 229  680.5416
 230  673.5245
 231  722.3443
 232  704.5363
 233  682.4165
 234  757.2839
 235  797.5707
 236  783.5452
 237  745.0364
 238  750.5123
 239  815.098
 240  808.8454
 241  857.7539
 242  789.6921
 243  774.8527
 244  726.577
 245  691.8239
 246  753.6993
 247  810.5212
 248  858.5808
 249  774.972
 250  846.6556
 251  819.8561
 252  765.3101
 253  874.4578
 254  896.011
 255  891.117
 256  860.9149
 257  870.315
 258  779.6145
 259  692.4686
 260  769.6748
 261  815.5325
 262  714.3157
 263  811.0829
 264  855.4785
 265  807.3823
 266  686.5681
 267  681.1489
 268  691.5734
 269  679.9135
 270  669.1425
 271  660.316
 272  686.4113
 273  755.21
 274  783.3406
 275  761.8727
 276  804.2607
 277  816.0009
 278  810.3297
 279  647.576
 280  653.3123
 281  719.1349
 282  770.9038
 283  697.6902
 284  715.5748
 285  797.7682
 286  896.4811
 287  838.2979
 288  814.8034
 289  718.4883
 290  801.4252
 291  730.5289
 292  675.7606
 293  790.6467
 294  722.4626
 295  692.3087
 296  797.8574
 297  719.6902
 298  674.778
 299  711.3026
 300  695.5592
 301  759.345
 302  774.4622
 303  730.4506
 304  733.7579
 305  807.7563
 306  845.2743
 307  816.7278
 308  819.6444
 309  707.7542
 310  681.3948
 311  771.649
 312  695.2774
 313  708.7726
 314  777.379
 315  739.7723
 316  765.2638
 317  816.9427
 318  768.4232
 319  660.7248
 320  729.3646
 321  799.3738
 322  797.8279
 323  665.5116
 324  723.9288
 325  668.2832
 326  608.9448
 327  612.9606
 328  731.3728
 329  666.7908
 330  577.9891
 331  648.6234
 332  702.0719
 333  687.5393
 334  664.9724
 335  752.7823
 336  750.1306
 337  719.7823
 338  739.8086
 339  729.0316
 340  674.6154
 341  647.4063
 342  701.3468
 343  758.8548
 344  725.2943
 345  725.2529
 346  789.075
 347  791.7344
 348  722.7844
 349  666.5909
 350  703.0309
 351  722.1353
 352  694.1392
 353  726.0322
 354  765.9329
 355  716.5634
 356  877.8636
 357  821.6934
 358  764.6969
 359  767.8286
 360  705.4067
 361  677.742
 362  699.9545
 363  730.9776
 364  735.1177
 365  738.9052
 366  723.9573
 367  756.6911
 368  733.2191
 369  767.3567
 370  700.2902
 371  671.5997
 372  682.0214
 373  739.72
 374  697.287
 375  684.1027
 376  658.0598
 377  586.5954
 378  681.777
 379  684.6013
 380  698.277
 381  764.4616
 382  711.3801
 383  683.9664
 384  657.9968
 385  735.8003
 386  833.9061
 387  746.0057
 388  825.851
 389  819.1905
 390  791.3411
 391  823.3845
 392  771.1058
 393  788.0951
 394  796.1656
 395  781.2846
 396  804.9886
 397  809.5601
 398  818.5995
 399  816.6697
 400  851.8378
 401  845.7811
 402  812.7982
 403  862.9791
 404  959.6706
 405  908.169
 406  768.0536
 407  779.417
 408  796.9286
 409  754.1682
 410  696.1584
 411  692.4328
 412  740.5245
 413  749.4904
 414  836.4916
 415  845.2739
 416  890.9155
 417  892.7859
 418  839.5696
 419  817.5621
 420  878.5662
 421  801.1702
 422  868.5279
 423  877.0041
 424  845.8409
 425  830.2706
 426  817.1498
 427  830.1783
 428  895.5339
 429  806.5326
 430  814.9467
 431  843.8066
 432  922.9397
 433  881.54
 434  826.0593
 435  830.2434
 436  862.0299
 437  973.2094
 438  887.8923
 439  845.0562
 440  761.8354
 441  809.6354
 442  862.9257
 443  841.6724
 444  837.3595
 445  849.8716
 446  802.7009
 447  737.2227
 448  799.7115
 449  792.0541
 450  832.7538
 451  802.8087
 452  748.4205
 453  808.1188
 454  764.7189
 455  772.0002
 456  801.3582
 457  816.0015
 458  690.3698
 459  706.3572
 460  808.9145
 461  802.5665
 462  767.7642
 463  844.5408
 464  818.7429
 465  817.2171
 466  768.3899
 467  838.1606
 468  887.4184
 469  852.0401
 470  808.616
 471  779.1628
 472  883.8297
 473  771.9603
 474  711.8483
 475  825.7817
 476  810.8197
 477  798.4775
 478  802.0156
 479  828.2927
 480  723.8482
 481  668.3881
 482  708.0676
 483  822.4543
 484  787.5277
 485  891.3032
 486  873.2019
 487  847.9105
 488  791.7501
 489  742.4398
 490  790.2709
 491  801.3724
 492  835.3779
 493  761.0718
 494  677.7709
 495  740.5766
 496  738.517
 497  696.8801
 498  802.1924
 499  856.1762
 500  881.5474
 501  889.8661
 502  879.7751
 503  890.7309
 504  970.4113
 505  1012.633
 506  860.3918
 507  779.1259
 508  828.1483
 509  928.7672
 510  1116.738
 511  1136.299
