# Input file       =  1203429282.104877_cleaned.dat
# Candidate        =  PSR_0332+5434
# Telescope        =  AR
# Epoch_topo       =  58172.579873899042
# Epoch_bary       =  N/A
# T_sample         =  0.002
# Data Folded      =  7340032
# Data Avg         =  0.538007333990078
# Data StdDev      =  9.95913641368611 
# Profile Bins     =  512
# Profile Avg      =  7712.81399957914 
# Profile StdDev   =  1192.43764250106 
# Reduced chi-sqr  =  1.746
# Prob(Noise)      <  3.87e-23   (~9.8 sigma)
# P_topo (ms)      =  714.580743981209  +/- 0.000615
# P'_topo (s/s)    =  -0                +/- 3.25e-10
# P''_topo (s/s^2) =  0                 +/- 1.43e-13
# P_bary (ms)      =  N/A
# P'_bary (s/s)    =  N/A
# P''_bary (s/s^2) =  N/A
# P_orb (s)        =  N/A
# asin(i)/c (s)    =  N/A
# eccentricity     =  N/A
# w (rad)          =  N/A
# T_peri           =  N/A
######################################################
   0  8771.904
   1  8683.179
   2  8586.38
   3  8421.475
   4  7706.824
   5  7464.894
   6  6929.119
   7  7275.859
   8  7193.387
   9  6658.812
  10  6263.604
  11  6259.729
  12  6832.367
  13  7290.885
  14  7314.958
  15  7657.937
  16  7452.413
  17  7069.058
  18  7353.513
  19  7081.522
  20  7013.702
  21  7735.385
  22  7557.329
  23  6769.251
  24  6359.366
  25  6287.158
  26  6652.686
  27  6740.972
  28  6944.482
  29  7288.45
  30  7225.213
  31  7109.924
  32  6544.556
  33  6753.257
  34  6676.905
  35  7072.019
  36  8052.321
  37  8302.467
  38  7428.146
  39  7490.955
  40  7106.086
  41  6898.275
  42  7526.796
  43  8136.877
  44  7988.335
  45  7127.777
  46  6395.934
  47  6051.198
  48  6428.805
  49  7126.129
  50  7701.937
  51  7295.6
  52  7296.531
  53  7634.51
  54  7970.24
  55  8518.239
  56  8742.361
  57  8090.754
  58  7955.333
  59  7999.283
  60  7992.518
  61  7956.947
  62  8617.476
  63  8485.827
  64  8597.773
  65  8636.916
  66  8081.255
  67  8642.838
  68  9070.236
  69  8893.922
  70  8398.173
  71  9296.026
  72  9778.688
  73  9279.821
  74  8763.461
  75  8733.938
  76  8681.745
  77  8716.948
  78  9286.106
  79  9504.08
  80  8771.173
  81  8364.397
  82  8612.861
  83  8089.397
  84  8368.675
  85  8835.235
  86  9367.971
  87  9237.208
  88  9046.781
  89  9446.807
  90  9422.145
  91  9893.259
  92  9413.658
  93  9619.609
  94  9864.384
  95  9600.673
  96  9558.563
  97  9915.146
  98  9634.176
  99  9340.568
 100  9337.389
 101  9508.111
 102  9573.251
 103  9039.511
 104  8953.44
 105  9909.987
 106  9884.062
 107  9737.101
 108  9618.012
 109  8972.626
 110  9522.439
 111  10182.34
 112  10385.2
 113  10666.65
 114  10920.39
 115  10842.48
 116  10282.84
 117  10283.33
 118  10404.92
 119  10498.25
 120  11390.5
 121  11479.34
 122  11210.17
 123  10958.11
 124  11777.67
 125  11687.13
 126  11561.25
 127  10958.92
 128  10243.99
 129  9712.59
 130  9637.052
 131  9286.027
 132  9587.785
 133  9241.172
 134  8740.776
 135  8559.478
 136  8093.441
 137  7951.096
 138  7982.197
 139  7818.005
 140  7779.704
 141  7876.521
 142  8388.563
 143  8509.955
 144  8767.7
 145  8684.724
 146  8529.497
 147  9026.917
 148  9120.705
 149  8923.204
 150  8501.654
 151  8597.954
 152  7750.991
 153  7467.072
 154  8146.457
 155  8704.541
 156  8498.794
 157  8620.007
 158  8438.071
 159  8223.861
 160  7919.213
 161  8029.689
 162  8447.283
 163  8310.801
 164  8396.027
 165  8133.053
 166  7526.23
 167  7103.266
 168  7443.378
 169  6996.24
 170  6686.695
 171  7289.474
 172  7749.723
 173  7942.236
 174  7213.704
 175  7045.682
 176  7044.673
 177  7672.082
 178  8056.979
 179  8605.616
 180  8502.834
 181  8511.65
 182  8327.595
 183  8366.862
 184  8702.231
 185  8923.87
 186  9522.638
 187  9783.786
 188  9844.09
 189  9535.77
 190  9391.977
 191  9062.021
 192  8602.39
 193  9249.225
 194  9493.348
 195  9902.347
 196  9500.953
 197  8837.107
 198  8162.775
 199  8402.445
 200  8943.879
 201  9165.256
 202  9237.036
 203  9087.853
 204  8793.263
 205  9039.439
 206  9033.689
 207  8677.766
 208  7930.464
 209  8098.857
 210  7295.369
 211  7182.083
 212  7155.389
 213  7201.934
 214  7321.14
 215  7176.819
 216  6654.068
 217  6525.352
 218  6879.637
 219  6826.758
 220  6951.122
 221  7468.146
 222  7725.942
 223  7080.778
 224  7214.248
 225  7303.32
 226  7505.993
 227  7779.65
 228  7663.695
 229  7467.782
 230  7367.662
 231  6769.13
 232  6532.479
 233  6431.049
 234  6664.76
 235  6891.2
 236  7167.772
 237  7186.11
 238  7639.57
 239  7580.905
 240  7673.62
 241  7427.633
 242  7325.178
 243  7344.33
 244  7649.442
 245  7299.833
 246  7389.765
 247  7724.428
 248  7346.527
 249  7129.11
 250  7262.19
 251  7394.356
 252  7360.402
 253  7203.494
 254  7258.923
 255  7674.361
 256  7460.012
 257  8001.957
 258  8373.467
 259  8396.037
 260  7973.663
 261  7960.485
 262  7959.487
 263  8173.781
 264  8389.414
 265  8338.06
 266  8106.693
 267  7200.787
 268  6992.186
 269  7690.278
 270  7367.347
 271  7740.232
 272  7326.494
 273  7400.903
 274  7076.495
 275  7529.652
 276  7750.756
 277  7521.817
 278  7407.845
 279  7121.974
 280  6967.053
 281  7178.67
 282  7450.877
 283  7390.87
 284  7206.93
 285  7286.917
 286  7650.578
 287  7527.257
 288  6967.79
 289  6905.754
 290  6922.637
 291  7598.129
 292  7557.333
 293  7632.332
 294  7256.816
 295  7403.796
 296  7028.153
 297  6619.949
 298  6333.099
 299  7038.953
 300  7171.334
 301  7036.119
 302  7024.497
 303  6943.371
 304  6821.516
 305  6825.55
 306  7156.566
 307  7581.109
 308  7698.322
 309  7832.643
 310  7587.655
 311  7808.865
 312  7238.498
 313  7487.888
 314  7682.811
 315  7714.904
 316  7276.595
 317  7156.948
 318  7171.406
 319  7057.209
 320  7503.934
 321  7797.541
 322  7942.249
 323  7799.806
 324  7280.491
 325  7010.139
 326  6807.979
 327  6821.023
 328  6250.599
 329  6737.168
 330  6858.155
 331  6607.039
 332  6683.923
 333  6872.396
 334  6824.413
 335  6238.803
 336  6097.107
 337  5824.857
 338  6040.656
 339  6368.507
 340  6473.829
 341  6239.906
 342  6573.8
 343  6445.327
 344  7251.038
 345  7348.02
 346  7098.297
 347  7675.914
 348  7897.766
 349  7708.953
 350  7825.607
 351  7755.755
 352  7122.086
 353  6353.227
 354  6328.113
 355  6727.813
 356  6846.209
 357  6901.882
 358  6685.827
 359  6227.061
 360  6060.449
 361  6227.417
 362  6239.448
 363  6436.992
 364  6960.204
 365  7504.763
 366  7963.931
 367  7864.585
 368  7717.25
 369  8162.501
 370  8234.645
 371  7925.467
 372  7921.271
 373  7922.505
 374  8334.513
 375  8485.439
 376  8598.795
 377  8235.011
 378  8118.093
 379  7814.781
 380  7707.845
 381  7468.969
 382  6937.036
 383  7287.833
 384  7994.166
 385  7881.7
 386  8033.021
 387  7592.078
 388  7692.27
 389  7131.09
 390  7353.836
 391  7618.137
 392  7494.814
 393  7855.916
 394  8101.093
 395  8149.828
 396  7945.201
 397  7991.155
 398  8514.953
 399  8418.905
 400  8161.849
 401  7796.388
 402  7280.7
 403  6656.145
 404  6225.946
 405  6661.452
 406  6921.033
 407  6368.272
 408  6620.933
 409  6576.568
 410  6548.041
 411  6233.459
 412  5808.201
 413  5952.47
 414  6014.732
 415  6085.557
 416  6032.204
 417  5760.891
 418  5736.284
 419  5631.577
 420  5716.893
 421  5755.386
 422  5586.871
 423  5554.202
 424  5487.75
 425  5242.633
 426  5599.613
 427  5698.776
 428  6007.395
 429  5898.743
 430  6294.734
 431  5752.591
 432  5744.103
 433  6456.618
 434  6638.846
 435  6659.583
 436  6089.813
 437  6193.283
 438  6212.242
 439  6127.197
 440  6005.711
 441  6178.825
 442  6424.945
 443  7023.858
 444  7311.301
 445  7329.545
 446  6945.902
 447  6753.55
 448  6831.683
 449  7010.427
 450  6769.571
 451  6900.505
 452  7141.348
 453  7396.414
 454  7910.928
 455  7996.244
 456  7794.962
 457  7035.228
 458  6856.648
 459  7543.951
 460  7910.001
 461  7895.863
 462  7710.414
 463  7138.941
 464  6910.059
 465  7156.855
 466  7118.747
 467  6790.184
 468  6169.638
 469  6478.333
 470  6461.079
 471  6631.87
 472  7102.187
 473  7503.749
 474  7386.389
 475  6532.577
 476  5659.988
 477  5803.319
 478  5957.943
 479  6100.848
 480  6445.569
 481  6273.885
 482  6772.412
 483  6886.634
 484  6748.463
 485  6631.382
 486  6895.746
 487  7046.894
 488  7080.846
 489  7745.045
 490  7604.493
 491  7489.308
 492  7500.375
 493  7293.619
 494  7766.847
 495  8043.026
 496  8118.482
 497  7776.526
 498  7286.367
 499  7389.917
 500  7843.67
 501  7790.965
 502  8283.643
 503  8081.8
 504  8096.435
 505  8417.488
 506  8724.595
 507  8460.526
 508  8290.488
 509  8780.136
 510  8360.046
 511  8100.427
