# Input file       =  1203090916.122294_cleaned.dat
# Candidate        =  PSR_0332+5434
# Telescope        =  AR
# Epoch_topo       =  58168.663600952474
# Epoch_bary       =  N/A
# T_sample         =  0.002
# Data Folded      =  7340032
# Data Avg         =  0.326154452958561
# Data StdDev      =  5.32634595220811 
# Profile Bins     =  512
# Profile Avg      =  4676.21909716003 
# Profile StdDev   =  637.739573650974 
# Reduced chi-sqr  =  1.025
# Prob(Noise)      <  0.341   (~0.4 sigma)
# P_topo (ms)      =  714.580705570421  +/- 0.000511
# P'_topo (s/s)    =  -0                +/- 2.7e-10
# P''_topo (s/s^2) =  0                 +/- 1.19e-13
# P_bary (ms)      =  N/A
# P'_bary (s/s)    =  N/A
# P''_bary (s/s^2) =  N/A
# P_orb (s)        =  N/A
# asin(i)/c (s)    =  N/A
# eccentricity     =  N/A
# w (rad)          =  N/A
# T_peri           =  N/A
######################################################
   0  4838.251
   1  4839.844
   2  4436.14
   3  4481.873
   4  4810.446
   5  4734.364
   6  4747.312
   7  4682.304
   8  4459.032
   9  4669.311
  10  5128.461
  11  5132.435
  12  4703.927
  13  4728.241
  14  4867.453
  15  4397.76
  16  4856.631
  17  5177.098
  18  5333.436
  19  5265.542
  20  5291.017
  21  5463.262
  22  5426.066
  23  5334.313
  24  5269.027
  25  5300.029
  26  5556.253
  27  5393.993
  28  5525.589
  29  5640.867
  30  5453.706
  31  5209.175
  32  5281.947
  33  5148.121
  34  4941.897
  35  4903.81
  36  5030.938
  37  4697.174
  38  4834.712
  39  4553.107
  40  4199.057
  41  4648.462
  42  4886.213
  43  5236.97
  44  5067.516
  45  4983.695
  46  4726.019
  47  4792.825
  48  4743.844
  49  4584.062
  50  4361.488
  51  4475.803
  52  4647.048
  53  4633.477
  54  4883.965
  55  4573.598
  56  4943.854
  57  4805.903
  58  4576.212
  59  4356.526
  60  4777.046
  61  4742.676
  62  4915.166
  63  4754.388
  64  4626.96
  65  4634.806
  66  4761.15
  67  4518.262
  68  4578.747
  69  4689.957
  70  4823.257
  71  4865.38
  72  4583.52
  73  4774.361
  74  4511.046
  75  4432.937
  76  4851.394
  77  4987.965
  78  5137.666
  79  4914.34
  80  4673.189
  81  4546.39
  82  4814.165
  83  4641.262
  84  4615.953
  85  4731.136
  86  4725.666
  87  4676.227
  88  4412.937
  89  4613.462
  90  5008.243
  91  4861.77
  92  4779.171
  93  4567.088
  94  4549.1
  95  4831.423
  96  4531.195
  97  4698.587
  98  4438.096
  99  4034.355
 100  4018.618
 101  3838.498
 102  4138.095
 103  4186.493
 104  4388.363
 105  4233.423
 106  3620.337
 107  3627.505
 108  4136.196
 109  4330.097
 110  4454.568
 111  4525.98
 112  4120.851
 113  3722.859
 114  4164.526
 115  4487.034
 116  4481.619
 117  4237.996
 118  4128.318
 119  4207.815
 120  4336.933
 121  4453.625
 122  4513.082
 123  4385.658
 124  4426.26
 125  4253.588
 126  4461.551
 127  4568.861
 128  4466.34
 129  4611.735
 130  4858.957
 131  4740.938
 132  4731.246
 133  4713.323
 134  4611.534
 135  4621.948
 136  4542.655
 137  4524.688
 138  4348.581
 139  3990.481
 140  4140.617
 141  4186.968
 142  4482.232
 143  4489.628
 144  4340.151
 145  4517.15
 146  4813.79
 147  4495.109
 148  4140.171
 149  4181.486
 150  4700.716
 151  5048.434
 152  5241.796
 153  5301.458
 154  5065.486
 155  4890.312
 156  4757.123
 157  4602.158
 158  4417.197
 159  4430.208
 160  4656.905
 161  4842.998
 162  4804.357
 163  4607.987
 164  4552.73
 165  3919.596
 166  4169.633
 167  4560.167
 168  4535.802
 169  4367.01
 170  4577.016
 171  4819.222
 172  4847.62
 173  4013.697
 174  3786.783
 175  4269.284
 176  4278.393
 177  4441.932
 178  4605.739
 179  4443.884
 180  4447.122
 181  4670.957
 182  4801.768
 183  4665.011
 184  4849.205
 185  5125.779
 186  4631.614
 187  4303.254
 188  4731.84
 189  4402.811
 190  4399.237
 191  4637.672
 192  4734.516
 193  4390.938
 194  4228.664
 195  4280.518
 196  3980.948
 197  4066.209
 198  4125.986
 199  4103.284
 200  4189.871
 201  4478.983
 202  4157.691
 203  4172.035
 204  4475.959
 205  4571.292
 206  4427.485
 207  4400.158
 208  4679.015
 209  4870.861
 210  4672.673
 211  4479.121
 212  4923.135
 213  4866.447
 214  4607.514
 215  4460.259
 216  4271.299
 217  4635.863
 218  4338.749
 219  4033.617
 220  3999.514
 221  4161.496
 222  4466.064
 223  3808.861
 224  3894.713
 225  3677.343
 226  4107.454
 227  4150.975
 228  3877.192
 229  3922.216
 230  4171.47
 231  4409.262
 232  4622.438
 233  4572.885
 234  4745.199
 235  4598.198
 236  4790.331
 237  4880.877
 238  5067.742
 239  4960.101
 240  4723.574
 241  4879.263
 242  4812.354
 243  4724.609
 244  4636.11
 245  4639.424
 246  4932.267
 247  4592.548
 248  4544.092
 249  4935.729
 250  4919.109
 251  4291.801
 252  4150.401
 253  4410.298
 254  4584.403
 255  4212.389
 256  4401.188
 257  5021.688
 258  5261.835
 259  5264.073
 260  4941.62
 261  5043.356
 262  5078.051
 263  4999.505
 264  5090.187
 265  5575.327
 266  5402.633
 267  5425.76
 268  5342.754
 269  5140.765
 270  4931.696
 271  5294.548
 272  5156.354
 273  4629.428
 274  4670.021
 275  4211.33
 276  4520.569
 277  4497.819
 278  4172.796
 279  4272.016
 280  4108.939
 281  4249.181
 282  4135.324
 283  4384.51
 284  4544.991
 285  4484.479
 286  4565.542
 287  4713.569
 288  4822.178
 289  4850.661
 290  4862.626
 291  4877.703
 292  5056.98
 293  4725.693
 294  4797.188
 295  4877.807
 296  5264.367
 297  5258.586
 298  5263.214
 299  5605.596
 300  5610.37
 301  5834.137
 302  5740.806
 303  5838.966
 304  6234.556
 305  6564.045
 306  6335.789
 307  6105.736
 308  5665.396
 309  5245.576
 310  4813.474
 311  4847.51
 312  4961.99
 313  4642.649
 314  4924.912
 315  4841.147
 316  5042.46
 317  4872.906
 318  4958.201
 319  5344.207
 320  5486.144
 321  5421.632
 322  5256.245
 323  5234.273
 324  4832.908
 325  4561.336
 326  4785.869
 327  4918.993
 328  4930.951
 329  4977.826
 330  5131.216
 331  4783.387
 332  4653.222
 333  4680.187
 334  4919.034
 335  5053.069
 336  4763.383
 337  5293.502
 338  5253.766
 339  5332.887
 340  5549.292
 341  5434.116
 342  5812.628
 343  5819.395
 344  6024.733
 345  5933.435
 346  5526.069
 347  5572.552
 348  5583.198
 349  5611.32
 350  5691.436
 351  5854.304
 352  5543.764
 353  5396.487
 354  5236.611
 355  5554.191
 356  5493.171
 357  5302.729
 358  5438.829
 359  5289.325
 360  5333.551
 361  5430.626
 362  5584.403
 363  5227.387
 364  5155.065
 365  5230.214
 366  5362.035
 367  5665.883
 368  5434.377
 369  5162.155
 370  5283.699
 371  5294.623
 372  5034.812
 373  4824.107
 374  5188.929
 375  5142.388
 376  5200.891
 377  4637.315
 378  4250.772
 379  4314.822
 380  4520.194
 381  4916.656
 382  4680.463
 383  4232.89
 384  4159.798
 385  4226.585
 386  4333.595
 387  4351.927
 388  4534.286
 389  4311.817
 390  4165.056
 391  4681.316
 392  4710.508
 393  4493.25
 394  4607.028
 395  4862.057
 396  4812.483
 397  4609.139
 398  4458.317
 399  4378.165
 400  4580.214
 401  4581.232
 402  4463.92
 403  4426.253
 404  4079.579
 405  3926.925
 406  4212.688
 407  4281.803
 408  4359.231
 409  4432.918
 410  4322.224
 411  3874.201
 412  4081.019
 413  4571.084
 414  4576.984
 415  4580.224
 416  4598.272
 417  4571.773
 418  4545.974
 419  4450.496
 420  4563.571
 421  4476.7
 422  4787.465
 423  5067.6
 424  5235.084
 425  4985.301
 426  5047.631
 427  5304.624
 428  5073.347
 429  5299.01
 430  5090.014
 431  4735.661
 432  4657.731
 433  4187.566
 434  4707.781
 435  4728.009
 436  4866.277
 437  4652.309
 438  4268.232
 439  4527.099
 440  4491.704
 441  3971.953
 442  4000.935
 443  4260.009
 444  4435.595
 445  4031.13
 446  4110.436
 447  4108.585
 448  4209.319
 449  4122.644
 450  4228.359
 451  4375.672
 452  4149.126
 453  4209.349
 454  3970.675
 455  4283.81
 456  4129.781
 457  4120.416
 458  4345.493
 459  4046.841
 460  3893.858
 461  3776.073
 462  4219.396
 463  4424.062
 464  4174.312
 465  4403.561
 466  4429.633
 467  4452.569
 468  4258.686
 469  3904.434
 470  4139.091
 471  4116.77
 472  4177.148
 473  4330.223
 474  4159.925
 475  3968.935
 476  4036.663
 477  4351.274
 478  4492.265
 479  4678.07
 480  4663.733
 481  4348.104
 482  4324.484
 483  4432.539
 484  4308.458
 485  4525.121
 486  4427.962
 487  4595.542
 488  4402.2
 489  4333.86
 490  4399.084
 491  4331.331
 492  4279.354
 493  4114.703
 494  4131.072
 495  4230.983
 496  4127.965
 497  4208.361
 498  4371.98
 499  4255.524
 500  4269.758
 501  4109.117
 502  3872.837
 503  4040.387
 504  4649.19
 505  4617.789
 506  4137.196
 507  4179.181
 508  4388.933
 509  4534.159
 510  4354.154
 511  4514.004
