# Input file       =  1203271799.102448_cleaned.dat
# Candidate        =  PSR_0332+5434
# Telescope        =  AR
# Epoch_topo       =  58170.757153963517
# Epoch_bary       =  N/A
# T_sample         =  0.002
# Data Folded      =  7340032
# Data Avg         =  0.144394874318096
# Data StdDev      =  3.59130498693837 
# Profile Bins     =  1024
# Profile Avg      =  1035.06590183543 
# Profile StdDev   =  304.054396084    
# Reduced chi-sqr  =  0.889
# Prob(Noise)      <  0.995   (~0.0 sigma)
# P_topo (ms)      =  714.581043262803  +/- 0.000292
# P'_topo (s/s)    =  -0                +/- 1.54e-10
# P''_topo (s/s^2) =  0                 +/- 6.8e-14
# P_bary (ms)      =  N/A
# P'_bary (s/s)    =  N/A
# P''_bary (s/s^2) =  N/A
# P_orb (s)        =  N/A
# asin(i)/c (s)    =  N/A
# eccentricity     =  N/A
# w (rad)          =  N/A
# T_peri           =  N/A
######################################################
   0  954.4875
   1  923.7817
   2  966.4398
   3  1177.959
   4  1140.92
   5  1061.143
   6  1009.996
   7  1161.664
   8  1259.74
   9  1150.309
  10  941.6162
  11  829.8547
  12  840.1627
  13  908.5813
  14  1067.78
  15  1231.219
  16  1301.461
  17  1262.342
  18  1233.61
  19  1305.918
  20  1269.349
  21  1250.357
  22  1043.009
  23  1016.605
  24  1000.977
  25  1049.901
  26  1089.792
  27  1092.662
  28  1120.14
  29  1098.644
  30  1047.771
  31  992.7496
  32  915.9537
  33  823.5892
  34  717.5093
  35  790.4839
  36  916.6664
  37  1055.792
  38  980.7706
  39  1020.969
  40  1079.379
  41  1148.786
  42  1037.81
  43  1009.779
  44  948.4727
  45  945.3622
  46  923.0449
  47  987.8619
  48  884.3165
  49  772.874
  50  728.3369
  51  852.4063
  52  946.3313
  53  956.1508
  54  1006.28
  55  1110.973
  56  1217.355
  57  1138.275
  58  1044.942
  59  1097.838
  60  1168.732
  61  1250.203
  62  1193.192
  63  1099.28
  64  1059.587
  65  1029.256
  66  1157.083
  67  1287.163
  68  1451.112
  69  1315.241
  70  1113.839
  71  927.1597
  72  945.1708
  73  964.9357
  74  983.6989
  75  970.9106
  76  976.7045
  77  853.3543
  78  844.8742
  79  860.5287
  80  993.4603
  81  1020.188
  82  1045.067
  83  1013.944
  84  982.4176
  85  885.6764
  86  919.5797
  87  929.0807
  88  1028.955
  89  1011.482
  90  973.1176
  91  995.5343
  92  899.5629
  93  878.1978
  94  902.5486
  95  1022.783
  96  1031.906
  97  904.1432
  98  842.19
  99  854.3081
 100  819.9022
 101  808.7927
 102  790.9146
 103  959.4571
 104  1154.581
 105  1229.129
 106  1069.275
 107  970.496
 108  1005.775
 109  1071.219
 110  1051.36
 111  962.0632
 112  902.1491
 113  863.1475
 114  828.0093
 115  938.9542
 116  1039.202
 117  1154.984
 118  1069.1
 119  990.2846
 120  996.4089
 121  954.9322
 122  882.1941
 123  971.0618
 124  1044.418
 125  1172.673
 126  1127.274
 127  1182.138
 128  963.3264
 129  858.6008
 130  878.4744
 131  1069.27
 132  990.0046
 133  962.6354
 134  971.2941
 135  1016.357
 136  867.5759
 137  792.5057
 138  848.2019
 139  1016.712
 140  1013.394
 141  1078.306
 142  1140.504
 143  1120.597
 144  1068.067
 145  964.946
 146  967.322
 147  973.1376
 148  930.5233
 149  949.4249
 150  812.3511
 151  788.8314
 152  785.9059
 153  845.7769
 154  861.0499
 155  884.2532
 156  978.0626
 157  1058.646
 158  984.1818
 159  873.4861
 160  706.162
 161  676.0158
 162  749.1274
 163  874.4845
 164  914.5129
 165  990.5148
 166  1042.022
 167  1062.887
 168  928.1547
 169  922.9553
 170  937.8311
 171  1156.3
 172  1278.365
 173  1340.691
 174  1271.837
 175  1207.522
 176  1087.568
 177  951.4356
 178  937.9863
 179  973.954
 180  909.2427
 181  834.735
 182  765.4805
 183  861.6686
 184  882.529
 185  1026.177
 186  1034.225
 187  1178.28
 188  1168.608
 189  1151.018
 190  1163.589
 191  1198.375
 192  1122.002
 193  982.8873
 194  908.2959
 195  931.2613
 196  950.0277
 197  1077.107
 198  1126.001
 199  1137.017
 200  1024.268
 201  997.154
 202  1028.749
 203  1095.801
 204  1076.385
 205  1080.658
 206  1115.13
 207  1098.116
 208  1050.483
 209  1124.377
 210  1118.115
 211  1068.748
 212  1030.868
 213  1183.317
 214  1178.063
 215  1128.112
 216  1092.043
 217  1180.827
 218  1101.597
 219  1064.747
 220  876.1733
 221  930.2704
 222  1067.896
 223  1278.042
 224  1302.073
 225  1196.991
 226  1103.211
 227  1242.797
 228  1336.766
 229  1361.362
 230  1185.314
 231  1096.23
 232  1056.741
 233  1012.631
 234  993.3186
 235  916.0842
 236  897.6326
 237  951.2377
 238  1057.132
 239  1106.398
 240  1024.319
 241  988.7269
 242  916.4222
 243  952.3107
 244  1032.33
 245  1088.122
 246  1197.288
 247  1192.831
 248  1268.827
 249  1322.278
 250  1346.908
 251  1302.827
 252  1192.548
 253  1215.621
 254  1311.942
 255  1332.026
 256  1364.883
 257  1257.096
 258  1170.632
 259  976.0104
 260  971.9603
 261  1089.332
 262  1063.53
 263  1116.065
 264  1106.734
 265  1163.753
 266  1111.016
 267  1103.162
 268  1093.51
 269  970.9784
 270  858.0195
 271  901.7058
 272  994.8933
 273  1006.853
 274  965.9951
 275  882.9062
 276  953.0614
 277  983.9318
 278  1067.956
 279  1158.481
 280  1208.722
 281  1214.884
 282  1133.974
 283  1148.112
 284  1193.864
 285  1300.645
 286  1238.858
 287  1186.145
 288  1265.046
 289  1384.608
 290  1327.266
 291  1169.788
 292  1006.36
 293  945.8951
 294  940.404
 295  1047.355
 296  1130.813
 297  1074.031
 298  1044.829
 299  971.0059
 300  1099.974
 301  1120.635
 302  1219.749
 303  1197.823
 304  1178.543
 305  1099.073
 306  1017.272
 307  978.8029
 308  877.3666
 309  986.2849
 310  1075.101
 311  1091.75
 312  1052.509
 313  1019.736
 314  985.2905
 315  952.7574
 316  938.3119
 317  999.7911
 318  1028.333
 319  965.2869
 320  963.6313
 321  1034.879
 322  1056.979
 323  965.9487
 324  888.3014
 325  902.0609
 326  1023.723
 327  1024.765
 328  1064.482
 329  1012.219
 330  1028.297
 331  920.4807
 332  968.5756
 333  1014.061
 334  990.8455
 335  862.9245
 336  770.8906
 337  752.6875
 338  817.1867
 339  823.5895
 340  978.0405
 341  960.9418
 342  910.7565
 343  881.427
 344  843.7415
 345  889.7145
 346  910.4923
 347  909.7143
 348  904.37
 349  840.0754
 350  942.8194
 351  915.3713
 352  949.5889
 353  1045.729
 354  1013.533
 355  1002.772
 356  774.7307
 357  692.491
 358  589.1941
 359  686.9892
 360  814.47
 361  991.1332
 362  1070.587
 363  887.9697
 364  766.2159
 365  818.7927
 366  1100.146
 367  1108.976
 368  1034.095
 369  1006.464
 370  1077.137
 371  1092.142
 372  970.0811
 373  967.0246
 374  914.7552
 375  961.1381
 376  1002.501
 377  1070.413
 378  994.3541
 379  947.4811
 380  886.7557
 381  922.1656
 382  849.1121
 383  866.1276
 384  882.5166
 385  988.6437
 386  1009.179
 387  883.1099
 388  720.8565
 389  591.8538
 390  680.647
 391  753.3955
 392  923.2415
 393  972.308
 394  921.8606
 395  807.9067
 396  764.4371
 397  778.3436
 398  832.7354
 399  741.9091
 400  827.5776
 401  850.6222
 402  987.1288
 403  847.3524
 404  801.0147
 405  838.2335
 406  828.1138
 407  833.4081
 408  754.8738
 409  923.2607
 410  1007.1
 411  1050.23
 412  1052.295
 413  1023.878
 414  994.2093
 415  940.7136
 416  981.2594
 417  1043.207
 418  997.654
 419  948.9042
 420  917.5504
 421  881.8691
 422  796.7141
 423  807.8664
 424  884.7996
 425  913.9259
 426  887.935
 427  927.14
 428  960.2125
 429  1036.991
 430  1032.107
 431  1057.164
 432  1065.231
 433  1114.424
 434  1061.47
 435  975.487
 436  929.6612
 437  993.9364
 438  964.5863
 439  887.7588
 440  799.2092
 441  941.2429
 442  1010.952
 443  1076.502
 444  1051.748
 445  1065.705
 446  1035.172
 447  967.8962
 448  927.5095
 449  807.536
 450  845.2372
 451  945.1868
 452  1056.699
 453  1090.756
 454  922.3381
 455  934.8536
 456  880.851
 457  1010.166
 458  924.6391
 459  918.1553
 460  930.1627
 461  1032.876
 462  1012.472
 463  1038.627
 464  1005.542
 465  1063.828
 466  1169.502
 467  1192.201
 468  1253.765
 469  1140.987
 470  1168.832
 471  1103.836
 472  1105.485
 473  1059.707
 474  1121.762
 475  1171.489
 476  1205.086
 477  1290.439
 478  1351.79
 479  1316.123
 480  1145.874
 481  1066.194
 482  1123.089
 483  1267.399
 484  1366.859
 485  1246.211
 486  1144.6
 487  1029.549
 488  1093.912
 489  1172.079
 490  1182.481
 491  1081.57
 492  1089.874
 493  1145.906
 494  1138.012
 495  1041.653
 496  1021.478
 497  991.811
 498  1003.701
 499  933.4376
 500  992.5945
 501  1089.174
 502  1204.641
 503  1171.049
 504  1060.867
 505  960.8028
 506  975.2609
 507  1062.254
 508  1117.211
 509  1039.787
 510  1070.367
 511  1050.506
 512  1011.784
 513  894.637
 514  748.2056
 515  757.9863
 516  945.4028
 517  1146.883
 518  1166.893
 519  1091.007
 520  1166.013
 521  1097.315
 522  1167.064
 523  1038.976
 524  1090.603
 525  1010.001
 526  1060.215
 527  1004.872
 528  1082.42
 529  1025.35
 530  980.8128
 531  916.3159
 532  891.0056
 533  827.4409
 534  800.482
 535  947.2208
 536  1061.379
 537  1017.517
 538  935.5169
 539  953.4608
 540  1049.143
 541  968.2318
 542  1029.49
 543  1069.431
 544  1141.464
 545  957.4999
 546  933.004
 547  957.8177
 548  1092.927
 549  1071.135
 550  1028.123
 551  995.3733
 552  1046.384
 553  1179.604
 554  1267.597
 555  1224.378
 556  1097.685
 557  1142.691
 558  1176.208
 559  1194.637
 560  1139.781
 561  1039.813
 562  957.2999
 563  831.4951
 564  780.2637
 565  840.7206
 566  876.0514
 567  892.8542
 568  836.5697
 569  897.7022
 570  1064.07
 571  1169.156
 572  1237.717
 573  1208.927
 574  1210.019
 575  1189.274
 576  1034.369
 577  988.0513
 578  1039.165
 579  1178.395
 580  1189.974
 581  1138.588
 582  1131.274
 583  1134.488
 584  1030.626
 585  1092.893
 586  1114.077
 587  1196.763
 588  1141.631
 589  1174.376
 590  1094.096
 591  1109.052
 592  1049.168
 593  1141.17
 594  1168.372
 595  1096.365
 596  1059.223
 597  1013.586
 598  1080.81
 599  1127.988
 600  1241.392
 601  1275.025
 602  1261.302
 603  1262.484
 604  1301.114
 605  1277.892
 606  1264.957
 607  1321.66
 608  1403.32
 609  1555.506
 610  1666.184
 611  1835.306
 612  1847.315
 613  1873.304
 614  1805.003
 615  1637.951
 616  1442.527
 617  1289.517
 618  1225.204
 619  1118.127
 620  1000.853
 621  913.0402
 622  877.3889
 623  890.8049
 624  819.1019
 625  791.1046
 626  814.2198
 627  936.9814
 628  1029.506
 629  992.4937
 630  921.5589
 631  781.7286
 632  933.5872
 633  945.0404
 634  1019.239
 635  949.7424
 636  900.1937
 637  877.3467
 638  873.7974
 639  863.2708
 640  894.2984
 641  880.756
 642  918.7924
 643  1035.347
 644  1230.955
 645  1287.055
 646  1271.209
 647  1254.025
 648  1154.933
 649  930.485
 650  882.1986
 651  954.2657
 652  928.2525
 653  792.2812
 654  900.0884
 655  1109.99
 656  1379.651
 657  1394.93
 658  1185.244
 659  992.4678
 660  882.4656
 661  990.9803
 662  933.9717
 663  885.205
 664  853.2382
 665  845.4429
 666  882.5783
 667  923.2667
 668  952.6064
 669  897.5291
 670  907.5056
 671  850.7626
 672  852.8744
 673  865.0043
 674  903.0527
 675  913.1738
 676  870.394
 677  885.0214
 678  779.5512
 679  774.3613
 680  802.6986
 681  869.9846
 682  867.2051
 683  806.9321
 684  798.2817
 685  732.5239
 686  802.3372
 687  710.6866
 688  731.5009
 689  769.3329
 690  878.9817
 691  871.8795
 692  918.0013
 693  1057.833
 694  1144.496
 695  1091.692
 696  968.0617
 697  979.5326
 698  962.2681
 699  958.1685
 700  882.9719
 701  869.3116
 702  804.9667
 703  711.1368
 704  839.6263
 705  1008.106
 706  1060.9
 707  978.3959
 708  899.312
 709  865.771
 710  895.0272
 711  873.5261
 712  922.2784
 713  896.6069
 714  894.0912
 715  837.9936
 716  926.4441
 717  1055.121
 718  1044.932
 719  981.4996
 720  824.1846
 721  812.9824
 722  875.7474
 723  1050.068
 724  1098.695
 725  1065.665
 726  932.0891
 727  854.5167
 728  823.1652
 729  821.3322
 730  841.8528
 731  795.4431
 732  813.1667
 733  714.1679
 734  844.2196
 735  865.6492
 736  1020.457
 737  952.52
 738  924.625
 739  918.8789
 740  982.1047
 741  973.4413
 742  876.9477
 743  777.2791
 744  798.9559
 745  810.1309
 746  715.6818
 747  729.3062
 748  768.4921
 749  968.7895
 750  1005.797
 751  974.1567
 752  887.2239
 753  836.9929
 754  857.1994
 755  911.6203
 756  962.0517
 757  950.144
 758  986.9076
 759  1018.677
 760  1049.871
 761  960.854
 762  848.5196
 763  865.6197
 764  990.3784
 765  1051.474
 766  1056.637
 767  1047.309
 768  1200.982
 769  1297.056
 770  1153.15
 771  993.9103
 772  882.8976
 773  881.4705
 774  799.3926
 775  748.3146
 776  742.8873
 777  799.0985
 778  990.1317
 779  1052.994
 780  1134.475
 781  1113.949
 782  1097.52
 783  1069.534
 784  1105.917
 785  1112.552
 786  973.4559
 787  844.9555
 788  918.6605
 789  1045.886
 790  1119.497
 791  1030.446
 792  1060.92
 793  1023.617
 794  949.6902
 795  934.6479
 796  1021.623
 797  1104.77
 798  1131.189
 799  1175.063
 800  1131.366
 801  1014.981
 802  954.2372
 803  945.7521
 804  955.5853
 805  994.5499
 806  999.423
 807  954.6956
 808  1061.26
 809  1053.696
 810  968.0972
 811  783.3184
 812  828.1991
 813  888.964
 814  886.162
 815  838.5361
 816  790.2141
 817  859.0416
 818  994.6898
 819  1052.987
 820  1091.292
 821  1210.516
 822  1283.526
 823  1324.602
 824  1244.757
 825  1220.276
 826  1128.901
 827  1058.002
 828  978.5009
 829  976.2281
 830  998.7369
 831  1064.287
 832  942.2155
 833  884.6533
 834  954.4999
 835  1173.599
 836  1265.858
 837  1160.858
 838  983.8051
 839  942.9391
 840  937.7255
 841  952.7898
 842  871.504
 843  862.1037
 844  752.5319
 845  754.1539
 846  849.862
 847  1005.665
 848  1125.723
 849  1093.089
 850  1167.83
 851  1118.751
 852  1158.85
 853  1242.755
 854  1187.009
 855  1122.683
 856  1059.018
 857  1069.021
 858  1064.004
 859  1011.152
 860  1062.71
 861  1108.296
 862  1140.442
 863  1208.847
 864  1128.311
 865  1207.791
 866  1114.389
 867  1120.579
 868  1051.389
 869  1058.073
 870  1066.326
 871  1129.354
 872  1179.233
 873  1195.538
 874  1200.024
 875  1223.114
 876  1152.753
 877  1062.923
 878  1076.648
 879  1054.584
 880  1069.693
 881  983.5759
 882  917.5089
 883  985.1154
 884  1106.204
 885  1270.077
 886  1255.207
 887  1257.808
 888  1224.08
 889  1161.852
 890  1041.481
 891  957.5172
 892  907.0497
 893  899.8245
 894  886.9456
 895  988.749
 896  981.0435
 897  1053.228
 898  1113.86
 899  1207.81
 900  1274.495
 901  1322.022
 902  1242.866
 903  1175.906
 904  1147.307
 905  1258.289
 906  1350.316
 907  1300.835
 908  1245.269
 909  1234.415
 910  1246.81
 911  1252.281
 912  1191.003
 913  1211.546
 914  1193.612
 915  1215.867
 916  1255.194
 917  1208.006
 918  1305.62
 919  1201.637
 920  1247.991
 921  1293.686
 922  1444.123
 923  1399.778
 924  1333.89
 925  1318.243
 926  1248.537
 927  1155.548
 928  1087.135
 929  1108.37
 930  1097.92
 931  1139.655
 932  1171.419
 933  1157.979
 934  1150.946
 935  1157.586
 936  1226.905
 937  1319.848
 938  1401.059
 939  1333.58
 940  1150.271
 941  1079.563
 942  1068.757
 943  1182.41
 944  1190.639
 945  1212.009
 946  1073.433
 947  940.8716
 948  875.4009
 949  1049.564
 950  1152.23
 951  1181.768
 952  1186.633
 953  1254.762
 954  1301.088
 955  1211.633
 956  1092.883
 957  1068.492
 958  995.8507
 959  1048.551
 960  956.967
 961  982.7393
 962  991.6725
 963  1068.105
 964  1083.274
 965  1131.619
 966  1235.446
 967  1229.541
 968  1160.931
 969  1108.761
 970  1129.215
 971  1140.241
 972  1101.73
 973  1089.316
 974  1046.844
 975  1058.518
 976  1147.732
 977  1114.058
 978  1056.258
 979  972.5495
 980  903.1553
 981  915.1481
 982  1002.591
 983  1098.571
 984  1116.994
 985  1133.036
 986  1088.478
 987  1062.01
 988  986.9752
 989  1054.261
 990  1128.468
 991  1255.915
 992  1267.275
 993  1254.587
 994  1228.568
 995  1186.891
 996  1198.743
 997  1300.978
 998  1236.516
 999  1137.181
1000  1047.632
1001  1206.5
1002  1272.297
1003  1224.093
1004  1221.061
1005  1193.306
1006  1202.368
1007  1148.104
1008  1060.499
1009  958.8295
1010  987.2985
1011  1094.164
1012  1265.014
1013  1313.751
1014  1327.665
1015  1224.351
1016  1163.142
1017  993.6597
1018  1022.888
1019  1116.513
1020  1321.324
1021  1294.585
1022  1182.759
1023  1102.873
