# Input file       =  1203242249.109574_cleaned.dat
# Candidate        =  PSR_0332+5434
# Telescope        =  AR
# Epoch_topo       =  58170.415140157107
# Epoch_bary       =  N/A
# T_sample         =  0.002
# Data Folded      =  7208960
# Data Avg         =  0.612416099607732
# Data StdDev      =  5.5601859634457  
# Profile Bins     =  512
# Profile Avg      =  8622.44233486769 
# Profile StdDev   =  659.767083681225 
# Reduced chi-sqr  =  2.258
# Prob(Noise)      <  1.28e-51   (~15.1 sigma)
# P_topo (ms)      =  714.580668853402  +/- 3.41e-05
# P'_topo (s/s)    =  -0                +/- 1.83e-11
# P''_topo (s/s^2) =  0                 +/- 8.23e-15
# P_bary (ms)      =  N/A
# P'_bary (s/s)    =  N/A
# P''_bary (s/s^2) =  N/A
# P_orb (s)        =  N/A
# asin(i)/c (s)    =  N/A
# eccentricity     =  N/A
# w (rad)          =  N/A
# T_peri           =  N/A
######################################################
   0  8171.135
   1  8519.524
   2  8503.905
   3  7932.892
   4  7518.616
   5  7532.131
   6  7589.041
   7  8271.574
   8  8692.181
   9  8915.775
  10  8931.297
  11  8860.038
  12  8589.598
  13  8254.936
  14  8149.623
  15  8218.323
  16  8097.365
  17  8298.741
  18  8549.935
  19  8299.877
  20  7658.837
  21  7425.331
  22  7600.259
  23  7796.504
  24  8114.172
  25  8747.723
  26  9508.611
  27  9433.537
  28  9272.229
  29  8790.923
  30  8361.24
  31  8304.467
  32  8163.722
  33  8419.591
  34  8390.209
  35  8309.011
  36  7857.106
  37  7424.687
  38  7438.524
  39  7656.432
  40  7881.43
  41  8047.998
  42  9062.273
  43  9141.575
  44  8817.603
  45  8111.831
  46  8141.239
  47  7822.764
  48  8051.169
  49  8151.071
  50  7807.476
  51  7769.938
  52  7614.011
  53  7244.516
  54  7264.236
  55  7412.199
  56  7743.357
  57  8079.973
  58  8889.213
  59  8972.109
  60  8569.371
  61  8136.533
  62  8101.22
  63  7607.707
  64  7978.469
  65  8329.304
  66  8230.269
  67  8426.113
  68  8167.051
  69  7707.803
  70  7387.151
  71  7373.795
  72  7290.649
  73  7399.773
  74  7976.871
  75  8436.085
  76  8771.905
  77  8608.957
  78  7759.568
  79  7775.639
  80  7620.646
  81  7577.672
  82  7413.903
  83  7287.52
  84  7804.148
  85  7589.123
  86  7339.303
  87  7010.99
  88  7132.945
  89  7396.752
  90  7796.146
  91  8283.805
  92  8547.438
  93  8303.958
  94  7920.067
  95  7506.465
  96  7589.65
  97  7552.168
  98  7682.974
  99  8010.509
 100  8143.525
 101  8124.621
 102  7573.67
 103  7417.439
 104  7056.56
 105  6962.486
 106  7740.589
 107  8521.71
 108  9138.748
 109  9195.496
 110  9049.995
 111  8605.096
 112  8009.215
 113  8100.051
 114  7813.503
 115  7773.263
 116  8116.557
 117  8593.206
 118  8918.463
 119  8383.991
 120  8300.479
 121  8379.396
 122  8333.977
 123  8474.448
 124  8324.854
 125  8567.48
 126  8682.535
 127  8651.696
 128  8215.646
 129  7905.458
 130  8434.179
 131  8138.048
 132  7516.021
 133  7806.904
 134  7987.792
 135  8082.375
 136  7461.68
 137  7408.191
 138  7634.291
 139  7939.782
 140  8610.837
 141  9206.023
 142  9801.073
 143  9443.521
 144  8688.111
 145  8256.844
 146  8358.787
 147  8434.882
 148  8644.782
 149  8777.605
 150  8840.153
 151  8544.311
 152  8101.149
 153  7604.444
 154  7679.379
 155  8167.259
 156  8383.475
 157  9018.805
 158  9528.989
 159  9593.896
 160  9774.3
 161  9058.443
 162  9051.84
 163  8652.225
 164  8315.769
 165  8370.797
 166  8882.759
 167  9047.611
 168  8278.732
 169  7774.42
 170  7770.258
 171  8045.006
 172  8465.155
 173  9146.266
 174  9416.687
 175  9565.05
 176  9662.678
 177  9257.51
 178  9082.586
 179  9142.002
 180  8682.756
 181  8609.546
 182  9019.841
 183  9438.744
 184  9235.359
 185  8642.14
 186  8206.375
 187  8577.39
 188  8586.996
 189  8987.682
 190  9220.245
 191  9876.912
 192  10086.97
 193  9971.813
 194  9560.654
 195  9244.827
 196  8699.558
 197  8849.646
 198  8603.043
 199  8439.615
 200  8873.97
 201  8475.577
 202  8233.424
 203  8251.986
 204  8580.63
 205  8791.988
 206  8929.979
 207  9507.181
 208  9708.386
 209  9848.254
 210  9273.751
 211  8814.486
 212  8920.241
 213  9040.85
 214  8907.02
 215  8840.086
 216  9138.106
 217  8831.068
 218  8577.081
 219  8006.582
 220  7695.405
 221  8071.697
 222  8345.333
 223  9163.019
 224  9639.89
 225  9506.09
 226  8944.361
 227  8726.791
 228  8147.402
 229  8501.68
 230  8395.051
 231  8370.496
 232  8473.766
 233  8665.289
 234  8288.773
 235  7689.231
 236  7615.103
 237  7961.769
 238  8502.819
 239  8527.614
 240  9493.043
 241  9452.002
 242  9097.012
 243  8729.14
 244  8506.09
 245  8674.982
 246  8354.306
 247  8258.315
 248  8576.258
 249  9164.379
 250  8881.956
 251  8090.271
 252  7907.047
 253  7699.112
 254  7987.587
 255  8499.3
 256  8873.868
 257  9083.104
 258  9208.944
 259  9499.913
 260  8990.015
 261  8864.109
 262  8423.806
 263  8071.252
 264  7997.58
 265  8428.287
 266  8767.082
 267  8949.629
 268  8249.485
 269  7855.03
 270  8552.08
 271  8794.323
 272  8987.411
 273  9318.958
 274  9784.021
 275  9728.784
 276  9263.905
 277  8910.346
 278  9173.219
 279  9368.906
 280  9122.359
 281  9231.891
 282  9425.488
 283  9462.871
 284  8779.602
 285  8548.075
 286  8873.203
 287  8999.628
 288  9331.341
 289  9689.683
 290  10410.54
 291  10969.87
 292  10873.62
 293  10015.93
 294  9676.006
 295  9631.468
 296  9757.339
 297  9623.295
 298  9924.87
 299  10474.3
 300  9914.549
 301  9575.863
 302  8988.194
 303  9166.009
 304  9284.448
 305  9913.12
 306  10368.75
 307  10625.94
 308  10610.57
 309  10187.17
 310  9858.463
 311  9684.462
 312  9480.657
 313  9413.49
 314  9964.517
 315  10278.3
 316  9764.635
 317  9493.282
 318  8945.401
 319  9177.999
 320  9109.343
 321  9613.694
 322  9970.629
 323  10637.39
 324  10298.17
 325  10213.31
 326  9763.076
 327  9454.801
 328  9289.114
 329  9277.156
 330  9378.275
 331  9443.408
 332  9591.915
 333  9562.582
 334  8833.271
 335  8483.362
 336  8517.997
 337  8722.237
 338  9268.008
 339  9769.966
 340  10140.34
 341  10099.45
 342  9778.53
 343  8991.147
 344  8791.387
 345  8758.884
 346  8590.009
 347  8549.729
 348  8788.46
 349  8903.25
 350  8559.529
 351  7916.794
 352  7680.906
 353  8157.525
 354  8226.654
 355  8872.509
 356  9689.034
 357  9474.95
 358  9078.026
 359  9122.934
 360  8986.343
 361  8257.261
 362  8251.626
 363  8348.929
 364  8353.398
 365  8434.806
 366  7909.386
 367  7567.37
 368  7231.001
 369  7626.439
 370  8196.279
 371  8685.206
 372  9121.689
 373  9489.985
 374  9320.882
 375  8577.069
 376  8339.65
 377  8466.484
 378  8251.419
 379  8359.393
 380  8546.47
 381  8858.542
 382  8776.14
 383  8247.283
 384  7828.456
 385  7789.481
 386  8222.027
 387  8074.604
 388  8609.951
 389  9220.656
 390  9133.812
 391  9174.139
 392  8181.723
 393  8071.087
 394  8457.3
 395  8493.575
 396  8277.078
 397  8403.488
 398  8759.856
 399  8141.446
 400  7970.513
 401  7671.291
 402  7845.732
 403  8073.126
 404  8595.938
 405  9019.909
 406  9186.103
 407  9799.041
 408  9154.073
 409  8725.958
 410  8487.859
 411  8195.51
 412  8287.711
 413  8321.846
 414  8761.478
 415  8381.285
 416  8140.923
 417  7805.806
 418  7639.9
 419  7745.11
 420  8490.407
 421  9057.836
 422  9399.991
 423  9467.476
 424  9432.89
 425  8809.028
 426  8466.038
 427  8668.818
 428  8611.271
 429  8382.055
 430  8614.424
 431  8885.436
 432  8342.522
 433  7542.251
 434  7644.225
 435  7896.402
 436  8141.648
 437  8368.738
 438  9181.85
 439  9602.022
 440  9403.755
 441  8868.834
 442  8748.065
 443  8681.448
 444  8620.543
 445  8516.415
 446  8611.559
 447  8715.93
 448  8791.659
 449  8415.659
 450  8078.537
 451  7972.46
 452  8259.602
 453  8903.288
 454  9251.288
 455  9472.813
 456  9317.124
 457  9558.797
 458  8631.694
 459  8293.372
 460  8572.535
 461  8619.852
 462  8669.585
 463  9121.257
 464  9256.133
 465  8599.46
 466  8031.199
 467  7830.331
 468  8044.462
 469  8305.346
 470  8615.307
 471  9815.998
 472  10155.48
 473  9878.309
 474  9415.013
 475  8643.575
 476  8083.696
 477  8535.973
 478  8491.416
 479  8682.971
 480  8858.952
 481  8772.89
 482  8111.674
 483  7656.78
 484  7638.563
 485  7974.101
 486  8543.777
 487  9069.988
 488  9229.405
 489  9095.046
 490  8840.353
 491  8533.772
 492  8404.721
 493  8661.311
 494  8531.285
 495  8409.483
 496  8605.28
 497  8452.029
 498  8197.661
 499  7776.514
 500  7814.342
 501  7983.667
 502  8009.31
 503  8709.726
 504  9018.803
 505  9563.318
 506  9786.394
 507  9226.516
 508  8389.943
 509  7916.057
 510  7957.218
 511  7968.689
