# Input file       =  1203759049.105247_cleaned.dat
# Candidate        =  PSR_0332+5434
# Telescope        =  AR
# Epoch_topo       =  58176.396621588508
# Epoch_bary       =  N/A
# T_sample         =  0.002
# Data Folded      =  7340032
# Data Avg         =  0.067122129863649
# Data StdDev      =  1.00014183727437 
# Profile Bins     =  512
# Profile Avg      =  962.25560735129  
# Profile StdDev   =  119.750018984298 
# Reduced chi-sqr  =  1.124
# Prob(Noise)      <  0.0274   (~1.9 sigma)
# P_topo (ms)      =  714.580609844127  +/- 0.000609
# P'_topo (s/s)    =  -0                +/- 3.22e-10
# P''_topo (s/s^2) =  0                 +/- 1.42e-13
# P_bary (ms)      =  N/A
# P'_bary (s/s)    =  N/A
# P''_bary (s/s^2) =  N/A
# P_orb (s)        =  N/A
# asin(i)/c (s)    =  N/A
# eccentricity     =  N/A
# w (rad)          =  N/A
# T_peri           =  N/A
######################################################
   0  1270.711
   1  1355.585
   2  1275.2
   3  1096.128
   4  1074.251
   5  1096.306
   6  1000.447
   7  929.3246
   8  994.3089
   9  955.8454
  10  1031.649
  11  1014.138
  12  946.1113
  13  974.3022
  14  905.9603
  15  893.2438
  16  846.8604
  17  868.1545
  18  876.5759
  19  983.842
  20  977.8232
  21  873.3383
  22  840.7886
  23  913.2259
  24  895.3146
  25  1062.672
  26  1056.74
  27  1024.126
  28  961.1265
  29  1032.274
  30  1063.132
  31  999.5187
  32  975.9403
  33  1035.128
  34  965.1846
  35  1038.206
  36  1070.449
  37  1159.419
  38  1044.669
  39  918.2963
  40  917.2442
  41  1009.966
  42  1001.524
  43  977.177
  44  1092.119
  45  1075.017
  46  1020.223
  47  976.9233
  48  1004.398
  49  906.781
  50  956.7917
  51  948.9479
  52  898.461
  53  833.3654
  54  840.0966
  55  858.3678
  56  904.5491
  57  912.4856
  58  841.0354
  59  913.9994
  60  850.9194
  61  865.8685
  62  854.7263
  63  792.0466
  64  738.2892
  65  923.7166
  66  992.8613
  67  970.9819
  68  1033.802
  69  893.4982
  70  831.196
  71  954.2123
  72  959.38
  73  995.7849
  74  1010.365
  75  1033.497
  76  1005.911
  77  981.8058
  78  987.614
  79  985.4136
  80  1010.085
  81  860.0074
  82  796.6869
  83  954.7148
  84  926.9417
  85  976.4227
  86  939.3929
  87  1039.54
  88  931.4475
  89  957.6108
  90  1074.5
  91  1059.276
  92  1054.565
  93  1046.837
  94  1044.456
  95  987.8065
  96  956.4619
  97  918.5785
  98  866.0317
  99  1013.381
 100  1072.265
 101  1034.373
 102  1025.435
 103  983.4722
 104  1015.407
 105  1003.799
 106  936.8669
 107  1012.012
 108  1003.491
 109  997.7356
 110  1047.139
 111  1014.467
 112  996.3204
 113  942.7097
 114  914.8126
 115  906.1794
 116  884.8352
 117  954.0917
 118  970.7146
 119  1024.724
 120  1005.407
 121  973.8866
 122  978.4012
 123  953.5563
 124  926.3325
 125  876.6513
 126  902.5971
 127  951.5797
 128  873.3658
 129  855.4917
 130  855.0815
 131  803.7348
 132  765.775
 133  841.1847
 134  927.0548
 135  834.6403
 136  852.853
 137  845.9533
 138  821.1329
 139  832.4548
 140  822.4935
 141  934.8879
 142  989.9466
 143  945.3214
 144  827.9835
 145  870.7343
 146  841.7797
 147  815.1638
 148  822.4825
 149  894.2733
 150  911.3122
 151  876.6856
 152  874.1376
 153  898.5451
 154  801.525
 155  868.0511
 156  928.3216
 157  825.0944
 158  932.74
 159  903.7806
 160  910.4294
 161  938.5963
 162  955.5201
 163  1003.663
 164  1020.993
 165  1036.423
 166  883.2134
 167  944.2965
 168  1119.283
 169  1018.158
 170  925.3248
 171  1048.49
 172  1055.623
 173  989.9083
 174  991.0712
 175  931.9729
 176  1102.383
 177  1140.666
 178  1087.969
 179  969.4122
 180  930.4361
 181  1076.777
 182  987.5361
 183  907.7324
 184  922.7586
 185  1058.56
 186  1143.595
 187  1118.182
 188  948.259
 189  973.4211
 190  913.254
 191  969.3779
 192  1033.37
 193  1120.936
 194  1061.107
 195  1008.023
 196  916.2858
 197  954.7795
 198  923.5292
 199  932.4995
 200  1008.85
 201  875.4093
 202  881.0571
 203  938.2199
 204  881.2679
 205  947.3683
 206  994.3898
 207  887.3297
 208  939.092
 209  949.5151
 210  879.4846
 211  895.6707
 212  976.3726
 213  981.2334
 214  823.7363
 215  768.6128
 216  905.1019
 217  983.5378
 218  963.0353
 219  870.1629
 220  879.9121
 221  869.2026
 222  936.4169
 223  913.9669
 224  912.1741
 225  839.0968
 226  895.2161
 227  984.2841
 228  924.7665
 229  945.2872
 230  948.1068
 231  1050.227
 232  917.9604
 233  950.2728
 234  1107.203
 235  961.489
 236  897.2498
 237  855.9145
 238  932.7125
 239  1000.8
 240  973.847
 241  886.2523
 242  883.4346
 243  955.6357
 244  939.6063
 245  965.5004
 246  923.8486
 247  890.0234
 248  891.459
 249  1075.978
 250  939.3906
 251  854.4424
 252  801.7267
 253  882.4089
 254  926.1636
 255  922.9207
 256  830.3593
 257  864.6201
 258  963.9355
 259  908.192
 260  945.5991
 261  915.7922
 262  874.3099
 263  943.1848
 264  950.4461
 265  1040.869
 266  993.209
 267  912.7062
 268  788.0071
 269  763.7697
 270  999.6212
 271  1054.801
 272  988.1997
 273  920.0238
 274  940.0485
 275  955.9488
 276  862.8503
 277  855.3484
 278  817.5394
 279  853.665
 280  932.9742
 281  876.4012
 282  836.8399
 283  877.5396
 284  818.7274
 285  866.267
 286  789.4819
 287  740.6871
 288  724.5885
 289  815.3641
 290  820.3132
 291  723.2974
 292  798.7316
 293  874.3693
 294  841.9319
 295  823.8096
 296  837.1978
 297  860.4827
 298  928.6301
 299  990.951
 300  912.4907
 301  898.4467
 302  900.7111
 303  883.1055
 304  982.5106
 305  980.9245
 306  862.9271
 307  757.5954
 308  883.0567
 309  914.7737
 310  813.6981
 311  854.8894
 312  962.5766
 313  994.3068
 314  967.2396
 315  1075.949
 316  1046.456
 317  978.0463
 318  1024.508
 319  928.1694
 320  923.4329
 321  854.5099
 322  911.6896
 323  1012.24
 324  1059.102
 325  1114.66
 326  1097.428
 327  1046.37
 328  1029.8
 329  993.3337
 330  1041.117
 331  1107.649
 332  982.012
 333  983.454
 334  983.9443
 335  973.346
 336  968.3638
 337  916.2485
 338  909.5976
 339  886.1855
 340  915.4257
 341  1014.001
 342  993.7558
 343  1022.548
 344  1001.251
 345  1024.832
 346  1025.12
 347  1086.12
 348  1065.93
 349  1034.495
 350  1073.102
 351  1077.401
 352  1093.609
 353  1030.835
 354  1016.404
 355  1016.707
 356  988.2571
 357  1060.91
 358  1101.377
 359  1121.846
 360  1154.083
 361  1040.932
 362  1100.546
 363  1135.624
 364  1095.648
 365  1072.939
 366  1060.208
 367  936.6903
 368  950.6063
 369  1068.221
 370  1030.498
 371  1056.948
 372  962.2502
 373  1035.077
 374  1005.363
 375  986.8904
 376  1075.063
 377  944.7922
 378  989.1949
 379  1024.231
 380  1123.983
 381  956.6966
 382  999.3686
 383  1031.718
 384  1135.086
 385  1159.724
 386  1114.382
 387  1107.64
 388  1158.616
 389  1190.535
 390  1197.261
 391  1093.649
 392  1058.767
 393  1042.815
 394  1043.916
 395  1032.252
 396  1019.236
 397  1062.217
 398  1104.311
 399  1071.224
 400  1042.489
 401  1039.368
 402  1013.579
 403  895.7776
 404  950.7209
 405  1000.207
 406  946.9632
 407  1020.401
 408  1060.86
 409  1063.823
 410  839.715
 411  766.7731
 412  775.8085
 413  810.9415
 414  940.7696
 415  1018.929
 416  833.7679
 417  837.5036
 418  992.6538
 419  1032.643
 420  939.7321
 421  826.9632
 422  832.47
 423  891.4282
 424  876.9219
 425  875.7436
 426  995.1934
 427  1013.08
 428  1036.803
 429  967.7112
 430  978.6882
 431  879.5411
 432  842.5848
 433  931.8108
 434  945.3734
 435  929.1337
 436  959.8728
 437  921.9131
 438  858.3597
 439  881.8357
 440  930.3391
 441  987.4036
 442  1015.431
 443  958.8596
 444  945.4066
 445  1044.248
 446  1074.982
 447  1025.497
 448  957.2903
 449  949.4106
 450  938.2786
 451  989.3797
 452  985.135
 453  947.2279
 454  909.1448
 455  985.1506
 456  1051.63
 457  1076.902
 458  996.519
 459  868.9781
 460  979.8209
 461  1002.687
 462  990.9608
 463  979.2393
 464  1082.829
 465  1010.751
 466  876.76
 467  967.1237
 468  910.1805
 469  938.8206
 470  908.5547
 471  858.8021
 472  898.3234
 473  961.3859
 474  908.0542
 475  904.7846
 476  1013.587
 477  983.3601
 478  872.6107
 479  916.8468
 480  938.8348
 481  961.3608
 482  1023.642
 483  1022.791
 484  1025.636
 485  1003.365
 486  977.3822
 487  967.0826
 488  940.8032
 489  985.7192
 490  1033.283
 491  1006.504
 492  1020.97
 493  943.4631
 494  1001.363
 495  1007.214
 496  966.1733
 497  936.835
 498  942.8477
 499  923.2976
 500  959.7779
 501  892.038
 502  842.3225
 503  954.1718
 504  1018.521
 505  1086.8
 506  1056.351
 507  1113.362
 508  1135.523
 509  1148.371
 510  1318.233
 511  1293.828
