# Input file       =  1203956956.133537_cleaned.dat
# Candidate        =  PSR_0332+5434
# Telescope        =  AR
# Epoch_topo       =  58178.687212193719
# Epoch_bary       =  N/A
# T_sample         =  0.002
# Data Folded      =  7340032
# Data Avg         =  0.45425295651304 
# Data StdDev      =  8.81414289869402 
# Profile Bins     =  512
# Profile Avg      =  6512.11435213314 
# Profile StdDev   =  1055.34409231935 
# Reduced chi-sqr  =  0.662
# Prob(Noise)      <  1   (~0.0 sigma)
# P_topo (ms)      =  714.58067394411   +/- 0.000509
# P'_topo (s/s)    =  -0                +/- 2.69e-10
# P''_topo (s/s^2) =  0                 +/- 1.19e-13
# P_bary (ms)      =  N/A
# P'_bary (s/s)    =  N/A
# P''_bary (s/s^2) =  N/A
# P_orb (s)        =  N/A
# asin(i)/c (s)    =  N/A
# eccentricity     =  N/A
# w (rad)          =  N/A
# T_peri           =  N/A
######################################################
   0  7810.648
   1  7930.062
   2  7377.801
   3  7320.287
   4  7559.621
   5  7586.758
   6  7608.632
   7  6981.921
   8  6930.572
   9  7113.604
  10  7035.665
  11  7206.915
  12  7186.115
  13  6746.244
  14  6666.042
  15  6918.93
  16  6869.001
  17  6556.524
  18  6594.856
  19  6647.555
  20  6561.778
  21  6343.554
  22  6288.334
  23  6452.56
  24  6096.779
  25  6108.299
  26  6074.196
  27  5819.031
  28  5547.634
  29  6018.869
  30  6018.729
  31  6165.381
  32  6461.236
  33  6278.159
  34  6291.432
  35  6059.142
  36  5958.516
  37  5796.328
  38  5656.145
  39  6258.012
  40  6358.727
  41  6544.606
  42  6007.985
  43  5821.651
  44  5432.602
  45  5939.66
  46  6232.818
  47  6318.125
  48  6434.225
  49  6889.899
  50  7051.957
  51  6677.776
  52  6659.626
  53  6310.614
  54  6171.181
  55  6108.678
  56  6250.206
  57  5816.654
  58  5379.77
  59  5717.949
  60  6166.44
  61  5991.801
  62  6239.193
  63  6113.837
  64  6128.373
  65  5986.298
  66  6074.201
  67  6308.197
  68  6801.896
  69  6866.061
  70  6567.923
  71  6380.187
  72  6140.672
  73  6243.656
  74  6396.107
  75  6550.182
  76  6600.745
  77  6576.513
  78  6856.57
  79  6401.964
  80  6554.091
  81  6877.189
  82  6322.759
  83  6290.321
  84  6729.787
  85  6658.92
  86  6443.436
  87  6736.671
  88  6471.927
  89  6090.112
  90  6260.874
  91  5700.068
  92  5489.806
  93  5583.863
  94  5968.155
  95  5893.072
  96  5710.53
  97  5710.678
  98  5965.186
  99  5678.319
 100  5282.971
 101  5269.079
 102  5180.929
 103  5543.006
 104  5250.871
 105  5877.969
 106  5302.815
 107  5086.099
 108  5419.472
 109  5331.905
 110  5580.557
 111  5856.235
 112  6106.655
 113  5802.245
 114  5854.334
 115  5539.627
 116  5680.158
 117  6121.697
 118  6220.728
 119  5803.48
 120  5487.518
 121  5382.397
 122  5515.766
 123  5540.719
 124  5689.958
 125  5742.688
 126  5443.681
 127  5920.425
 128  6208.064
 129  6212.308
 130  5929.761
 131  5960.012
 132  5936.116
 133  6211.287
 134  6390.959
 135  6075.576
 136  6449.778
 137  7015.067
 138  6983.522
 139  6755.135
 140  6894.224
 141  6629.828
 142  6897.729
 143  7467.246
 144  7252.995
 145  7079.057
 146  6984.008
 147  6820.683
 148  6496.574
 149  6735.262
 150  6858.846
 151  6821.634
 152  6718.171
 153  6385.343
 154  6329.679
 155  7357.063
 156  7255.35
 157  7612.853
 158  7811.993
 159  8103.989
 160  7898.863
 161  7517.694
 162  7758.16
 163  7843.339
 164  7770.541
 165  7490.63
 166  7614.753
 167  7861.523
 168  7591.095
 169  7211.924
 170  6991.936
 171  6650.66
 172  6548.548
 173  6353.783
 174  6406.396
 175  6668.03
 176  6782.336
 177  6229.776
 178  6401.271
 179  6434.763
 180  6190.675
 181  6417.616
 182  6425.877
 183  6150.637
 184  6069.342
 185  6196.787
 186  5979.999
 187  5936.054
 188  5954.288
 189  5750.541
 190  5628.626
 191  5481.704
 192  5245.847
 193  5497.921
 194  5745.128
 195  5856.552
 196  5770.457
 197  5845.866
 198  5722.919
 199  5679.059
 200  5868.027
 201  5744.561
 202  5492.174
 203  6094.782
 204  6501.156
 205  5844.723
 206  5460.542
 207  5562.107
 208  5874.998
 209  5633.372
 210  5404.857
 211  5650.502
 212  5545.085
 213  5224.913
 214  5485.895
 215  5744.75
 216  6023.742
 217  5955.367
 218  5225.075
 219  5504.253
 220  6082.354
 221  6366.701
 222  6669.839
 223  6697.901
 224  6621.726
 225  6531.626
 226  6546.303
 227  6678.447
 228  6989.379
 229  7253.976
 230  7368.263
 231  6917.064
 232  6827.114
 233  6996.339
 234  7292.499
 235  7161.439
 236  7152.776
 237  6811.461
 238  6416.681
 239  6431.271
 240  6477.636
 241  6503.414
 242  6382.736
 243  6210.534
 244  6317
 245  6257.461
 246  6220.004
 247  6172.947
 248  5905.711
 249  5809.764
 250  5930.751
 251  6073.659
 252  6101.831
 253  6432.395
 254  6837.55
 255  6872.096
 256  6449.031
 257  6512.139
 258  6639.929
 259  7135.09
 260  7446.674
 261  7162.95
 262  7147.351
 263  6622.075
 264  6368.683
 265  6378.266
 266  6752.356
 267  6772.107
 268  6767.926
 269  6896.323
 270  6645.274
 271  6428.699
 272  6483.039
 273  6250.425
 274  6412.57
 275  6563.123
 276  7336.678
 277  7597.869
 278  7609.29
 279  6985.333
 280  7161.095
 281  6971.594
 282  6838.159
 283  6847.168
 284  6570.262
 285  6447.187
 286  6129.886
 287  6208.316
 288  5984.455
 289  5877.115
 290  6174.495
 291  6310.583
 292  6125.791
 293  5986.784
 294  6021.78
 295  6237.818
 296  6593.438
 297  6763.039
 298  6728.096
 299  6788.687
 300  6744.416
 301  6643.198
 302  6460.873
 303  6185.023
 304  6248.762
 305  6569.491
 306  6465.517
 307  6455.934
 308  6207.65
 309  6278.463
 310  6413.867
 311  6492.73
 312  6451.209
 313  5939.166
 314  5801.873
 315  6068.044
 316  5839.37
 317  6207.768
 318  5905.85
 319  5876.518
 320  5507.296
 321  5911.763
 322  6537.223
 323  6591.88
 324  6317.01
 325  5906.885
 326  5584.76
 327  5778.609
 328  5952.206
 329  5985.016
 330  6731.231
 331  7219.973
 332  6987.375
 333  6803.167
 334  6840.269
 335  6229.079
 336  6322.456
 337  6406.593
 338  6500.465
 339  6691.416
 340  6826.2
 341  6731.666
 342  6592.731
 343  6850.338
 344  6338.865
 345  6635.788
 346  6757.551
 347  6707.397
 348  6572.678
 349  6617.85
 350  6483.821
 351  6521.874
 352  6361.912
 353  6590.737
 354  6512.688
 355  6457.134
 356  7037.334
 357  7342.039
 358  6882.805
 359  6346.765
 360  5827.786
 361  6276.182
 362  6621.283
 363  6740.533
 364  7013.433
 365  7035.006
 366  6361.472
 367  6695.69
 368  6916.32
 369  7034.794
 370  6922.821
 371  7060.168
 372  7216.987
 373  7227.403
 374  7045.539
 375  6897.571
 376  6376.685
 377  6709.728
 378  6842.75
 379  6677.224
 380  6130.263
 381  6076.991
 382  6297.677
 383  6165.739
 384  6234.572
 385  5936.169
 386  6029.771
 387  6058.857
 388  5606.398
 389  5848.894
 390  5559.923
 391  5763.355
 392  5883.741
 393  5998.54
 394  6274.256
 395  6003.318
 396  5785.159
 397  6275.012
 398  6757.128
 399  6797.208
 400  6951.003
 401  6839.426
 402  6400.675
 403  6840.792
 404  7198.235
 405  7282.166
 406  7130.676
 407  7261.344
 408  7155.749
 409  7055.875
 410  6829.877
 411  7273.095
 412  7308.553
 413  8139.656
 414  8511.517
 415  8238.434
 416  7994.631
 417  7298.919
 418  7292.253
 419  7442.654
 420  7431.795
 421  7765.419
 422  7219.441
 423  6951.672
 424  6974.044
 425  7074.525
 426  6920.325
 427  6725.973
 428  7094.209
 429  7269.849
 430  7070.896
 431  6688.495
 432  6994.62
 433  7340.943
 434  7380.761
 435  7440.045
 436  7838.283
 437  7649.859
 438  7687.205
 439  8095.34
 440  7747.05
 441  7401.438
 442  7113.802
 443  7371.537
 444  7294.542
 445  7102.389
 446  6782.466
 447  6816.213
 448  7082.891
 449  6752.166
 450  6374.152
 451  6526.82
 452  6393.165
 453  6732.616
 454  6553.31
 455  6522.318
 456  6196.348
 457  6055.49
 458  6190.496
 459  5897.832
 460  6050.223
 461  6387.489
 462  5734.77
 463  5412.162
 464  5732.412
 465  5808.342
 466  5783.526
 467  5946.028
 468  6069.814
 469  5800.848
 470  5949.718
 471  6377.651
 472  6624.72
 473  6621.176
 474  6783.177
 475  6825.344
 476  6948.385
 477  7037.238
 478  7266.102
 479  7398.124
 480  7526.774
 481  7262.875
 482  7271.778
 483  7978.133
 484  7946.996
 485  7726.567
 486  7200.724
 487  6772.025
 488  6995.694
 489  7302.68
 490  7448.705
 491  7452.028
 492  7124.191
 493  7159.918
 494  6992.696
 495  6753.671
 496  6771.327
 497  6988.729
 498  6813.82
 499  6290.195
 500  6208.246
 501  6133.926
 502  6020.046
 503  6131.306
 504  6483.879
 505  6461.491
 506  6657.328
 507  7228.16
 508  7165.444
 509  7068.072
 510  6865.59
 511  7377.467
