# Input file       =  1203611338.104799_cleaned.dat
# Candidate        =  PSR_0332+5434
# Telescope        =  AR
# Epoch_topo       =  58174.687003527768
# Epoch_bary       =  N/A
# T_sample         =  0.002
# Data Folded      =  7340032
# Data Avg         =  0.499247069024672
# Data StdDev      =  8.13833311586249 
# Profile Bins     =  512
# Profile Avg      =  7157.19155054272 
# Profile StdDev   =  974.427335007803 
# Reduced chi-sqr  =  0.490
# Prob(Noise)      <  1   (~0.0 sigma)
# P_topo (ms)      =  714.58091737581   +/- 0.00145
# P'_topo (s/s)    =  -0                +/- 7.64e-10
# P''_topo (s/s^2) =  0                 +/- 3.37e-13
# P_bary (ms)      =  N/A
# P'_bary (s/s)    =  N/A
# P''_bary (s/s^2) =  N/A
# P_orb (s)        =  N/A
# asin(i)/c (s)    =  N/A
# eccentricity     =  N/A
# w (rad)          =  N/A
# T_peri           =  N/A
######################################################
   0  7659.372
   1  8032.214
   2  7678.804
   3  7402.355
   4  7321.73
   5  7111.007
   6  7081.051
   7  7526.966
   8  7478.097
   9  7387.768
  10  7431.65
  11  7891.163
  12  7849.103
  13  7151.983
  14  7190.589
  15  7499.45
  16  7373.993
  17  7466.245
  18  7896.948
  19  7441.145
  20  7157.687
  21  7268.561
  22  7329.156
  23  7813.627
  24  7718.718
  25  7709.371
  26  7265.06
  27  6797.302
  28  6676.489
  29  6836.312
  30  7043.296
  31  7019.521
  32  6840.708
  33  6564.018
  34  6297.742
  35  6244.917
  36  6394.727
  37  6741.748
  38  7037.125
  39  7084.242
  40  6878.707
  41  6522.384
  42  6699.201
  43  6523.767
  44  6352.735
  45  6613.289
  46  6739.381
  47  6735.366
  48  6883.545
  49  6336.195
  50  6512.337
  51  7004.535
  52  7149.456
  53  7112.158
  54  7115.388
  55  7491.44
  56  7566.512
  57  7322.094
  58  6661.14
  59  6385.396
  60  6514.058
  61  6941.697
  62  6677.583
  63  6724.605
  64  6770.655
  65  7282.717
  66  7239.176
  67  7174.74
  68  6995.413
  69  7054.449
  70  6800.18
  71  6891.629
  72  7486.738
  73  7818.037
  74  7708.184
  75  6884.128
  76  6716.667
  77  6389.474
  78  6491.512
  79  6689.49
  80  6935.761
  81  6645.482
  82  6893.439
  83  7228.914
  84  7429.038
  85  7642.208
  86  8184.637
  87  8528.228
  88  8307.367
  89  8363.282
  90  8256.25
  91  8023.794
  92  7694.732
  93  6902.242
  94  7272.815
  95  7226.44
  96  7223.28
  97  7425.614
  98  7322.09
  99  7123.554
 100  7261.048
 101  7155.281
 102  7248.831
 103  7236.91
 104  6987.674
 105  6829.968
 106  7211.829
 107  7211.966
 108  7189.686
 109  6906.062
 110  6734.328
 111  6562.098
 112  6870.654
 113  7166.951
 114  7169.764
 115  7045.107
 116  6755.192
 117  6415.27
 118  6421.182
 119  6697.954
 120  6625.774
 121  6639.24
 122  6946.77
 123  7183.485
 124  7301.92
 125  7730.224
 126  7751.033
 127  7849.153
 128  8179.733
 129  8474.497
 130  7945.148
 131  7608.336
 132  7632.988
 133  7730.447
 134  7340.759
 135  7584.897
 136  7795.145
 137  7958.452
 138  8176.615
 139  7521.73
 140  6838.861
 141  7118.313
 142  7127.892
 143  7337.577
 144  7487.941
 145  7238.372
 146  7064.479
 147  7072.618
 148  6869.151
 149  7232.2
 150  7584.223
 151  8143.407
 152  7871.74
 153  7212.127
 154  7124.918
 155  7201.581
 156  7113.78
 157  7282.489
 158  7078.468
 159  7179.435
 160  7246.67
 161  6863.369
 162  7187.992
 163  6791.445
 164  6776.938
 165  6865.59
 166  6796.606
 167  6666.013
 168  7062.589
 169  6905.547
 170  6947.179
 171  7336.073
 172  7148.853
 173  6823.4
 174  6611.428
 175  6204.473
 176  5755.957
 177  6141.021
 178  6439.429
 179  6838.511
 180  6644.231
 181  6481.992
 182  6740.925
 183  6443.805
 184  5972.129
 185  6029.523
 186  6321.726
 187  6861.67
 188  7113.429
 189  7418.617
 190  7457.538
 191  6964.267
 192  6657.676
 193  7076.804
 194  6862.701
 195  6644.914
 196  7124.519
 197  6923.731
 198  6542.949
 199  6097.561
 200  6507.098
 201  6494.787
 202  6467.573
 203  6602.695
 204  6728.131
 205  6824.947
 206  6757.113
 207  6960.5
 208  7272.596
 209  7514.98
 210  7468.475
 211  7460.263
 212  7483.368
 213  7232.356
 214  7512.272
 215  7395.571
 216  7363.214
 217  7363.214
 218  6825.513
 219  7225.564
 220  7459.829
 221  7449.559
 222  7090.927
 223  7064.459
 224  7187.177
 225  6921.655
 226  7022.506
 227  7064.245
 228  6950.608
 229  7036.838
 230  6992.855
 231  7006.882
 232  6967.653
 233  7279.15
 234  7846.494
 235  7661.323
 236  7294.623
 237  7419.922
 238  7663.043
 239  7444.375
 240  7226.526
 241  7380.17
 242  7450.023
 243  7571.128
 244  7450.946
 245  6975.209
 246  7000.234
 247  7408.798
 248  7418.743
 249  7268.479
 250  7061.081
 251  7211.884
 252  7229.029
 253  7616.69
 254  7516.222
 255  7330.813
 256  7236.988
 257  7360.211
 258  7180.803
 259  7137.284
 260  7557.516
 261  7072.995
 262  7208.612
 263  7286.069
 264  7073.277
 265  6639.365
 266  6714.998
 267  6957.383
 268  7251.698
 269  7018.01
 270  7295.095
 271  6892.765
 272  7014.868
 273  7624.272
 274  7348.566
 275  7342.323
 276  7510.262
 277  7078.263
 278  6837.988
 279  6591.393
 280  6504.856
 281  6765.284
 282  6779.878
 283  7012.788
 284  6725.655
 285  6599.743
 286  6888.638
 287  6884.306
 288  7043.575
 289  7005.777
 290  6862.182
 291  7177.173
 292  7338.63
 293  7256.773
 294  6934.764
 295  7057.24
 296  7102.521
 297  7411.452
 298  7314.28
 299  7028.626
 300  6792.015
 301  7039.358
 302  7374.89
 303  7045.857
 304  7016.523
 305  7169
 306  6957.945
 307  7351.969
 308  7173.007
 309  7209.035
 310  7684.512
 311  7574.941
 312  7628.093
 313  7913.657
 314  7766.723
 315  7368.016
 316  7225.3
 317  7539.427
 318  7500.772
 319  6907.806
 320  6879.08
 321  6796.911
 322  6802.662
 323  7261.924
 324  7348.866
 325  7013.969
 326  6872.919
 327  6664.73
 328  6797.791
 329  6631.268
 330  6949.671
 331  7015.358
 332  6627.874
 333  6617.121
 334  6470.371
 335  6543.119
 336  6321.09
 337  6206.566
 338  6164.539
 339  5748.409
 340  5764.263
 341  6118.236
 342  6374.621
 343  6174.632
 344  6055.72
 345  6162.307
 346  6377.819
 347  6647.6
 348  6548.143
 349  7172.549
 350  7148.118
 351  6952.587
 352  6951.892
 353  6590.294
 354  6970.193
 355  7032.224
 356  6793.783
 357  6581.186
 358  6843.419
 359  6933.216
 360  6656.736
 361  6541.144
 362  6580.195
 363  6571.348
 364  6457.188
 365  6389.224
 366  6772.27
 367  6690.451
 368  6676.086
 369  6696.448
 370  6524.8
 371  6455.963
 372  6366.967
 373  6473.909
 374  6618.749
 375  6618.882
 376  6949.82
 377  6977.946
 378  7280.688
 379  6836.557
 380  6494.071
 381  6414.043
 382  6765.49
 383  6783.199
 384  7154.503
 385  6800.929
 386  7080.251
 387  7180.65
 388  7030.258
 389  7104.418
 390  6816.259
 391  6414.842
 392  6652.045
 393  7157.538
 394  7132.415
 395  6956.836
 396  6955.71
 397  6566.304
 398  6567.606
 399  6927.817
 400  6890.636
 401  6989.501
 402  7186.229
 403  7750.448
 404  7486.269
 405  6907.756
 406  7018.854
 407  6705.672
 408  7006.482
 409  7210.215
 410  7123.529
 411  7082.581
 412  6665.292
 413  6540.027
 414  6432.602
 415  6642.511
 416  7023.301
 417  6851.445
 418  7124.473
 419  7190.12
 420  7135.295
 421  7182.57
 422  7056.536
 423  6947.058
 424  7250.326
 425  7512.194
 426  7542.023
 427  7285.271
 428  7547.433
 429  7347.011
 430  7594.529
 431  7452.897
 432  7578.48
 433  7556.538
 434  7508.352
 435  7590.671
 436  7666.167
 437  7671.829
 438  7669.47
 439  7281.315
 440  7538.103
 441  7681.876
 442  7565.802
 443  7427.142
 444  7355.1
 445  7798.012
 446  7434.469
 447  7636.995
 448  7750.631
 449  7727.799
 450  8082.556
 451  7926.573
 452  7818.68
 453  7641.727
 454  7769.787
 455  7894.968
 456  7551.677
 457  7455.603
 458  7425.393
 459  7259.749
 460  7505.607
 461  7263.074
 462  7562.073
 463  7465.625
 464  7291.417
 465  7236.572
 466  7338.732
 467  6970.243
 468  6875.62
 469  7372.771
 470  7707.02
 471  7588.697
 472  8036.209
 473  8408.277
 474  8129.068
 475  7947.003
 476  7790.809
 477  8099.426
 478  8239.236
 479  8316.797
 480  7686.829
 481  7884.614
 482  7833.884
 483  8292.051
 484  8426.58
 485  8553.351
 486  8318.454
 487  7888.726
 488  7924.73
 489  8074.617
 490  8364.319
 491  8370.964
 492  7941.633
 493  7817.218
 494  7885.913
 495  7942.901
 496  7449.59
 497  7541.091
 498  7697.232
 499  7865.822
 500  7985.542
 501  7797.242
 502  7392.012
 503  7057.809
 504  7301.482
 505  7784.809
 506  7655.24
 507  7599.074
 508  7578.521
 509  7788.96
 510  7854.346
 511  8033.016
