# Input file       =  1203414632.110324_cleaned.dat
# Candidate        =  PSR_0332+5434
# Telescope        =  AR
# Epoch_topo       =  58172.410313776898
# Epoch_bary       =  N/A
# T_sample         =  0.002
# Data Folded      =  7208960
# Data Avg         =  0.479135544990738
# Data StdDev      =  5.72910939577847 
# Profile Bins     =  512
# Profile Avg      =  6745.86413344301 
# Profile StdDev   =  679.811398934045 
# Reduced chi-sqr  =  1.044
# Prob(Noise)      <  0.236   (~0.7 sigma)
# P_topo (ms)      =  714.580719632067  +/- 5.73e-05
# P'_topo (s/s)    =  -0                +/- 3.08e-11
# P''_topo (s/s^2) =  0                 +/- 1.38e-14
# P_bary (ms)      =  N/A
# P'_bary (s/s)    =  N/A
# P''_bary (s/s^2) =  N/A
# P_orb (s)        =  N/A
# asin(i)/c (s)    =  N/A
# eccentricity     =  N/A
# w (rad)          =  N/A
# T_peri           =  N/A
######################################################
   0  6956.266
   1  7130.209
   2  7211.148
   3  6828.725
   4  6523.898
   5  6538.992
   6  6743.596
   7  7015.766
   8  6836.015
   9  6735.294
  10  6780.061
  11  6999.867
  12  7211.747
  13  7410.172
  14  6777.888
  15  6823.559
  16  6914.809
  17  6760.653
  18  6973.171
  19  7099.417
  20  7671.613
  21  7491.922
  22  6924.269
  23  6316.129
  24  5690.616
  25  5786.586
  26  6211.225
  27  6964.509
  28  7045.235
  29  7249.349
  30  7230.872
  31  6871.368
  32  6712.754
  33  6542.65
  34  6752.091
  35  6803.329
  36  6276.699
  37  6862.813
  38  7121.375
  39  7105.817
  40  6505.046
  41  6755.239
  42  6665.907
  43  6184.809
  44  6376.626
  45  6829.933
  46  7196.025
  47  7048.653
  48  6627.365
  49  6492.856
  50  6462.39
  51  6862.731
  52  6683.361
  53  6759.514
  54  6798.674
  55  6404.118
  56  5947.729
  57  5762.455
  58  6071.26
  59  6231.245
  60  6692.581
  61  6783.481
  62  7078.716
  63  6703.813
  64  6374.188
  65  6263.273
  66  5932.78
  67  6134.082
  68  6240.716
  69  6206.702
  70  6855.441
  71  7239.062
  72  6254.705
  73  5666.736
  74  5930.852
  75  5842.988
  76  5770.231
  77  6219.467
  78  6550.202
  79  6690.058
  80  6281.605
  81  6062.653
  82  5960.963
  83  6264.146
  84  6304.37
  85  6431.105
  86  6628.037
  87  6318.04
  88  5959.301
  89  5409.194
  90  5396.794
  91  5783.214
  92  6302.988
  93  6290.197
  94  6446.334
  95  6861.773
  96  6424.985
  97  6538.249
  98  6171.737
  99  5877.631
 100  6182.898
 101  6151.812
 102  6106.279
 103  6454.452
 104  6874.771
 105  6593.321
 106  6251.172
 107  6317.414
 108  6306.833
 109  6436.55
 110  6844.879
 111  6627.23
 112  6743.391
 113  6291.624
 114  5820.445
 115  6018.943
 116  6145.323
 117  6417.14
 118  6585.474
 119  6816.206
 120  6409.314
 121  6620.738
 122  6389.406
 123  6076.574
 124  6533.734
 125  6905.517
 126  7148.01
 127  6950.628
 128  7206.374
 129  6810.992
 130  6073.698
 131  6000.832
 132  6143.104
 133  6221.678
 134  5979.899
 135  6520.524
 136  6941.196
 137  7182.934
 138  6692.55
 139  6396.464
 140  6327.129
 141  6330.563
 142  6730.987
 143  6860.515
 144  7318.63
 145  7073.264
 146  6870.101
 147  7059.241
 148  7183.573
 149  7127.383
 150  6842.105
 151  6403.316
 152  6265.464
 153  6276.278
 154  6160.75
 155  6244.86
 156  6393.079
 157  6366.551
 158  6595.795
 159  6417.008
 160  6388.04
 161  7163.311
 162  7077.117
 163  6599.523
 164  6292.449
 165  6704.954
 166  6731.219
 167  6611.633
 168  6715.814
 169  7205.448
 170  7059.534
 171  6617.897
 172  6154.334
 173  5792.219
 174  5837.427
 175  6253.238
 176  6817.418
 177  6948.151
 178  7171.876
 179  6904.615
 180  6717.82
 181  6686.566
 182  6872.895
 183  6780.304
 184  6526.104
 185  6067.269
 186  6171.813
 187  6395.767
 188  6296.442
 189  6149.707
 190  6526.421
 191  6331.298
 192  6418.112
 193  6622.94
 194  6896.905
 195  7006.465
 196  6762.878
 197  6559.107
 198  6002.252
 199  5784.224
 200  6361.542
 201  7156.207
 202  7735.141
 203  7096.859
 204  6404.131
 205  5783.387
 206  5751.833
 207  6086.512
 208  6695.831
 209  7221.778
 210  7659.485
 211  7607.806
 212  7161.614
 213  6613.925
 214  6899.448
 215  6591.04
 216  6440.284
 217  6473.112
 218  6106.347
 219  6440.725
 220  6684.109
 221  6191.794
 222  6317.835
 223  6353.812
 224  6396.846
 225  6129.17
 226  6328.068
 227  6620.209
 228  6500.649
 229  6249.544
 230  6309.416
 231  6243.135
 232  6436.357
 233  6741.942
 234  6956.579
 235  6885.466
 236  6710.047
 237  6241.6
 238  6052.016
 239  5844.62
 240  6319.248
 241  6647.194
 242  6744.645
 243  7048.807
 244  7361.752
 245  6689.337
 246  6538.772
 247  6696.078
 248  6869.551
 249  6347.74
 250  6146.164
 251  6206.295
 252  6796.24
 253  7340.299
 254  7096.731
 255  6636.286
 256  6560.278
 257  6928.609
 258  6531.37
 259  6720.235
 260  7119.141
 261  7531.373
 262  6807.084
 263  6527.046
 264  6670.582
 265  6790.747
 266  6898.773
 267  6850.02
 268  7081.074
 269  6783.628
 270  6529.822
 271  6462.492
 272  6590.298
 273  6655.339
 274  6952.654
 275  7213.111
 276  7385.586
 277  7614.61
 278  7975.402
 279  7432.129
 280  7003.051
 281  6910.971
 282  7208.513
 283  6989.343
 284  7248.033
 285  7979.075
 286  7830.266
 287  7105.492
 288  6959.698
 289  7029.131
 290  7084.288
 291  7333.045
 292  7574.708
 293  7945.058
 294  7923.454
 295  7552.489
 296  7438.88
 297  7423.005
 298  7636.216
 299  7380.151
 300  7031.218
 301  7277.855
 302  7429.188
 303  7539.558
 304  7069.445
 305  6846.52
 306  7325.617
 307  7200.352
 308  7324.588
 309  7923.232
 310  8099.782
 311  7550.828
 312  7094.177
 313  6628.279
 314  6244.964
 315  6936.075
 316  7259.689
 317  7604.313
 318  7695.243
 319  7873.061
 320  7102.752
 321  7010.667
 322  6768.645
 323  6865.638
 324  7136.85
 325  7333.046
 326  7652.939
 327  7778.786
 328  7348.779
 329  7189.119
 330  7043.662
 331  6849.941
 332  6746.215
 333  6596.485
 334  6489.441
 335  6420.386
 336  6146.008
 337  6413.704
 338  6853.48
 339  6806.279
 340  6831.597
 341  7389.426
 342  7467.154
 343  7447.218
 344  7550.111
 345  6993.828
 346  6725.224
 347  6827.79
 348  6741.293
 349  6954.436
 350  7002.594
 351  7503.882
 352  6779.426
 353  6472.028
 354  6045.881
 355  5860.122
 356  6060.597
 357  6807.237
 358  7166.042
 359  7853.499
 360  7549.316
 361  6896.452
 362  6683.581
 363  7293.211
 364  7592.023
 365  7153.958
 366  6406.084
 367  6582.125
 368  6811.177
 369  6819.534
 370  6529.488
 371  7002.341
 372  6751.487
 373  6680.431
 374  6908.701
 375  7144.698
 376  7398.6
 377  7458.257
 378  7432.449
 379  7012.61
 380  6745.798
 381  6752.958
 382  6670.19
 383  7380.582
 384  7503.133
 385  7503.746
 386  7191.944
 387  6566.833
 388  6410.378
 389  7055.046
 390  7554.131
 391  8290.658
 392  8736.842
 393  8909.946
 394  8139.402
 395  7806.929
 396  7235.769
 397  6799.32
 398  6403.688
 399  6310.579
 400  6454.374
 401  7025.85
 402  7110.717
 403  6911.172
 404  6378.475
 405  6467.507
 406  6446.141
 407  6443.171
 408  6564.365
 409  6603.744
 410  6805.98
 411  6676.869
 412  6534.014
 413  6614.993
 414  6651.936
 415  6819.042
 416  6669.619
 417  6741.852
 418  6570.733
 419  5794.057
 420  5568.519
 421  6134.646
 422  6659.78
 423  6281.931
 424  6930.034
 425  7402.703
 426  7443.101
 427  7292.627
 428  6531.573
 429  6081.842
 430  6377.815
 431  6456.466
 432  6445.778
 433  6760.437
 434  7063.119
 435  7034.59
 436  6312.995
 437  6020.584
 438  5885.596
 439  6273.43
 440  6616.586
 441  7117.892
 442  7581.073
 443  7425.72
 444  6945.822
 445  6928.324
 446  6794.897
 447  6816.514
 448  7176.102
 449  6757.721
 450  6675.962
 451  6563.743
 452  6030.466
 453  5876.385
 454  6509.797
 455  6538.017
 456  6512.795
 457  6481.066
 458  6977.632
 459  7263.777
 460  7375.198
 461  6824.74
 462  6781.941
 463  6988.728
 464  6556.4
 465  6227.544
 466  6869.916
 467  7079.97
 468  7165.135
 469  6877.981
 470  6787.47
 471  6354.047
 472  6276.664
 473  6533.61
 474  6622.024
 475  7201.787
 476  7173.711
 477  6958.401
 478  6864.765
 479  7136.612
 480  7451.225
 481  7226.354
 482  6754.925
 483  6402.598
 484  6294.811
 485  6134.348
 486  6526.113
 487  6747.609
 488  6710.817
 489  6516.959
 490  6824.092
 491  6965.905
 492  6954.265
 493  6124.284
 494  6189.407
 495  6025.325
 496  6315.861
 497  6700.733
 498  6957.19
 499  6759.351
 500  7285.427
 501  6651.617
 502  6271.732
 503  6063.427
 504  6151.715
 505  6715.011
 506  6745.673
 507  7384.722
 508  7494.415
 509  7450.288
 510  7154.487
 511  6880.2
