# Input file       =  1203931188.137021_cleaned.dat
# Candidate        =  PSR_0332+5434
# Telescope        =  AR
# Epoch_topo       =  58178.388971493303
# Epoch_bary       =  N/A
# T_sample         =  0.002
# Data Folded      =  7274496
# Data Avg         =  0.0831664899135389
# Data StdDev      =  0.999977709949656
# Profile Bins     =  512
# Profile Avg      =  1181.62746261083 
# Profile StdDev   =  119.19465849185  
# Reduced chi-sqr  =  1.538
# Prob(Noise)      <  5.51e-14   (~7.4 sigma)
# P_topo (ms)      =  714.580455345387  +/- 2.11e-05
# P'_topo (s/s)    =  -0                +/- 1.12e-11
# P''_topo (s/s^2) =  0                 +/- 5e-15
# P_bary (ms)      =  N/A
# P'_bary (s/s)    =  N/A
# P''_bary (s/s^2) =  N/A
# P_orb (s)        =  N/A
# asin(i)/c (s)    =  N/A
# eccentricity     =  N/A
# w (rad)          =  N/A
# T_peri           =  N/A
######################################################
   0  1285.029
   1  1334.45
   2  1486.606
   3  1406.666
   4  1263.125
   5  1155.347
   6  1208.097
   7  1275.894
   8  1134.297
   9  1121.179
  10  1274.119
  11  1280.076
  12  1103.006
  13  1049.585
  14  1105.923
  15  1187.841
  16  1157.854
  17  1135.527
  18  1254.413
  19  1358.784
  20  1351.58
  21  1321.739
  22  1284.934
  23  1304.126
  24  1264.905
  25  1145.151
  26  1269.585
  27  1280.392
  28  1198.102
  29  1074.201
  30  1033.594
  31  1139.869
  32  1143.752
  33  1145.776
  34  1210.965
  35  1306.917
  36  1275.991
  37  1184.896
  38  1216.496
  39  1323.2
  40  1446.335
  41  1333.138
  42  1202.974
  43  1323.261
  44  1316.442
  45  1146.296
  46  1014.28
  47  1056.557
  48  1195.931
  49  1118.911
  50  1141.669
  51  1298.491
  52  1352.811
  53  1369.423
  54  1229.41
  55  1229.969
  56  1314.562
  57  1303.753
  58  1219.852
  59  1213.982
  60  1315.891
  61  1177.215
  62  974.5495
  63  982.8371
  64  1055.489
  65  1155.983
  66  1130.127
  67  1117.798
  68  1325.188
  69  1341.84
  70  1280.04
  71  1144.192
  72  1204.42
  73  1264.245
  74  1192.86
  75  1221.982
  76  1267.586
  77  1294.821
  78  1075.283
  79  966.5582
  80  1065.7
  81  1113.067
  82  1119.248
  83  1130.877
  84  1197.621
  85  1342.659
  86  1297.413
  87  1178.815
  88  1165.156
  89  1329.902
  90  1283.617
  91  1119.917
  92  1134.64
  93  1254.571
  94  1188.861
  95  1073.577
  96  980.7267
  97  1120.367
  98  1228.602
  99  1113.895
 100  1148.99
 101  1240.573
 102  1356.301
 103  1220.148
 104  1182.056
 105  1204.049
 106  1247.29
 107  1192.896
 108  1143.072
 109  1196.798
 110  1190.248
 111  1117.386
 112  1051.93
 113  1026.879
 114  1182.116
 115  1184.827
 116  1174.044
 117  1224.27
 118  1297.781
 119  1318.151
 120  1252.741
 121  1220.427
 122  1201.894
 123  1214.878
 124  1169.565
 125  1100.469
 126  1208.609
 127  1147.588
 128  1005.4
 129  967.3253
 130  1027.752
 131  1168.252
 132  1092.487
 133  1146.401
 134  1259.56
 135  1290.808
 136  1227.804
 137  1064.884
 138  1154.882
 139  1303.747
 140  1208.118
 141  1108.682
 142  1172.07
 143  1278.093
 144  1091.86
 145  847.0782
 146  922.9208
 147  1062.557
 148  1208.593
 149  1175.223
 150  1204.362
 151  1337.998
 152  1299.76
 153  1255.995
 154  1162.289
 155  1174.418
 156  1205.182
 157  1106.195
 158  1093.86
 159  1158.799
 160  1119.552
 161  965.9838
 162  892.4363
 163  1016.491
 164  1049.232
 165  1057.877
 166  1077.768
 167  1167.356
 168  1346.965
 169  1210.643
 170  1113.82
 171  1165.305
 172  1249.831
 173  1114.04
 174  1029.182
 175  1143.575
 176  1209.628
 177  1187.633
 178  987.3487
 179  1011.655
 180  1101.362
 181  1171.887
 182  1155.093
 183  1163.499
 184  1253.715
 185  1266.654
 186  1219.827
 187  1216.507
 188  1237.059
 189  1284.81
 190  1273.473
 191  1152.322
 192  1257.299
 193  1182.683
 194  1079.068
 195  944.5684
 196  1029.502
 197  1075.262
 198  1050.42
 199  1108.805
 200  1258.8
 201  1319.209
 202  1210.24
 203  1209.175
 204  1269.881
 205  1271.073
 206  1197.885
 207  1099.461
 208  1122.072
 209  1129.351
 210  1106.96
 211  902.5354
 212  985.1035
 213  1134.92
 214  1194.56
 215  1061.277
 216  1078.507
 217  1229.337
 218  1120.303
 219  1089.085
 220  1148.062
 221  1300.254
 222  1393.584
 223  1146.322
 224  1154.363
 225  1227.77
 226  1159.538
 227  961.7571
 228  895.5095
 229  1062.324
 230  1115.123
 231  1103.706
 232  1156.008
 233  1316.289
 234  1348.823
 235  1189.918
 236  1041.092
 237  1187.339
 238  1350.24
 239  1237.507
 240  1029.369
 241  1138.975
 242  1257.857
 243  1179.807
 244  988.5336
 245  1046.494
 246  1228.057
 247  1091.302
 248  1096.32
 249  1182.484
 250  1314.837
 251  1333.89
 252  1127.713
 253  1093.991
 254  1121.143
 255  1170.454
 256  1096.044
 257  1180.027
 258  1193.532
 259  1147.447
 260  1025.608
 261  837.5707
 262  930.5687
 263  1025.406
 264  1101.495
 265  1176.805
 266  1292.963
 267  1325.617
 268  1257.939
 269  1215.794
 270  1188.416
 271  1223.891
 272  1251.005
 273  1093.271
 274  1129.036
 275  1289.878
 276  1223.936
 277  1015.173
 278  1087.933
 279  1181.617
 280  1152.791
 281  1079.882
 282  1098.026
 283  1358.185
 284  1362.147
 285  1252.649
 286  1251.667
 287  1379.551
 288  1346.306
 289  1241.93
 290  1187.992
 291  1251.73
 292  1262.567
 293  1027.006
 294  991.4
 295  1059.636
 296  1148.231
 297  1225.12
 298  1217.441
 299  1329.605
 300  1363.007
 301  1266.544
 302  1245.27
 303  1258.435
 304  1357.386
 305  1321.164
 306  1197.717
 307  1168.624
 308  1353.238
 309  1207.799
 310  1012.127
 311  1039.863
 312  1070.205
 313  1116.25
 314  1067.63
 315  1168.644
 316  1269.411
 317  1271.011
 318  1199.109
 319  1165.313
 320  1311.365
 321  1308.371
 322  1171.282
 323  1173.84
 324  1272.501
 325  1177.638
 326  1014.552
 327  884.4921
 328  1035.479
 329  1173.007
 330  1146.793
 331  1173.189
 332  1280.312
 333  1366.967
 334  1258.545
 335  1178.857
 336  1236.17
 337  1226.556
 338  1213.967
 339  1138.924
 340  1221.12
 341  1282.372
 342  1195.148
 343  1016.344
 344  999.2133
 345  1143.32
 346  1108.395
 347  1190.403
 348  1237.24
 349  1320.349
 350  1325.95
 351  1197.98
 352  1216.197
 353  1320.517
 354  1283.229
 355  1196.845
 356  1196.257
 357  1271.216
 358  1207.239
 359  1045.653
 360  924.2441
 361  1079.004
 362  1106.829
 363  1071.098
 364  1123.315
 365  1205.083
 366  1218.642
 367  1244.409
 368  1208.694
 369  1220.802
 370  1354.866
 371  1266.834
 372  1156.962
 373  1168.667
 374  1230.899
 375  1165.3
 376  967.8677
 377  978.1871
 378  1050.409
 379  1167.406
 380  1154.285
 381  1151.928
 382  1356.678
 383  1379.37
 384  1266.596
 385  1203.92
 386  1314.614
 387  1303.437
 388  1243.282
 389  1141.084
 390  1187.335
 391  1216.102
 392  1073.088
 393  988.0298
 394  1051.288
 395  1120.488
 396  1122.088
 397  1200.306
 398  1255.822
 399  1321.378
 400  1316.078
 401  1217.731
 402  1246.522
 403  1266.182
 404  1175.007
 405  1088.617
 406  1131.076
 407  1243.112
 408  1048.143
 409  943.29
 410  944.8746
 411  1088.777
 412  1145.418
 413  1150.781
 414  1210.924
 415  1308.48
 416  1322.405
 417  1177.437
 418  1104.983
 419  1254.499
 420  1307.734
 421  1254.393
 422  1141.186
 423  1321.498
 424  1307.391
 425  1059.587
 426  915.9935
 427  995.6852
 428  1141.081
 429  1111.14
 430  1042.255
 431  1161.859
 432  1321.042
 433  1324.021
 434  1249.824
 435  1212.244
 436  1259.479
 437  1270.63
 438  1065.05
 439  1155.443
 440  1289.486
 441  1183.895
 442  1090.223
 443  1025.541
 444  1115.1
 445  1199.251
 446  1188.921
 447  1212.377
 448  1379.676
 449  1345.394
 450  1253.643
 451  1210.546
 452  1292.21
 453  1365.35
 454  1256.626
 455  1217.004
 456  1264.762
 457  1273.677
 458  1220.243
 459  980.1266
 460  1061.536
 461  1194.234
 462  1144.465
 463  1082.764
 464  1192.135
 465  1384.141
 466  1281.685
 467  1193.769
 468  1251.094
 469  1271.495
 470  1269.427
 471  1143.367
 472  1217.094
 473  1221.67
 474  1053.164
 475  973.8464
 476  982.9775
 477  1148.927
 478  1247.792
 479  1174.624
 480  1124.838
 481  1259.345
 482  1267.092
 483  1145.906
 484  1101.11
 485  1267.219
 486  1306.273
 487  1217.347
 488  1133.561
 489  1249.145
 490  1284.667
 491  1176.124
 492  992.8258
 493  1025.862
 494  1135.013
 495  1127.48
 496  1112.654
 497  1258.315
 498  1297.179
 499  1265.333
 500  1156.372
 501  1176.743
 502  1280.043
 503  1193.195
 504  1234.354
 505  1264.703
 506  1349.858
 507  1267.281
 508  1145.269
 509  1137.083
 510  1143.723
 511  1293.077
