# Input file       =  1203328409.099087_cleaned.dat
# Candidate        =  PSR_0332+5434
# Telescope        =  AR
# Epoch_topo       =  58171.412362257950
# Epoch_bary       =  N/A
# T_sample         =  0.002
# Data Folded      =  7208960
# Data Avg         =  0.0942021439975136
# Data StdDev      =  1.00023743866652 
# Profile Bins     =  512
# Profile Avg      =  1326.42323681759 
# Profile StdDev   =  118.687350070001 
# Reduced chi-sqr  =  2.040
# Prob(Noise)      <  1.21e-38   (~12.9 sigma)
# P_topo (ms)      =  714.580702931407  +/- 4.74e-05
# P'_topo (s/s)    =  -0                +/- 2.54e-11
# P''_topo (s/s^2) =  0                 +/- 1.14e-14
# P_bary (ms)      =  N/A
# P'_bary (s/s)    =  N/A
# P''_bary (s/s^2) =  N/A
# P_orb (s)        =  N/A
# asin(i)/c (s)    =  N/A
# eccentricity     =  N/A
# w (rad)          =  N/A
# T_peri           =  N/A
######################################################
   0  1811.907
   1  1676.876
   2  1550.23
   3  1396.93
   4  1419.183
   5  1497.997
   6  1391.782
   7  1296.441
   8  1332.281
   9  1214.519
  10  1306.255
  11  1384.282
  12  1344.404
  13  1480.565
  14  1578.285
  15  1492.338
  16  1387.988
  17  1399.15
  18  1277.794
  19  1214.119
  20  1291.984
  21  1267.577
  22  1314.653
  23  1301.116
  24  1200.754
  25  1140.42
  26  1076.864
  27  1144.845
  28  1214.129
  29  1253.551
  30  1346.101
  31  1403.28
  32  1370.317
  33  1294.651
  34  1169.464
  35  1233.543
  36  1284.484
  37  1271.953
  38  1376.619
  39  1384.729
  40  1319.393
  41  1203.005
  42  1147.656
  43  1165.504
  44  1196.785
  45  1132.041
  46  1274.664
  47  1288.966
  48  1196.853
  49  1292.534
  50  1279.661
  51  1240.388
  52  1118.132
  53  1133.872
  54  1226.075
  55  1249.923
  56  1347.891
  57  1352.436
  58  1197.953
  59  1199.004
  60  1248.11
  61  1163.718
  62  1162.01
  63  1379.801
  64  1444.613
  65  1377.297
  66  1231.097
  67  1339.63
  68  1355.361
  69  1236.552
  70  1143.151
  71  1141.408
  72  1233.142
  73  1191.66
  74  1177.599
  75  1239.325
  76  1209.16
  77  1213.967
  78  1163.723
  79  1195.482
  80  1333.807
  81  1300.497
  82  1237.644
  83  1262.326
  84  1171.453
  85  1247.152
  86  1180.69
  87  1215.44
  88  1300.633
  89  1215.577
  90  1222.148
  91  1233.89
  92  1233.915
  93  1185.56
  94  1193.229
  95  1229.289
  96  1283.369
  97  1288.771
  98  1170.428
  99  1125.507
 100  1159.478
 101  1179.486
 102  1100.993
 103  1050.786
 104  1205.862
 105  1230.127
 106  1110.437
 107  1147.921
 108  1162.901
 109  1238.798
 110  1195.185
 111  1295.524
 112  1457.101
 113  1534.534
 114  1360.591
 115  1247.618
 116  1195.467
 117  1286.982
 118  1319.783
 119  1223.284
 120  1388.649
 121  1335.049
 122  1313.303
 123  1308.606
 124  1200.572
 125  1220.907
 126  1226.294
 127  1355.349
 128  1307.11
 129  1356.511
 130  1530.318
 131  1449.699
 132  1284.102
 133  1272.815
 134  1309.952
 135  1335.516
 136  1214.266
 137  1273.911
 138  1315.004
 139  1247.275
 140  1230.541
 141  1212.901
 142  1143.292
 143  1204.67
 144  1299.244
 145  1390.308
 146  1341.92
 147  1279.74
 148  1319.461
 149  1258.105
 150  1281.102
 151  1180.779
 152  1285.804
 153  1360.67
 154  1358.492
 155  1393.579
 156  1363.708
 157  1265.162
 158  1240.542
 159  1280.866
 160  1220.572
 161  1334.048
 162  1409.07
 163  1471.078
 164  1403.181
 165  1270.83
 166  1211.048
 167  1284.103
 168  1302.953
 169  1302.125
 170  1328.243
 171  1353.249
 172  1272.368
 173  1261.242
 174  1245.535
 175  1277.405
 176  1276.874
 177  1322.645
 178  1391.858
 179  1430.061
 180  1483.783
 181  1419.81
 182  1352.126
 183  1344.158
 184  1301.648
 185  1317.597
 186  1379.807
 187  1303.071
 188  1304.026
 189  1174.48
 190  1178.798
 191  1390.131
 192  1435.745
 193  1411.07
 194  1516.508
 195  1477.722
 196  1456.539
 197  1335.589
 198  1369.477
 199  1299.151
 200  1201.714
 201  1299.281
 202  1377.359
 203  1388.9
 204  1374.773
 205  1265.435
 206  1195.547
 207  1191.503
 208  1225.407
 209  1301.131
 210  1286.772
 211  1413.311
 212  1510.075
 213  1414.878
 214  1299.251
 215  1283.92
 216  1323.786
 217  1230.697
 218  1216.89
 219  1196.475
 220  1218.108
 221  1306.847
 222  1234.333
 223  1201.864
 224  1173.35
 225  1142.508
 226  1181.324
 227  1245.991
 228  1325.525
 229  1348.126
 230  1259.418
 231  1100.557
 232  1123.578
 233  1116.105
 234  1177.545
 235  1225.852
 236  1236.048
 237  1222.214
 238  1192.111
 239  1145.839
 240  1093.031
 241  1009.292
 242  1038.266
 243  1195.346
 244  1337.079
 245  1405.736
 246  1317.249
 247  1215.529
 248  1102.338
 249  1141.852
 250  1182.102
 251  1139.164
 252  1105.953
 253  1185.773
 254  1214.674
 255  1208.273
 256  1131.624
 257  1116.832
 258  1112.564
 259  1127.076
 260  1095.418
 261  1288.732
 262  1330.926
 263  1182.627
 264  1135.931
 265  1086.211
 266  1142.406
 267  1129.132
 268  1223.421
 269  1194.821
 270  1190.047
 271  1243.03
 272  1101.272
 273  1090.785
 274  1211.839
 275  1249.362
 276  1275.175
 277  1331.84
 278  1312.525
 279  1426.523
 280  1307.712
 281  1165.668
 282  1179.086
 283  1092.321
 284  1177.739
 285  1215.346
 286  1387.659
 287  1393.256
 288  1291.685
 289  1226.552
 290  1258.642
 291  1253.544
 292  1365.092
 293  1349.779
 294  1381.618
 295  1419.204
 296  1442.561
 297  1256.051
 298  1314.265
 299  1342.62
 300  1308.245
 301  1278.043
 302  1274.281
 303  1396.719
 304  1407.855
 305  1358.21
 306  1288.314
 307  1330.653
 308  1364.232
 309  1389.258
 310  1449.51
 311  1469.858
 312  1606.623
 313  1459.32
 314  1435.089
 315  1428.717
 316  1406.498
 317  1457.595
 318  1420.579
 319  1412.278
 320  1393.508
 321  1378.577
 322  1248.405
 323  1216.877
 324  1338.548
 325  1404.558
 326  1446.356
 327  1490.004
 328  1552.464
 329  1517.312
 330  1385.74
 331  1365.008
 332  1424.64
 333  1457.657
 334  1487.909
 335  1497.302
 336  1455.759
 337  1503.709
 338  1387.986
 339  1334.823
 340  1407.527
 341  1402.931
 342  1361.26
 343  1480.376
 344  1596.946
 345  1612.995
 346  1549.545
 347  1383.163
 348  1352.542
 349  1458.676
 350  1432.824
 351  1351.504
 352  1324.687
 353  1528.386
 354  1498.504
 355  1362.187
 356  1284.672
 357  1312.649
 358  1429.156
 359  1524.216
 360  1598.759
 361  1569.898
 362  1514.6
 363  1411.87
 364  1332.916
 365  1361.438
 366  1443.116
 367  1468.34
 368  1493.588
 369  1505.045
 370  1439.335
 371  1333.415
 372  1347.339
 373  1477.845
 374  1435.656
 375  1457.138
 376  1472.828
 377  1499.88
 378  1619.687
 379  1530.802
 380  1392.051
 381  1358.911
 382  1427.32
 383  1521.007
 384  1449.69
 385  1412.005
 386  1359.454
 387  1394.161
 388  1394.544
 389  1390.802
 390  1316.967
 391  1276.93
 392  1347.258
 393  1343.07
 394  1374.58
 395  1412.988
 396  1400.723
 397  1390.291
 398  1343.253
 399  1321.307
 400  1274.783
 401  1322.644
 402  1346.02
 403  1269.203
 404  1308.084
 405  1382.996
 406  1347.141
 407  1401.889
 408  1415.577
 409  1506.509
 410  1565.549
 411  1537.952
 412  1425.048
 413  1356.987
 414  1327.187
 415  1312.461
 416  1442.697
 417  1427.478
 418  1430.552
 419  1473.585
 420  1391.218
 421  1325.931
 422  1253.727
 423  1379.141
 424  1425.558
 425  1330.011
 426  1450.324
 427  1563.666
 428  1510.127
 429  1483.138
 430  1314.294
 431  1296.83
 432  1252.998
 433  1291.033
 434  1405.002
 435  1356.862
 436  1311.088
 437  1275.15
 438  1197.658
 439  1252.02
 440  1262.023
 441  1347.738
 442  1465.108
 443  1451.475
 444  1462.436
 445  1319.51
 446  1336.757
 447  1349.302
 448  1310.454
 449  1352.463
 450  1415.187
 451  1313.863
 452  1291.514
 453  1353.776
 454  1381.771
 455  1417.763
 456  1362.036
 457  1396.045
 458  1353.824
 459  1437.487
 460  1527.867
 461  1394.431
 462  1253.949
 463  1381.638
 464  1445.626
 465  1387.723
 466  1416.015
 467  1417.165
 468  1355.904
 469  1392.932
 470  1313.091
 471  1298.711
 472  1289.103
 473  1239.569
 474  1335.19
 475  1439.04
 476  1462.931
 477  1332.828
 478  1431.341
 479  1438.631
 480  1296.998
 481  1237.236
 482  1399.197
 483  1430.901
 484  1424.583
 485  1388.555
 486  1354.089
 487  1341.893
 488  1233.069
 489  1243.466
 490  1413.767
 491  1508.856
 492  1451.372
 493  1472.779
 494  1505.809
 495  1516.324
 496  1470.056
 497  1318.198
 498  1357.378
 499  1340.362
 500  1355.441
 501  1365.803
 502  1368.859
 503  1323.263
 504  1324.45
 505  1301.131
 506  1357.908
 507  1474.108
 508  1659.171
 509  1806.141
 510  1858.925
 511  1819.278
