# Input file       =  1203759049.105247_cleaned.dat
# Candidate        =  PSR_0332+5434
# Telescope        =  AR
# Epoch_topo       =  58176.396621588508
# Epoch_bary       =  N/A
# T_sample         =  0.002
# Data Folded      =  7340032
# Data Avg         =  0.067122129863649
# Data StdDev      =  1.00014183727437 
# Profile Bins     =  512
# Profile Avg      =  962.255630931705 
# Profile StdDev   =  119.750018984298 
# Reduced chi-sqr  =  1.118
# Prob(Noise)      <  0.0332   (~1.8 sigma)
# P_topo (ms)      =  714.580610980017  +/- 0.00061
# P'_topo (s/s)    =  -0                +/- 3.22e-10
# P''_topo (s/s^2) =  0                 +/- 1.42e-13
# P_bary (ms)      =  N/A
# P'_bary (s/s)    =  N/A
# P''_bary (s/s^2) =  N/A
# P_orb (s)        =  N/A
# asin(i)/c (s)    =  N/A
# eccentricity     =  N/A
# w (rad)          =  N/A
# T_peri           =  N/A
######################################################
   0  1042.79
   1  1044.817
   2  1026.585
   3  1019.64
   4  1074.646
   5  1101.089
   6  1069.168
   7  1036.83
   8  1035.744
   9  1001.815
  10  895.2991
  11  964.6934
  12  990.5139
  13  946.9434
  14  1033.599
  15  1067.535
  16  1047.194
  17  816.2341
  18  768.7914
  19  777.6334
  20  815.1276
  21  965.9828
  22  1002.996
  23  818.6379
  24  854.8683
  25  1007.24
  26  1021.071
  27  924.4392
  28  823.3126
  29  842.3657
  30  894.0508
  31  869.965
  32  887.913
  33  997.9999
  34  1017.766
  35  1033.622
  36  966.5891
  37  976.7563
  38  860.0744
  39  857.3765
  40  937.525
  41  943.6967
  42  925.0363
  43  968.4575
  44  897.8017
  45  868.9953
  46  881.6279
  47  944.7914
  48  988.4436
  49  1020.773
  50  942.6884
  51  959.3407
  52  1049.469
  53  1077.458
  54  1009.545
  55  954.4085
  56  952.9376
  57  934.1016
  58  993.7861
  59  983.0482
  60  944.3729
  61  909.5479
  62  998.6438
  63  1054.811
  64  1080.031
  65  974.0935
  66  871.6036
  67  991.194
  68  1004.686
  69  982.6317
  70  987.2432
  71  1088.006
  72  990.4866
  73  885.847
  74  961.8169
  75  908.4338
  76  941.188
  77  901.2647
  78  858.0793
  79  907.3516
  80  954.7633
  81  904.262
  82  915.3014
  83  1026.058
  84  962.7288
  85  870.894
  86  919.2786
  87  946.0868
  88  966.5187
  89  1028.157
  90  1019.313
  91  1024.124
  92  999.7996
  93  978.3406
  94  962.8264
  95  940.571
  96  1001.723
  97  1027.969
  98  1007.626
  99  1013.878
 100  945.4376
 101  1008.132
 102  1005.98
 103  956.629
 104  936.2885
 105  939.8016
 106  921.752
 107  961.7766
 108  880.4355
 109  856.0799
 110  961.5673
 111  1027.154
 112  1087.575
 113  1055.214
 114  1128.304
 115  1127.383
 116  1164.58
 117  1327.138
 118  1279.825
 119  1283.703
 120  1364.548
 121  1246.732
 122  1086.509
 123  1081.853
 124  1086.773
 125  985.1827
 126  931.6252
 127  999.6801
 128  954.5312
 129  1036.629
 130  1000.344
 131  948.8249
 132  962.6485
 133  912.7909
 134  874.3635
 135  860.9344
 136  867.2661
 137  890.3918
 138  985.36
 139  965.3887
 140  857.9625
 141  860.8657
 142  910.3231
 143  906.2875
 144  1072.575
 145  1053.167
 146  1016.976
 147  959.0178
 148  1043.904
 149  1058.7
 150  994.4587
 151  977.6423
 152  1035.652
 153  961.5154
 154  1053.11
 155  1074.843
 156  1158.203
 157  1023.491
 158  912.0485
 159  921.6774
 160  1023.26
 161  992.406
 162  990.4889
 163  1096.958
 164  1068.94
 165  1012.347
 166  977.6212
 167  1000.395
 168  897.2808
 169  962.3018
 170  949.6545
 171  887.3348
 172  830.6411
 173  841.0307
 174  862.3097
 175  908.9193
 176  901.4126
 177  845.8369
 178  918.7073
 179  845.609
 180  864.1332
 181  855.6561
 182  771.4117
 183  755.2316
 184  943.5411
 185  990.3957
 186  979.8004
 187  1024.844
 188  874.0291
 189  844.1519
 190  963.5237
 191  962.6773
 192  994.5494
 193  1012.445
 194  1033.743
 195  1001.48
 196  982.7173
 197  983.0711
 198  992.706
 199  1003.961
 200  833.0394
 201  815.0812
 202  958.384
 203  928.4797
 204  977.1667
 205  943.019
 206  1042.998
 207  921.7849
 208  970.5854
 209  1079.747
 210  1049.751
 211  1056.308
 212  1054.175
 213  1038.438
 214  984.7281
 215  948.5542
 216  912.2863
 217  870.2502
 218  1031.039
 219  1070.83
 220  1033.113
 221  1022.076
 222  983.5943
 223  1023.742
 224  984.5114
 225  943.4125
 226  1012.379
 227  1003.758
 228  1001.303
 229  1056.162
 230  1003.884
 231  994.5885
 232  926.7689
 233  922.1586
 234  901.8207
 235  888.6929
 236  962.5035
 237  967.0817
 238  1037.064
 239  993.485
 240  974.7755
 241  972.7818
 242  960.4422
 243  917.6306
 244  874.2958
 245  919.4732
 246  935.902
 247  867.3647
 248  855.3716
 249  855.938
 250  791.5353
 251  769.0226
 252  857.7635
 253  921.5529
 254  828.0156
 255  857.2169
 256  844.359
 257  830.8691
 258  820.1458
 259  832.9149
 260  939.1906
 261  1001.894
 262  924.2158
 263  828.6754
 264  870.3318
 265  831.9982
 266  813.1038
 267  834.1094
 268  900.7914
 269  910.1852
 270  870.4028
 271  874.9467
 272  898.2367
 273  793.9199
 274  891.9105
 275  909.5945
 276  830.0483
 277  947.4795
 278  887.7852
 279  927.4281
 280  926.8647
 281  965.311
 282  1003.227
 283  1022.908
 284  1032.889
 285  870.2609
 286  971.9908
 287  1121.182
 288  996.9641
 289  941.4726
 290  1056.522
 291  1040.186
 292  991.3611
 293  982.0161
 294  946.9272
 295  1117.42
 296  1137.494
 297  1069.232
 298  955.6269
 299  947.2713
 300  1083.637
 301  966.6312
 302  903.2002
 303  940.8305
 304  1065.72
 305  1156.399
 306  1088.229
 307  948.2081
 308  973.0421
 309  911.631
 310  979.9584
 311  1042.878
 312  1121.35
 313  1053.671
 314  993.8359
 315  922.5339
 316  950.4063
 317  923.1238
 318  936.719
 319  1007.161
 320  859.7321
 321  901.0463
 322  929.8718
 323  876.5325
 324  963.4403
 325  981.2157
 326  893.736
 327  938.8172
 328  946.9885
 329  861.8929
 330  917.3068
 331  973.7948
 332  973.9625
 333  800.444
 334  785.8052
 335  925.3402
 336  985.0701
 337  947.2101
 338  870.5632
 339  875.1113
 340  879.7205
 341  931.9917
 342  917.6472
 343  907.3063
 344  831.3163
 345  911.7925
 346  981.7213
 347  923.032
 348  944.0196
 349  959.3109
 350  1052.39
 351  893.9347
 352  980.6172
 353  1101.695
 354  945.5709
 355  894.8727
 356  860.6378
 357  938.1744
 358  1003.996
 359  961.3444
 360  875.3157
 361  897.118
 362  962.0317
 363  944.1563
 364  958.2685
 365  914.0157
 366  889.0275
 367  909.7918
 368  1078.886
 369  918.1456
 370  848.1021
 371  806.4181
 372  892.7053
 373  926.747
 374  913.2874
 375  824.5894
 376  878.8813
 377  966.6144
 378  903.9495
 379  945.2969
 380  907.5075
 381  883.8072
 382  948.792
 383  957.8208
 384  1037.932
 385  981.8435
 386  903.6974
 387  778.1501
 388  779.6475
 389  1024.941
 390  1040.658
 391  989.863
 392  913.6017
 393  949.1985
 394  938.291
 395  863.2903
 396  847.7759
 397  818.3519
 398  865.3439
 399  929.2101
 400  869.7599
 401  840.5887
 402  875.3267
 403  818.189
 404  866.8246
 405  780.7747
 406  736.6703
 407  731.1039
 408  824.3703
 409  806.4127
 410  719.1312
 411  820.2421
 412  876.2979
 413  830.2223
 414  824.1051
 415  844.0486
 416  861.1362
 417  947.777
 418  986.5023
 419  899.6672
 420  904.3896
 421  892.7249
 422  899.4653
 423  985.2123
 424  976.8885
 425  833.1421
 426  770.1397
 427  894.8614
 428  906.5937
 429  808.0439
 430  864.8405
 431  972.2937
 432  991.9612
 433  972.2294
 434  1082.462
 435  1035.355
 436  982.398
 437  1018.601
 438  923.8782
 439  915.6086
 440  857.1025
 441  925.2509
 442  1016.903
 443  1064.973
 444  1120.012
 445  1093.475
 446  1042.597
 447  1024.492
 448  987.4012
 449  1064.708
 450  1086.403
 451  978.9979
 452  979.5017
 453  986.8326
 454  975.6202
 455  965.8083
 456  906.5177
 457  912.2111
 458  877.7982
 459  939.9774
 460  1012.68
 461  991.4473
 462  1021.894
 463  1005.784
 464  1024.18
 465  1035.233
 466  1082
 467  1066.202
 468  1031.998
 469  1077.687
 470  1078.491
 471  1087.679
 472  1028.331
 473  1016.084
 474  1006.604
 475  993.0702
 476  1065.965
 477  1108.647
 478  1129.413
 479  1146.946
 480  1033.281
 481  1117.347
 482  1125.439
 483  1089.191
 484  1076.646
 485  1047.847
 486  925.5767
 487  967.9601
 488  1073.76
 489  1030.848
 490  1049.736
 491  966.262
 492  1039.354
 493  990.8806
 494  1003.274
 495  1063.238
 496  944.711
 497  991.4002
 498  1039.219
 499  1111.202
 500  950.8983
 501  1001.776
 502  1046.93
 503  1138.769
 504  1157.435
 505  1109.443
 506  1113.981
 507  1163.047
 508  1192.229
 509  1190.547
 510  1085.434
 511  1057.084
