# Input file       =  1203611338.104799_cleaned.dat
# Candidate        =  PSR_0332+5434
# Telescope        =  AR
# Epoch_topo       =  58174.687003527768
# Epoch_bary       =  N/A
# T_sample         =  0.002
# Data Folded      =  7340032
# Data Avg         =  0.499247069024672
# Data StdDev      =  8.13833311586249 
# Profile Bins     =  512
# Profile Avg      =  7157.19155054252 
# Profile StdDev   =  974.427335007803 
# Reduced chi-sqr  =  0.490
# Prob(Noise)      <  1   (~0.0 sigma)
# P_topo (ms)      =  714.580917472217  +/- 0.00145
# P'_topo (s/s)    =  -0                +/- 7.65e-10
# P''_topo (s/s^2) =  0                 +/- 3.38e-13
# P_bary (ms)      =  N/A
# P'_bary (s/s)    =  N/A
# P''_bary (s/s^2) =  N/A
# P_orb (s)        =  N/A
# asin(i)/c (s)    =  N/A
# eccentricity     =  N/A
# w (rad)          =  N/A
# T_peri           =  N/A
######################################################
   0  7033.855
   1  7072.542
   2  7330.18
   3  7403.041
   4  7059.554
   5  6797.895
   6  6969.22
   7  7354.139
   8  7122.581
   9  6973.96
  10  7191.706
  11  6965.339
  12  7268.882
  13  7210
  14  7193.363
  15  7535.94
  16  7706.493
  17  7540.375
  18  7885.413
  19  7840.503
  20  7443.146
  21  7198.531
  22  7458.375
  23  7573.42
  24  6994.861
  25  6903.637
  26  6790.805
  27  6840.29
  28  7051.055
  29  7510.514
  30  7016.621
  31  6920.448
  32  6662.922
  33  6780.477
  34  6679.801
  35  6796.333
  36  7114.826
  37  6628.414
  38  6694.91
  39  6468.029
  40  6545.91
  41  6319.478
  42  6275.216
  43  6203.732
  44  5775.646
  45  5784.657
  46  6007.484
  47  6341.129
  48  6208.228
  49  6103.874
  50  6077.034
  51  6374.294
  52  6606.887
  53  6543.763
  54  7013.485
  55  7217.79
  56  6994.338
  57  6932.089
  58  6668.609
  59  6865.256
  60  7040.495
  61  6865.623
  62  6594.927
  63  6800.586
  64  6925.75
  65  6754.354
  66  6508.636
  67  6582.319
  68  6611.4
  69  6478.159
  70  6332.12
  71  6716.012
  72  6694.106
  73  6700.983
  74  6699.724
  75  6600.259
  76  6435.318
  77  6382.516
  78  6390.258
  79  6688.335
  80  6516.887
  81  6970.013
  82  6905.076
  83  7263.412
  84  6928.797
  85  6618.78
  86  6306.682
  87  6770.913
  88  6734.682
  89  7083.816
  90  6875.486
  91  6997.262
  92  7222.658
  93  7048.896
  94  7082.235
  95  6894.52
  96  6511.673
  97  6505.276
  98  7123.094
  99  7147.923
 100  6990.919
 101  6951.404
 102  6678.03
 103  6498.595
 104  6880.466
 105  6881.027
 106  6958.355
 107  7138.396
 108  7667.45
 109  7594.344
 110  6994.565
 111  6970.617
 112  6766.459
 113  6865.089
 114  7294.124
 115  7084.316
 116  7145.393
 117  6747.5
 118  6555.901
 119  6436.636
 120  6558.114
 121  6998.56
 122  6868.244
 123  7032.946
 124  7223.762
 125  7122.2
 126  7236.042
 127  7029.768
 128  6992.259
 129  7124.667
 130  7498.603
 131  7591.251
 132  7277.049
 133  7512.795
 134  7346.178
 135  7575.338
 136  7492.583
 137  7537.735
 138  7558.231
 139  7511.676
 140  7558.394
 141  7670.877
 142  7636.652
 143  7739.732
 144  7364.16
 145  7397.277
 146  7747.379
 147  7539.966
 148  7480.111
 149  7308.765
 150  7766.006
 151  7499.824
 152  7555.5
 153  7772.743
 154  7675.886
 155  8069.474
 156  7966.809
 157  7848.566
 158  7675.229
 159  7674.864
 160  7939.542
 161  7603.644
 162  7472.73
 163  7452.562
 164  7271.453
 165  7468.48
 166  7299.765
 167  7487.691
 168  7521.923
 169  7305.714
 170  7268.015
 171  7329.226
 172  7015.379
 173  6864.958
 174  7247.708
 175  7687.055
 176  7602.582
 177  7870.634
 178  8416.623
 179  8193.919
 180  7986.253
 181  7741.94
 182  8108.773
 183  8213.334
 184  8319.194
 185  7774.362
 186  7867.156
 187  7770.264
 188  8252.791
 189  8414.387
 190  8494.33
 191  8423.526
 192  7951.88
 193  7911.422
 194  8022.674
 195  8337.238
 196  8389.803
 197  8056.164
 198  7786.259
 199  7870.474
 200  7970.731
 201  7541.946
 202  7479.862
 203  7680.51
 204  7791.463
 205  8024.586
 206  7852.457
 207  7512.442
 208  7064.667
 209  7207.954
 210  7711.35
 211  7730.366
 212  7603.188
 213  7485.769
 214  7818.512
 215  7807.072
 216  8027.209
 217  7724.63
 218  7930.649
 219  7848.364
 220  7366.61
 221  7397.287
 222  7171.048
 223  7012.429
 224  7455.646
 225  7524.214
 226  7393.87
 227  7387.987
 228  7769.827
 229  7933.114
 230  7276.803
 231  7143.764
 232  7444.542
 233  7435.176
 234  7336.409
 235  7893.374
 236  7569.255
 237  7198.795
 238  7214.835
 239  7318.494
 240  7652.957
 241  7864.907
 242  7669.951
 243  7402.328
 244  6872.236
 245  6655.026
 246  6830.963
 247  6935.327
 248  7175.293
 249  6751.028
 250  6682.092
 251  6313.592
 252  6231.791
 253  6399.118
 254  6639.482
 255  7025.09
 256  7034.448
 257  6961.059
 258  6562.649
 259  6678.835
 260  6585.236
 261  6381.84
 262  6479.859
 263  6820.605
 264  6691.305
 265  6892.578
 266  6426.455
 267  6449.467
 268  6856.012
 269  7135.929
 270  7149.108
 271  7087.078
 272  7399.146
 273  7613.445
 274  7408.264
 275  6818.586
 276  6375.947
 277  6423.499
 278  6918.335
 279  6720.229
 280  6750.819
 281  6657.522
 282  7246.188
 283  7234.979
 284  7250.712
 285  7019.557
 286  7037.831
 287  6824.906
 288  6817.018
 289  7393.299
 290  7733.017
 291  7871.606
 292  6936.131
 293  6824.008
 294  6430.293
 295  6438.34
 296  6645.534
 297  6875.771
 298  6723.893
 299  6814.78
 300  7186.638
 301  7374.215
 302  7536.445
 303  8078.99
 304  8512.246
 305  8367.013
 306  8327.158
 307  8337.93
 308  7998.529
 309  7875.758
 310  6990.896
 311  7197.311
 312  7224.122
 313  7259.669
 314  7335.592
 315  7407.423
 316  7104.132
 317  7267.56
 318  7184.899
 319  7205.095
 320  7260.117
 321  7026.545
 322  6829.218
 323  7160.199
 324  7192.736
 325  7223.635
 326  6972.252
 327  6792.316
 328  6563.42
 329  6764.509
 330  7150.027
 331  7158.603
 332  7104.833
 333  6848.398
 334  6448.681
 335  6388.039
 336  6642.999
 337  6670.868
 338  6578.812
 339  6902.521
 340  7139.593
 341  7237.132
 342  7708.039
 343  7765.905
 344  7769.054
 345  8051.79
 346  8471.63
 347  8122.276
 348  7626.739
 349  7658.562
 350  7688.745
 351  7439.752
 352  7500.069
 353  7791.398
 354  7862.994
 355  8173.267
 356  7758.136
 357  6861.543
 358  7042.089
 359  7149.874
 360  7234.018
 361  7543.972
 362  7290.964
 363  7053.596
 364  7121.806
 365  6848.26
 366  7172.68
 367  7435.69
 368  8117.453
 369  7977.458
 370  7333.593
 371  7098.834
 372  7232.538
 373  7099.721
 374  7211.975
 375  7145.667
 376  7102.521
 377  7363.208
 378  6857.678
 379  7151.34
 380  6866.599
 381  6787.371
 382  6837.367
 383  6848.356
 384  6641.893
 385  6979.403
 386  6986.805
 387  6840.061
 388  7348.035
 389  7142.757
 390  6964.592
 391  6603.152
 392  6355.456
 393  5773.119
 394  6068.862
 395  6374.501
 396  6738.849
 397  6738.88
 398  6441.363
 399  6700.057
 400  6561.225
 401  6069.691
 402  5953.991
 403  6281.172
 404  6726.304
 405  7079.829
 406  7323.208
 407  7505.778
 408  7110.832
 409  6622.966
 410  7002.98
 411  6967.419
 412  6680.805
 413  6981.546
 414  7059.204
 415  6550.57
 416  6179.945
 417  6444.178
 418  6498.332
 419  6465.078
 420  6590.829
 421  6691.847
 422  6801.481
 423  6721.169
 424  6948.936
 425  7187.61
 426  7508.759
 427  7462.835
 428  7436.227
 429  7540.109
 430  7251.27
 431  7431.976
 432  7460.42
 433  7334.692
 434  7457.875
 435  6839.929
 436  7117.257
 437  7459.213
 438  7468.723
 439  7179.843
 440  7016.669
 441  7218.535
 442  6926.434
 443  7009.479
 444  7105.946
 445  6931.361
 446  7059.832
 447  6977.451
 448  6977.691
 449  6954.316
 450  7212.749
 451  7724.159
 452  7773.391
 453  7347.766
 454  7382.61
 455  7595.687
 456  7553.295
 457  7231.607
 458  7284.009
 459  7495.365
 460  7539.55
 461  7526.636
 462  7065.509
 463  6927.504
 464  7332.651
 465  7400.844
 466  7359.927
 467  7054.424
 468  7232.962
 469  7186.412
 470  7555.797
 471  7492.874
 472  7428.803
 473  7226.594
 474  7353.367
 475  7202.695
 476  7129.824
 477  7515.757
 478  7211.82
 479  7116.158
 480  7299.075
 481  7151.615
 482  6688.657
 483  6658.961
 484  6883.948
 485  7238.439
 486  7046.625
 487  7268.031
 488  6969.875
 489  6945.885
 490  7509.063
 491  7472.866
 492  7258.46
 493  7523.341
 494  7196.511
 495  6859.402
 496  6675.225
 497  6426.003
 498  6784.598
 499  6718.47
 500  7042.637
 501  6735.721
 502  6660.801
 503  6800.676
 504  6916.705
 505  6965.474
 506  7063.875
 507  6828.306
 508  7139.033
 509  7303.563
 510  7310.707
 511  6992.231
