# Input file       =  1203328409.099087_cleaned.dat
# Candidate        =  PSR_0332+5434
# Telescope        =  AR
# Epoch_topo       =  58171.412362257950
# Epoch_bary       =  N/A
# T_sample         =  0.002
# Data Folded      =  7208960
# Data Avg         =  0.0942021439975136
# Data StdDev      =  1.00023743866652 
# Profile Bins     =  512
# Profile Avg      =  1326.42326687241 
# Profile StdDev   =  118.687350070001 
# Reduced chi-sqr  =  2.040
# Prob(Noise)      <  1.21e-38   (~12.9 sigma)
# P_topo (ms)      =  714.580703862634  +/- 4.74e-05
# P'_topo (s/s)    =  -0                +/- 2.55e-11
# P''_topo (s/s^2) =  0                 +/- 1.14e-14
# P_bary (ms)      =  N/A
# P'_bary (s/s)    =  N/A
# P''_bary (s/s^2) =  N/A
# P_orb (s)        =  N/A
# asin(i)/c (s)    =  N/A
# eccentricity     =  N/A
# w (rad)          =  N/A
# T_peri           =  N/A
######################################################
   0  1377.282
   1  1442.374
   2  1391.61
   3  1412.145
   4  1422.905
   5  1355.596
   6  1393.687
   7  1317.287
   8  1298.799
   9  1291.754
  10  1236.923
  11  1329.563
  12  1430.042
  13  1470.698
  14  1334.915
  15  1425.626
  16  1442.968
  17  1306.035
  18  1230.283
  19  1393.364
  20  1432.053
  21  1426.358
  22  1389.305
  23  1358.107
  24  1342.479
  25  1244.017
  26  1232.927
  27  1403.174
  28  1506.605
  29  1456.171
  30  1467.212
  31  1505.466
  32  1514.493
  33  1482.582
  34  1318.02
  35  1360.983
  36  1335.399
  37  1358.636
  38  1361.66
  39  1371.971
  40  1328.121
  41  1321.677
  42  1304.966
  43  1347.201
  44  1467.435
  45  1644.314
  46  1803.368
  47  1857.881
  48  1819.326
  49  1812.821
  50  1690.54
  51  1556.695
  52  1402.514
  53  1415.619
  54  1498.583
  55  1399.571
  56  1295.099
  57  1333.487
  58  1223.863
  59  1290.377
  60  1392.277
  61  1338.454
  62  1471.084
  63  1575.891
  64  1501.486
  65  1389.615
  66  1398.986
  67  1290.284
  68  1212.705
  69  1287.726
  70  1270.691
  71  1308.488
  72  1309.519
  73  1204.943
  74  1142.477
  75  1079.53
  76  1136.67
  77  1212.305
  78  1250.258
  79  1336.085
  80  1408.256
  81  1369.888
  82  1304.615
  83  1169.685
  84  1227.202
  85  1287.693
  86  1269.311
  87  1373.3
  88  1384.636
  89  1325.768
  90  1208.754
  91  1151.922
  92  1159.762
  93  1201.853
  94  1127.471
  95  1267.248
  96  1292.63
  97  1196.097
  98  1289.428
  99  1280.696
 100  1246.283
 101  1123.292
 102  1131.606
 103  1220.361
 104  1246.528
 105  1341.098
 106  1359.369
 107  1207.105
 108  1192.685
 109  1251.002
 110  1164.535
 111  1156.189
 112  1365.191
 113  1446.126
 114  1388.929
 115  1232.178
 116  1332.392
 117  1360.147
 118  1243.58
 119  1146.669
 120  1138.348
 121  1230.483
 122  1195.482
 123  1175.083
 124  1237.998
 125  1208.688
 126  1217.921
 127  1163.227
 128  1191.706
 129  1326.167
 130  1307.329
 131  1236.435
 132  1267.79
 133  1172.982
 134  1242.92
 135  1186.394
 136  1206.903
 137  1304.167
 138  1214.62
 139  1223.987
 140  1231.013
 141  1240.187
 142  1181.135
 143  1194.384
 144  1224.252
 145  1280.486
 146  1296.964
 147  1174.123
 148  1127.287
 149  1153.623
 150  1181.356
 151  1107.639
 152  1049
 153  1195.358
 154  1236.952
 155  1115.74
 156  1144.03
 157  1160.737
 158  1234.71
 159  1198.432
 160  1283.507
 161  1445.8
 162  1541.755
 163  1370.16
 164  1253.18
 165  1194.098
 166  1279.83
 167  1328.81
 168  1214.185
 169  1389.411
 170  1334.65
 171  1316.182
 172  1312.148
 173  1205.369
 174  1215.17
 175  1223.739
 176  1350.332
 177  1310.649
 178  1347.413
 179  1523.406
 180  1465.749
 181  1288.73
 182  1272.254
 183  1302.661
 184  1342.478
 185  1217.182
 186  1269.266
 187  1312.363
 188  1254.205
 189  1228.067
 190  1220.467
 191  1142.497
 192  1201.06
 193  1288.617
 194  1391.226
 195  1340.521
 196  1284.407
 197  1320.2
 198  1260.903
 199  1280.866
 200  1185.972
 201  1273.714
 202  1362.343
 203  1357.038
 204  1390.711
 205  1368.785
 206  1269.93
 207  1240.027
 208  1281.105
 209  1222.247
 210  1323.282
 211  1405.417
 212  1469.449
 213  1412.505
 214  1275.389
 215  1211.464
 216  1280.081
 217  1302.811
 218  1303.785
 219  1322.655
 220  1359.398
 221  1268.785
 222  1267.478
 223  1243.17
 224  1277.447
 225  1275.406
 226  1318.33
 227  1387.555
 228  1429.039
 229  1481.375
 230  1426.898
 231  1355.062
 232  1344.92
 233  1304.287
 234  1311.401
 235  1382.578
 236  1308.388
 237  1304.893
 238  1179.524
 239  1172.281
 240  1375.817
 241  1442.205
 242  1408.505
 243  1508.518
 244  1483.336
 245  1457.849
 246  1345.087
 247  1364.968
 248  1308.998
 249  1202.812
 250  1287.663
 251  1378.559
 252  1385.767
 253  1379.587
 254  1271.108
 255  1199.271
 256  1190.731
 257  1220.721
 258  1299.975
 259  1285.186
 260  1402.116
 261  1509.085
 262  1422.004
 263  1308.322
 264  1279.627
 265  1327.844
 266  1235.307
 267  1214.955
 268  1198.936
 269  1212.722
 270  1305.965
 271  1241.038
 272  1200.001
 273  1176.982
 274  1139.435
 275  1180.844
 276  1238.734
 277  1322.133
 278  1348.133
 279  1270.831
 280  1106.001
 281  1124.587
 282  1110.858
 283  1177.291
 284  1221.874
 285  1235.165
 286  1223.58
 287  1193.985
 288  1149.76
 289  1095.589
 290  1011.814
 291  1033.287
 292  1185.441
 293  1329.259
 294  1405.806
 295  1326.208
 296  1223.351
 297  1106.071
 298  1134.911
 299  1180.212
 300  1147.174
 301  1100.612
 302  1183.738
 303  1211.549
 304  1211.986
 305  1133.98
 306  1121.375
 307  1107.62
 308  1134.113
 309  1085.9
 310  1275.439
 311  1340.434
 312  1189.774
 313  1139.929
 314  1083.061
 315  1142.274
 316  1128.836
 317  1217.829
 318  1197.465
 319  1187.766
 320  1246.401
 321  1113.109
 322  1081.396
 323  1205.743
 324  1248.938
 325  1271.051
 326  1331.699
 327  1308.155
 328  1423.093
 329  1324.916
 330  1164.729
 331  1183.239
 332  1090.949
 333  1174.675
 334  1210.063
 335  1374.953
 336  1400.872
 337  1295.846
 338  1230.174
 339  1255.257
 340  1255.732
 341  1356.868
 342  1353.28
 343  1373.88
 344  1413.577
 345  1452.667
 346  1260.221
 347  1312.448
 348  1342.803
 349  1311.237
 350  1281.756
 351  1269.328
 352  1390.001
 353  1408.468
 354  1363.068
 355  1290.551
 356  1325.235
 357  1364.183
 358  1384.356
 359  1449.235
 360  1464.713
 361  1604.45
 362  1468.734
 363  1432.862
 364  1431.877
 365  1403.429
 366  1458.97
 367  1422.216
 368  1413.889
 369  1390.206
 370  1386.049
 371  1259.449
 372  1208.719
 373  1332.857
 374  1398.537
 375  1447.653
 376  1481.635
 377  1551.889
 378  1523.567
 379  1395.811
 380  1358.692
 381  1420.89
 382  1456.76
 383  1486.377
 384  1500.898
 385  1453.457
 386  1506.38
 387  1395.747
 388  1331.82
 389  1401.541
 390  1410.564
 391  1359.966
 392  1469.233
 393  1592.027
 394  1616.597
 395  1554.616
 396  1393.854
 397  1347.396
 398  1458.022
 399  1435.678
 400  1357.344
 401  1318.764
 402  1517.145
 403  1506.095
 404  1367.545
 405  1291.391
 406  1307.726
 407  1420.21
 408  1518.9
 409  1596.418
 410  1571.03
 411  1519.46
 412  1423.583
 413  1332.372
 414  1356.795
 415  1437.375
 416  1469.102
 417  1487.823
 418  1509.033
 419  1445.162
 420  1340.705
 421  1342.23
 422  1471.244
 423  1438.681
 424  1451.375
 425  1477.334
 426  1492.379
 427  1614.908
 428  1543.794
 429  1395.072
 430  1359.893
 431  1417.691
 432  1524.142
 433  1449.449
 434  1416.745
 435  1358.923
 436  1394.634
 437  1394.905
 438  1395.151
 439  1322.958
 440  1271.763
 441  1348.305
 442  1340.417
 443  1370.793
 444  1411.596
 445  1404.686
 446  1390.159
 447  1345.396
 448  1324.219
 449  1273.117
 450  1319.469
 451  1344.961
 452  1277.601
 453  1300.259
 454  1381.303
 455  1351.252
 456  1394.851
 457  1416.174
 458  1496.573
 459  1569.309
 460  1537.146
 461  1433.614
 462  1359.989
 463  1331.757
 464  1309.494
 465  1434.897
 466  1430.222
 467  1426.594
 468  1472.674
 469  1399.141
 470  1331.642
 471  1253.824
 472  1369.213
 473  1427.82
 474  1334.731
 475  1434.076
 476  1565.862
 477  1511.19
 478  1490.756
 479  1323.546
 480  1295.312
 481  1256.339
 482  1281.759
 483  1401.637
 484  1362.379
 485  1311.773
 486  1280.312
 487  1200.569
 488  1247.227
 489  1264.354
 490  1333.669
 491  1465.686
 492  1446.621
 493  1470.82
 494  1325.237
 495  1332.554
 496  1353.313
 497  1307.91
 498  1350.239
 499  1413.513
 500  1322.058
 501  1291.728
 502  1349.249
 503  1379.438
 504  1417.204
 505  1363.036
 506  1394.134
 507  1357.232
 508  1427.662
 509  1528.999
 510  1409.39
 511  1249.368
