# Input file       =  1203090916.122294_cleaned.dat
# Candidate        =  PSR_0332+5434
# Telescope        =  AR
# Epoch_topo       =  58168.663600952474
# Epoch_bary       =  N/A
# T_sample         =  0.002
# Data Folded      =  7340032
# Data Avg         =  0.326154452958561
# Data StdDev      =  5.32634595220811 
# Profile Bins     =  512
# Profile Avg      =  4676.21909652526 
# Profile StdDev   =  637.739573650974 
# Reduced chi-sqr  =  1.025
# Prob(Noise)      <  0.339   (~0.4 sigma)
# P_topo (ms)      =  714.580705522024  +/- 0.000507
# P'_topo (s/s)    =  -0                +/- 2.68e-10
# P''_topo (s/s^2) =  0                 +/- 1.18e-13
# P_bary (ms)      =  N/A
# P'_bary (s/s)    =  N/A
# P''_bary (s/s^2) =  N/A
# P_orb (s)        =  N/A
# asin(i)/c (s)    =  N/A
# eccentricity     =  N/A
# w (rad)          =  N/A
# T_peri           =  N/A
######################################################
   0  5152.599
   1  4909.478
   2  4965.083
   3  5228.356
   4  5159.567
   5  5007.449
   6  4353.444
   7  4237.141
   8  4403.301
   9  4749.122
  10  4904.81
  11  4429.836
  12  4158.112
  13  4174.495
  14  4278.803
  15  4333.087
  16  4408.292
  17  4534.061
  18  4115.282
  19  4427.99
  20  4771.676
  21  4566.53
  22  4530.19
  23  4738.862
  24  4927.078
  25  4647.624
  26  4570.985
  27  4379.614
  28  4463.139
  29  4631.073
  30  4467.865
  31  4502.831
  32  4268.913
  33  3888.578
  34  4071.976
  35  4297.148
  36  4284.48
  37  4448.209
  38  4384.07
  39  4099.34
  40  3850.509
  41  4428.737
  42  4624.462
  43  4509.274
  44  4668.104
  45  4473.924
  46  4649.533
  47  4408.754
  48  4572.996
  49  4492.441
  50  4622.019
  51  4922.492
  52  5230.894
  53  5112.845
  54  4945.44
  55  5231.657
  56  5160.415
  57  5160.487
  58  5319.334
  59  4804.029
  60  4823.062
  61  4258.819
  62  4445.755
  63  4749.698
  64  4793.845
  65  4789.28
  66  4434.983
  67  4374.084
  68  4640.04
  69  4157.926
  70  3919.896
  71  4074.219
  72  4456.29
  73  4203.906
  74  4048.253
  75  4140.474
  76  4187.551
  77  4133.035
  78  4146.353
  79  4317.986
  80  4326.252
  81  4156.774
  82  4084.764
  83  4091.125
  84  4304.006
  85  4012.919
  86  4303.381
  87  4207.025
  88  3975.315
  89  3782.305
  90  3967.99
  91  4422.582
  92  4241.083
  93  4280.663
  94  4381.824
  95  4485.244
  96  4382.256
  97  4063.638
  98  3972.392
  99  4181.219
 100  4124.145
 101  4272.614
 102  4274.454
 103  4031.008
 104  3998.495
 105  4131.724
 106  4460.085
 107  4574.972
 108  4687.798
 109  4531.304
 110  4282.3
 111  4431.419
 112  4374.476
 113  4377.276
 114  4510.179
 115  4450.269
 116  4619.574
 117  4264.314
 118  4433.539
 119  4300.013
 120  4365.516
 121  4147.902
 122  4111.564
 123  4204.747
 124  4198.247
 125  4106.71
 126  4358.61
 127  4305.583
 128  4240.104
 129  4228.334
 130  3963.733
 131  3890.933
 132  4387.889
 133  4732.948
 134  4352.304
 135  4078.371
 136  4301.276
 137  4481.611
 138  4449.747
 139  4393.362
 140  4687.646
 141  4896.476
 142  4668.477
 143  4287.332
 144  4744.211
 145  4810.932
 146  4709.544
 147  4720.568
 148  4591.076
 149  4487.558
 150  4928.106
 151  5202.969
 152  4884.849
 153  4678.899
 154  4850.275
 155  4589.528
 156  4542.983
 157  5092.45
 158  5280.282
 159  5326.777
 160  5224.635
 161  5403.915
 162  5474.016
 163  5333.757
 164  5315.876
 165  5234.632
 166  5488.6
 167  5465.964
 168  5424.494
 169  5648.339
 170  5574.458
 171  5339.949
 172  5190.191
 173  5252.21
 174  5002.232
 175  4885.233
 176  5018.908
 177  4837.202
 178  4765.413
 179  4766.234
 180  4280.593
 181  4397.904
 182  4751.703
 183  5175.1
 184  5142.142
 185  5081.09
 186  4752.469
 187  4750.205
 188  4786.397
 189  4671.087
 190  4460.118
 191  4362.6
 192  4669.25
 193  4541.077
 194  4845.219
 195  4649.938
 196  4790.582
 197  4909.621
 198  4706.093
 199  4427.737
 200  4535.176
 201  4822.066
 202  4726.372
 203  4980.829
 204  4634.019
 205  4641.113
 206  4681.796
 207  4682.135
 208  4469.35
 209  4645.79
 210  4768.478
 211  4874.051
 212  4718.855
 213  4642.354
 214  4753.768
 215  4348.464
 216  4675.98
 217  4919.648
 218  5086.294
 219  5030.888
 220  4808.378
 221  4528.101
 222  4738.885
 223  4721.58
 224  4606.76
 225  4680.217
 226  4722.758
 227  4739.74
 228  4482.856
 229  4494.17
 230  4853.642
 231  5006.313
 232  4755.457
 233  4700.647
 234  4454.381
 235  4774.114
 236  4681.348
 237  4598.851
 238  4629.238
 239  4168.595
 240  4040.892
 241  3957.527
 242  3872.645
 243  4230.987
 244  4217.104
 245  4424.143
 246  3946.072
 247  3503.785
 248  3898.622
 249  4262.968
 250  4348.657
 251  4555.513
 252  4393.283
 253  3862.104
 254  3891.528
 255  4356.896
 256  4547.413
 257  4332.069
 258  4106.9
 259  4216.113
 260  4241.376
 261  4424.215
 262  4508.477
 263  4451.799
 264  4370.76
 265  4390.539
 266  4245.548
 267  4605.125
 268  4460.151
 269  4524.767
 270  4787.849
 271  4874.12
 272  4630.972
 273  4796.467
 274  4585.745
 275  4658.622
 276  4612.278
 277  4497.36
 278  4525.051
 279  4070.189
 280  4093.85
 281  4079.989
 282  4394.249
 283  4528.565
 284  4393.482
 285  4382.5
 286  4698.581
 287  4701.376
 288  4265.313
 289  4091.351
 290  4465.756
 291  4974.51
 292  5105.207
 293  5294.242
 294  5203.919
 295  4947.845
 296  4865.247
 297  4636.418
 298  4568.389
 299  4296.948
 300  4608.4
 301  4691.015
 302  4903.349
 303  4642.808
 304  4648.57
 305  4243.658
 306  3885.355
 307  4437.019
 308  4607.756
 309  4416.008
 310  4424.969
 311  4690.586
 312  4943.045
 313  4467.033
 314  3738.574
 315  4067.13
 316  4319.984
 317  4314.636
 318  4578.46
 319  4540.699
 320  4361.004
 321  4631.994
 322  4676.306
 323  4813.401
 324  4628.31
 325  5088.964
 326  4944.709
 327  4334.059
 328  4585.433
 329  4590.244
 330  4332.618
 331  4494.354
 332  4758.605
 333  4577.882
 334  4273.224
 335  4310.181
 336  4076.98
 337  3996.422
 338  4078.506
 339  4207.059
 340  4042.793
 341  4489.861
 342  4223.502
 343  4190.496
 344  4241.689
 345  4681.538
 346  4414.951
 347  4406
 348  4495.1
 349  4818.623
 350  4817.884
 351  4540.658
 352  4658.145
 353  4994.208
 354  4731.425
 355  4461.345
 356  4334.83
 357  4464.701
 358  4568.66
 359  4128.924
 360  3989.677
 361  4054.804
 362  4434.879
 363  4097.714
 364  3801.681
 365  3798.677
 366  3809.743
 367  4241.208
 368  3992.597
 369  3876.189
 370  4033.433
 371  4258.958
 372  4613.722
 373  4570.907
 374  4704.549
 375  4631.152
 376  4659.077
 377  4850.765
 378  4969.719
 379  5088.85
 380  4839.95
 381  4723.097
 382  4949.237
 383  4695.854
 384  4700.863
 385  4540.178
 386  4851.609
 387  4810.322
 388  4463.288
 389  4761.644
 390  5031.732
 391  4596.113
 392  4114.874
 393  4351.863
 394  4510.27
 395  4444.851
 396  4127.751
 397  4755.499
 398  5195.764
 399  5269.006
 400  5193.458
 401  4851.398
 402  5111.532
 403  5072.526
 404  4952.047
 405  5434.655
 406  5485.983
 407  5430.321
 408  5343.031
 409  5340.78
 410  4907.666
 411  5123.786
 412  5328.917
 413  4781.836
 414  4675.504
 415  4407.166
 416  4334.505
 417  4611.447
 418  4251.533
 419  4248.062
 420  4179.81
 421  4205.88
 422  4206.21
 423  4192.516
 424  4486.501
 425  4523.441
 426  4464.551
 427  4726.898
 428  4731.931
 429  4877.091
 430  4868.589
 431  4803.281
 432  5034.299
 433  4887.441
 434  4761.849
 435  4802.476
 436  5111.159
 437  5273.533
 438  5208.001
 439  5458.463
 440  5628.075
 441  5736.822
 442  5774.507
 443  5781.778
 444  5962.589
 445  6513.52
 446  6426.716
 447  6253.052
 448  5860.32
 449  5475.35
 450  4976.718
 451  4767.635
 452  5008.169
 453  4736.493
 454  4811.534
 455  4893.854
 456  4899.005
 457  5026.271
 458  4785.243
 459  5224.219
 460  5427.808
 461  5510.54
 462  5300.006
 463  5258.241
 464  5052.541
 465  4641.974
 466  4633.071
 467  4891.222
 468  4965.199
 469  4890.909
 470  5119.166
 471  4937.623
 472  4711.149
 473  4647.006
 474  4766.405
 475  5087.027
 476  4802.82
 477  5033.836
 478  5369.638
 479  5186.432
 480  5540.934
 481  5427.871
 482  5630.012
 483  5850.186
 484  5821.771
 485  6171.855
 486  5604.477
 487  5605.067
 488  5530.028
 489  5596.264
 490  5611.486
 491  5841.532
 492  5741.231
 493  5431.998
 494  5321.081
 495  5298.55
 496  5634.275
 497  5265.698
 498  5515.088
 499  5249.699
 500  5368.572
 501  5357.628
 502  5572.59
 503  5398.483
 504  5137.669
 505  5171.035
 506  5314.662
 507  5527.701
 508  5644.672
 509  5237.515
 510  5164.04
 511  5346.795
