# Input file       =  1203871285.120302_cleaned.dat
# Candidate        =  PSR_0332+5434
# Telescope        =  AR
# Epoch_topo       =  58177.695649540532
# Epoch_bary       =  N/A
# T_sample         =  0.002
# Data Folded      =  7340032
# Data Avg         =  0.504984141512458
# Data StdDev      =  11.2812878570315 
# Profile Bins     =  512
# Profile Avg      =  7239.55245101587 
# Profile StdDev   =  1350.74284936272 
# Reduced chi-sqr  =  0.526
# Prob(Noise)      <  1   (~0.0 sigma)
# P_topo (ms)      =  714.580777855286  +/- 0.00119
# P'_topo (s/s)    =  -0                +/- 6.28e-10
# P''_topo (s/s^2) =  0                 +/- 2.77e-13
# P_bary (ms)      =  N/A
# P'_bary (s/s)    =  N/A
# P''_bary (s/s^2) =  N/A
# P_orb (s)        =  N/A
# asin(i)/c (s)    =  N/A
# eccentricity     =  N/A
# w (rad)          =  N/A
# T_peri           =  N/A
######################################################
   0  7189.969
   1  6900.109
   2  6746.77
   3  6914.197
   4  6612.839
   5  6419.92
   6  6424.98
   7  6375.597
   8  6641.741
   9  6415.28
  10  6591.168
  11  7261.012
  12  6861.456
  13  6962.591
  14  7202.512
  15  7048.252
  16  7126.447
  17  7208.201
  18  7431.298
  19  7328.96
  20  7384.575
  21  7396.3
  22  7092.533
  23  6866.913
  24  6708.237
  25  6532.212
  26  7038.621
  27  7215.875
  28  7215.813
  29  6992.208
  30  6607.042
  31  6484.919
  32  7016.743
  33  6696.075
  34  6306.481
  35  5939.258
  36  5636.866
  37  5874.477
  38  6112.372
  39  5527.109
  40  4996.976
  41  5044.323
  42  5011.47
  43  5509.558
  44  5997.072
  45  5839.536
  46  6020.474
  47  6237.645
  48  6509.776
  49  6401.845
  50  6079.064
  51  6364.05
  52  6720.053
  53  6946.461
  54  6629.542
  55  6800.926
  56  7016.584
  57  6755.295
  58  6509.655
  59  6137.38
  60  6451.716
  61  6630.244
  62  6608.707
  63  6365.404
  64  5884.969
  65  6358.871
  66  6485.29
  67  6667.375
  68  7038.709
  69  7056.733
  70  7003.921
  71  6626.55
  72  6235.173
  73  6980.095
  74  7022.931
  75  6986.73
  76  6465.087
  77  6782.232
  78  7111.833
  79  6893.423
  80  6580.166
  81  7357.683
  82  7036.787
  83  6617.715
  84  6348.967
  85  6816.074
  86  7006.169
  87  7313.296
  88  6556.31
  89  6542.011
  90  6716.487
  91  6806.665
  92  6429.946
  93  6722.998
  94  7124.613
  95  7484.673
  96  7603.184
  97  7482.029
  98  7174.796
  99  7384.27
 100  7268.361
 101  7406.388
 102  7633.979
 103  7727.079
 104  7475.777
 105  7426.939
 106  7403.692
 107  8206.889
 108  8334.527
 109  7991.116
 110  8165.28
 111  8369.842
 112  7802.012
 113  7574.867
 114  7710.613
 115  7978.156
 116  7710.479
 117  7820.949
 118  7917.842
 119  7685.438
 120  7680.62
 121  7782.28
 122  7413.618
 123  7431.822
 124  7571.965
 125  7315.89
 126  7254.98
 127  7423.763
 128  7883.095
 129  7453.616
 130  6815.879
 131  6617.385
 132  6541.677
 133  6462.061
 134  6675.719
 135  6606.616
 136  6792.144
 137  7120.215
 138  6779.623
 139  6851.275
 140  6525.258
 141  6702.509
 142  7144.509
 143  7743.983
 144  8082.911
 145  7977.59
 146  8103.938
 147  7938.441
 148  7784.944
 149  7387.942
 150  7349.366
 151  7337.654
 152  7936.845
 153  8045.624
 154  7838.646
 155  7814.089
 156  7636.79
 157  7246.293
 158  7735.986
 159  7553.814
 160  7395.821
 161  7589.294
 162  7696.002
 163  7921.435
 164  7787.454
 165  7636.238
 166  7456.436
 167  7148.965
 168  6658.903
 169  7149.537
 170  7434.476
 171  7839.309
 172  8112.169
 173  8090.828
 174  7627.268
 175  7765.175
 176  8069.729
 177  7895.345
 178  8324.126
 179  8321.943
 180  7787.636
 181  7743.935
 182  8109.366
 183  8304.539
 184  8548.012
 185  8397.146
 186  8337.81
 187  7824.702
 188  7806.693
 189  8061.42
 190  8236.213
 191  8573.759
 192  8537.605
 193  8455.52
 194  8048.095
 195  7829.951
 196  7902.142
 197  8216.892
 198  8523.212
 199  8526.102
 200  8511.053
 201  8345.146
 202  8494.792
 203  8684.963
 204  8879.614
 205  8369.511
 206  8230.029
 207  8447.049
 208  8509.59
 209  8573.446
 210  8260.095
 211  8502.188
 212  8531.601
 213  8374.189
 214  8337.895
 215  8303.374
 216  8356.153
 217  8235.027
 218  8058.39
 219  8161.44
 220  8172.912
 221  8100.951
 222  7871.45
 223  7903.758
 224  8402.438
 225  9046.924
 226  9121.597
 227  9082.428
 228  8247.822
 229  8068.099
 230  8200.044
 231  8467.646
 232  8741.79
 233  8285.879
 234  7770.115
 235  7047.577
 236  7456.708
 237  7642.318
 238  7850.022
 239  7739.869
 240  7447.48
 241  7612.592
 242  8144.425
 243  7706.089
 244  7576.234
 245  7407.484
 246  7468.748
 247  6949.564
 248  7299.872
 249  7327.448
 250  7014.526
 251  7196.362
 252  7120.221
 253  6483.524
 254  6522.573
 255  7127.017
 256  6870.925
 257  5968.945
 258  5900.275
 259  5958.024
 260  6510.442
 261  6778.859
 262  7211.384
 263  7327.217
 264  6717.798
 265  6475.589
 266  6518.455
 267  6805.608
 268  7038.622
 269  7301.578
 270  7295.248
 271  7000.356
 272  6874.566
 273  6982.062
 274  6810.885
 275  7149.894
 276  7402.866
 277  7309.656
 278  7551.723
 279  7714.239
 280  7436.328
 281  7543.271
 282  7550.567
 283  7216.592
 284  6683.647
 285  7015.841
 286  6895.192
 287  7276.511
 288  7232.463
 289  7106.488
 290  7067.215
 291  7008.636
 292  7410.821
 293  7332.442
 294  7314.439
 295  7451.842
 296  7517.044
 297  7242.891
 298  7555.74
 299  7770.088
 300  7821.356
 301  7298.335
 302  7542.297
 303  8370.219
 304  8568.766
 305  8463.648
 306  8776.79
 307  8616.44
 308  8009.799
 309  8021.567
 310  8112.322
 311  7669.12
 312  8142.783
 313  7937.769
 314  7596.817
 315  7697.487
 316  7404.931
 317  7939.499
 318  8133.897
 319  8042.511
 320  7620.159
 321  7571.381
 322  7382.245
 323  7313.316
 324  6987.68
 325  7043.341
 326  7696.954
 327  7867.143
 328  7670.084
 329  7182.839
 330  7351.917
 331  7402.897
 332  7086.065
 333  7029.142
 334  7645.354
 335  7827.697
 336  7696.23
 337  7584.104
 338  7206.333
 339  7088.118
 340  7175.887
 341  7566.925
 342  7859.5
 343  7400.393
 344  7384.167
 345  7792.954
 346  7375.94
 347  7320.232
 348  7848.849
 349  7649.214
 350  7725.311
 351  8023.939
 352  7920.355
 353  7977.342
 354  7879.178
 355  7554.458
 356  7626.895
 357  7746.169
 358  7609.38
 359  7934.745
 360  7801.828
 361  7487.684
 362  7390.751
 363  7198.734
 364  7419.337
 365  7371.476
 366  7521.52
 367  6956.173
 368  6952.4
 369  7132.047
 370  6869.347
 371  7553.73
 372  7442.525
 373  7154.564
 374  7447.188
 375  7670.541
 376  7490.038
 377  7181.438
 378  7608.117
 379  7663.005
 380  7570.423
 381  6899.124
 382  7390.326
 383  7432.83
 384  7210.94
 385  7116.374
 386  7368.079
 387  7370.433
 388  7271.904
 389  6550.907
 390  6486.355
 391  6795.541
 392  6832.837
 393  7271.923
 394  7213.737
 395  7331.456
 396  6479.923
 397  6094.41
 398  5743.96
 399  6071.939
 400  6501.068
 401  6084.782
 402  6233.751
 403  6625.042
 404  6382.604
 405  6102.675
 406  5950.605
 407  6075.893
 408  5776.51
 409  5823.729
 410  5912.255
 411  5742.041
 412  5972.271
 413  6555.93
 414  6677.699
 415  6640.761
 416  6089.819
 417  6660.363
 418  6857.344
 419  6669.619
 420  6773.384
 421  7322.209
 422  7277.438
 423  7252.639
 424  6896.609
 425  7084.536
 426  6602.006
 427  6483.198
 428  6981.293
 429  6793.34
 430  6275.45
 431  6376.066
 432  6357.69
 433  6219.703
 434  5962.3
 435  6271.66
 436  6262.656
 437  6132.985
 438  6097.999
 439  6709.927
 440  7351.679
 441  7080.183
 442  6923.962
 443  7261.03
 444  7677.196
 445  7354.554
 446  7188.199
 447  7287.452
 448  6964.216
 449  7067.363
 450  7635.289
 451  7332.757
 452  6690.962
 453  6887.196
 454  7324.148
 455  7120.796
 456  7227.107
 457  7906.99
 458  7785.34
 459  7851.94
 460  7471
 461  7407.638
 462  7396.306
 463  7582.831
 464  7402.595
 465  7483.925
 466  7505.977
 467  7006.178
 468  6807.281
 469  6259.507
 470  5931.888
 471  6400.036
 472  6309.003
 473  6737.826
 474  7017.614
 475  7110.289
 476  6960.2
 477  6963.631
 478  6662.849
 479  5901.149
 480  5827.964
 481  6603.211
 482  7174.796
 483  7171.606
 484  6828.066
 485  6708.237
 486  6520.685
 487  6756.231
 488  6744.14
 489  6750.095
 490  6522.879
 491  6146.721
 492  6112.52
 493  6491.661
 494  5992.629
 495  5634.194
 496  6298.404
 497  6467.66
 498  7156.336
 499  7657.416
 500  7659.74
 501  8160.932
 502  8217.069
 503  8106.88
 504  7976.559
 505  7356.532
 506  7657.066
 507  7881.413
 508  7813.236
 509  7453.309
 510  7259.535
 511  7079.582
