# Input file       =  1203155681.096231_cleaned.dat
# Candidate        =  PSR_0332+5434
# Telescope        =  AR
# Epoch_topo       =  58169.413195558227
# Epoch_bary       =  N/A
# T_sample         =  0.002
# Data Folded      =  7405568
# Data Avg         =  0.0538645934112956
# Data StdDev      =  1.00018365564726 
# Profile Bins     =  512
# Profile Avg      =  779.082593798805 
# Profile StdDev   =  120.288458625197 
# Reduced chi-sqr  =  0.782
# Prob(Noise)      <  1   (~0.0 sigma)
# P_topo (ms)      =  714.580620019776  +/- 0.000446
# P'_topo (s/s)    =  -0                +/- 2.33e-10
# P''_topo (s/s^2) =  0                 +/- 1.02e-13
# P_bary (ms)      =  N/A
# P'_bary (s/s)    =  N/A
# P''_bary (s/s^2) =  N/A
# P_orb (s)        =  N/A
# asin(i)/c (s)    =  N/A
# eccentricity     =  N/A
# w (rad)          =  N/A
# T_peri           =  N/A
######################################################
   0  721.4139
   1  666.011
   2  749.7299
   3  838.7371
   4  730.8304
   5  686.7322
   6  710.7812
   7  636.1564
   8  605.3838
   9  652.9503
  10  735.2235
  11  621.8065
  12  588.3017
  13  687.3925
  14  693.7892
  15  667.499
  16  696.3193
  17  758.8195
  18  731.7351
  19  736.3699
  20  729.2585
  21  725.9219
  22  651.1703
  23  660.0644
  24  720.943
  25  745.1892
  26  730.6949
  27  732.8448
  28  821.3071
  29  756.4882
  30  712.2332
  31  662.3017
  32  716.2081
  33  709.0289
  34  691.5644
  35  760.9254
  36  738.016
  37  758.9872
  38  892.4426
  39  785.7367
  40  770.6552
  41  755.2916
  42  686.3354
  43  672.0911
  44  726.4436
  45  731.2463
  46  739.5454
  47  716.3841
  48  745.2927
  49  746.543
  50  743.3792
  51  760.0311
  52  687.8986
  53  666.8096
  54  710.5165
  55  718.3549
  56  696.8905
  57  669.9584
  58  645.8624
  59  598.0408
  60  704.6398
  61  666.1258
  62  733.1621
  63  747.2001
  64  695.1853
  65  680.2707
  66  663.2417
  67  787.5891
  68  806.286
  69  748.3361
  70  854.2706
  71  791.09
  72  811.4489
  73  814.2062
  74  766.5739
  75  790.3028
  76  788.6144
  77  782.8313
  78  811.3329
  79  820.5975
  80  812.7048
  81  832.0867
  82  856.27
  83  838.7861
  84  818.3558
  85  889.4867
  86  966.5674
  87  853.6747
  88  762.2318
  89  782.8376
  90  790.9637
  91  724.0518
  92  702.3889
  93  697.1041
  94  752.6149
  95  767.7147
  96  849.4565
  97  855.5285
  98  895.5933
  99  894.7845
 100  809.8706
 101  849.0312
 102  859.2517
 103  809.2858
 104  872.7214
 105  872.6827
 106  829.7385
 107  854.3698
 108  789.379
 109  870.3161
 110  861.9377
 111  793.4302
 112  827.705
 113  863.3879
 114  935.3984
 115  841.5497
 116  835.2139
 117  832.1047
 118  908.2567
 119  963.4684
 120  856.8055
 121  831.0656
 122  740.4496
 123  854.7004
 124  847.9931
 125  850.9814
 126  835.5408
 127  843.3734
 128  772.5182
 129  748.5397
 130  803.1208
 131  808.8444
 132  824.4717
 133  786.9648
 134  746.6636
 135  821.2112
 136  748.8908
 137  784.5558
 138  820.2051
 139  773.129
 140  671.4675
 141  736.4075
 142  825.1541
 143  790.5204
 144  791.5744
 145  836.7203
 146  822.8266
 147  800.3393
 148  767.7391
 149  878.1612
 150  869.2116
 151  850.3146
 152  780.8991
 153  820.416
 154  868.5848
 155  723.3837
 156  746.9562
 157  836.3851
 158  803.7236
 159  801.8398
 160  817.4923
 161  800.9242
 162  697.1906
 163  660.8989
 164  757.1548
 165  813.9292
 166  811.0872
 167  903.0183
 168  865.8107
 169  829.1802
 170  770.6539
 171  752.5217
 172  790.2518
 173  827.2175
 174  804.5189
 175  735.7776
 176  675.4734
 177  769.7303
 178  701.8644
 179  733.0273
 180  829.2276
 181  864.0463
 182  889.314
 183  882.5591
 184  884.9856
 185  912.3473
 186  993.2615
 187  984.5983
 188  798.0544
 189  793.8989
 190  844.9207
 191  1009.33
 192  1143.633
 193  1111.418
 194  1084.183
 195  1049.951
 196  924.8617
 197  854.0447
 198  839.3535
 199  862.309
 200  803.553
 201  758.468
 202  814.8152
 203  799.9003
 204  766.8071
 205  775.2017
 206  814.9745
 207  848.2308
 208  869.8012
 209  877.9208
 210  886.3002
 211  767.6809
 212  727.1981
 213  723.0557
 214  733.5306
 215  832.6424
 216  778.3746
 217  809.4682
 218  771.928
 219  830.6964
 220  757.3898
 221  803.8576
 222  701.8383
 223  783.2219
 224  692.9834
 225  720.0051
 226  731.7591
 227  772.3195
 228  822.2291
 229  806.1186
 230  829.2129
 231  785.0988
 232  779.0436
 233  746.0269
 234  790.8737
 235  827.2423
 236  762.8089
 237  788.5168
 238  819.2108
 239  811.5312
 240  745.4781
 241  637.7336
 242  698.9335
 243  601.7914
 244  602.5637
 245  595.7577
 246  570.2391
 247  716.7408
 248  869.3735
 249  840.5504
 250  838.2519
 251  802.5236
 252  815.4824
 253  809.9412
 254  673.8625
 255  719.9272
 256  748.9001
 257  715.2036
 258  751.1586
 259  709.5972
 260  618.0792
 261  602.8492
 262  681.2415
 263  764.3344
 264  773.6909
 265  757.9248
 266  736.6708
 267  681.0632
 268  686.512
 269  615.0693
 270  682.6989
 271  866.9494
 272  745.8073
 273  620.9863
 274  720.3099
 275  790.9516
 276  694.8085
 277  814.9191
 278  811.221
 279  776.1869
 280  726.9625
 281  735.0494
 282  777.4464
 283  836.2768
 284  878.4833
 285  806.2089
 286  803.0871
 287  743.6014
 288  720.7692
 289  778.1495
 290  808.4199
 291  896.0761
 292  931.4055
 293  790.2982
 294  805.3452
 295  752.957
 296  673.0415
 297  751.0817
 298  737.1378
 299  737.1575
 300  856.8306
 301  778.7042
 302  806.5032
 303  652.8334
 304  681.0486
 305  784.8597
 306  777.3567
 307  768.5977
 308  844.4612
 309  809.6261
 310  687.8961
 311  788.0541
 312  897.0359
 313  742.2416
 314  784.0724
 315  885.1379
 316  856.5173
 317  837.3873
 318  812.9341
 319  803.5748
 320  756.6508
 321  786.2944
 322  882.1571
 323  802.7638
 324  704.1671
 325  793.0536
 326  734.7198
 327  753.3115
 328  833.907
 329  811.126
 330  833.1757
 331  724.9941
 332  716.302
 333  752.5287
 334  803.1461
 335  818.603
 336  869.631
 337  786.2379
 338  755.7236
 339  780.4975
 340  805.7488
 341  770.528
 342  689.8361
 343  761.1735
 344  847.3284
 345  779.2964
 346  737.9702
 347  736.402
 348  843.5469
 349  874.2551
 350  836.5934
 351  800.1935
 352  778.2867
 353  795.3207
 354  822.2013
 355  870.9189
 356  819.4279
 357  711.3874
 358  707.3123
 359  781.1201
 360  843.484
 361  779.3661
 362  857.7435
 363  862.0802
 364  858.4276
 365  876.4583
 366  807.8339
 367  805.3184
 368  905.9666
 369  883.3607
 370  677.0573
 371  864.6611
 372  841.3253
 373  795.9429
 374  752.6396
 375  733.2043
 376  748.5168
 377  691.4586
 378  718.7352
 379  606.3681
 380  659.4434
 381  898.9986
 382  960.1656
 383  859.9982
 384  787.8117
 385  819.9009
 386  795.6793
 387  685.6336
 388  758.8007
 389  907.0567
 390  924.9404
 391  863.0798
 392  846.4171
 393  894.8137
 394  798.4492
 395  723.5463
 396  772.1483
 397  813.6346
 398  818.3159
 399  805.3683
 400  868.1592
 401  838.1335
 402  811.2972
 403  812.5993
 404  829.8046
 405  758.7487
 406  797.6864
 407  697.988
 408  664.405
 409  775.7988
 410  729.4886
 411  742.1072
 412  714.0688
 413  747.5259
 414  797.1377
 415  819.424
 416  792.2028
 417  694.3588
 418  799.4832
 419  764.7343
 420  731.6901
 421  752.3944
 422  731.5756
 423  670.8911
 424  696.5289
 425  725.6938
 426  687.8394
 427  687.553
 428  781.553
 429  793.2201
 430  791.136
 431  721.4235
 432  774.6048
 433  810.7537
 434  827.0806
 435  853.4377
 436  760.3638
 437  788.9547
 438  677.0468
 439  734.5424
 440  756.0248
 441  841.9841
 442  832.6526
 443  774.6985
 444  877.2903
 445  784.3555
 446  802.874
 447  873.9762
 448  905.0967
 449  865.5888
 450  872.3192
 451  856.2688
 452  733.391
 453  707.3849
 454  802.5786
 455  781.3757
 456  717.9589
 457  840.4504
 458  856.1899
 459  761.7728
 460  678.2636
 461  682.7671
 462  695.6732
 463  668.7898
 464  665.9223
 465  663.0643
 466  711.778
 467  774.745
 468  777.2819
 469  772.0424
 470  812.7321
 471  819.7233
 472  765.8306
 473  624.5286
 474  672.2065
 475  749.2371
 476  736.9659
 477  712.8853
 478  714.1382
 479  845.26
 480  898.3887
 481  815.7328
 482  796.9492
 483  718.6865
 484  821.4155
 485  672.9833
 486  720.9166
 487  790.0534
 488  677.7552
 489  741.3491
 490  784.4043
 491  693.6049
 492  692.6716
 493  700.4584
 494  712.2
 495  773.0835
 496  761.0414
 497  714.4598
 498  770.3697
 499  824.0557
 500  839.2937
 501  804.3799
 502  806.4976
 503  667.1618
 504  722.3011
 505  762.3656
 506  679.6343
 507  739.9024
 508  765.1924
 509  750.9979
 510  780.8065
 511  817.7784
