# Input file       =  1203242249.109574_cleaned.dat
# Candidate        =  PSR_0332+5434
# Telescope        =  AR
# Epoch_topo       =  58170.415140157107
# Epoch_bary       =  N/A
# T_sample         =  0.002
# Data Folded      =  7208960
# Data Avg         =  0.612416099607732
# Data StdDev      =  5.5601859634457  
# Profile Bins     =  512
# Profile Avg      =  8622.44233514981 
# Profile StdDev   =  659.767083681225 
# Reduced chi-sqr  =  2.257
# Prob(Noise)      <  1.34e-51   (~15.1 sigma)
# P_topo (ms)      =  714.580668954885  +/- 3.41e-05
# P'_topo (s/s)    =  -0                +/- 1.83e-11
# P''_topo (s/s^2) =  0                 +/- 8.23e-15
# P_bary (ms)      =  N/A
# P'_bary (s/s)    =  N/A
# P''_bary (s/s^2) =  N/A
# P_orb (s)        =  N/A
# asin(i)/c (s)    =  N/A
# eccentricity     =  N/A
# w (rad)          =  N/A
# T_peri           =  N/A
######################################################
   0  9704.683
   1  9453.695
   2  9267.984
   3  9298.675
   4  9367.052
   5  9451.928
   6  9612.614
   7  9517.368
   8  8792.928
   9  8498.267
  10  8507.777
  11  8754.934
  12  9306.518
  13  9788.401
  14  10156.19
  15  10095.32
  16  9730.655
  17  8944.095
  18  8786.251
  19  8757.457
  20  8600.116
  21  8536.463
  22  8827.146
  23  8869.82
  24  8542.03
  25  7865.037
  26  7710.046
  27  8168.754
  28  8242.02
  29  8950.886
  30  9706.979
  31  9442.517
  32  9055.695
  33  9129.226
  34  8951.651
  35  8235.377
  36  8264.543
  37  8337.915
  38  8369.663
  39  8415.743
  40  7874.631
  41  7555.173
  42  7191.684
  43  7687.225
  44  8221.02
  45  8746.267
  46  9121.586
  47  9526.388
  48  9270.463
  49  8535.937
  50  8347.603
  51  8457.926
  52  8247.44
  53  8361.984
  54  8583.788
  55  8864.027
  56  8762.938
  57  8200.47
  58  7801.239
  59  7830.989
  60  8205.072
  61  8086.556
  62  8668.567
  63  9230.62
  64  9151.429
  65  9129.421
  66  8116.194
  67  8112.535
  68  8457.236
  69  8490.283
  70  8267.186
  71  8431.42
  72  8735.243
  73  8119.787
  74  7958.76
  75  7655.118
  76  7871.352
  77  8075.917
  78  8657.991
  79  9030.256
  80  9236.292
  81  9786.859
  82  9090.863
  83  8726.53
  84  8459.132
  85  8211.982
  86  8276.307
  87  8331.271
  88  8773.604
  89  8352.187
  90  8126.112
  91  7768.077
  92  7653.2
  93  7758.122
  94  8571.36
  95  9067.716
  96  9422.945
  97  9458.364
  98  9418.787
  99  8757.357
 100  8486.724
 101  8674.782
 102  8587.996
 103  8367.084
 104  8654.138
 105  8890.791
 106  8261.909
 107  7520.026
 108  7671.498
 109  7911.739
 110  8174.72
 111  8378.058
 112  9260.68
 113  9560.021
 114  9408.079
 115  8828.851
 116  8759.681
 117  8665.32
 118  8620.214
 119  8513.789
 120  8609.978
 121  8742.058
 122  8758.912
 123  8402.238
 124  8053.41
 125  7988.023
 126  8294.948
 127  8935.357
 128  9284.889
 129  9456.613
 130  9335.169
 131  9540.778
 132  8561.079
 133  8306.292
 134  8591.278
 135  8600.725
 136  8700.441
 137  9155.032
 138  9232.572
 139  8544.768
 140  8012.853
 141  7815.634
 142  8082.137
 143  8308.96
 144  8678.315
 145  9875.584
 146  10145.25
 147  9848.906
 148  9380.353
 149  8580.996
 150  8096.241
 151  8535.046
 152  8503.64
 153  8706.754
 154  8864.735
 155  8737.807
 156  8052.749
 157  7640.638
 158  7671.983
 159  8009.506
 160  8579.12
 161  9077.93
 162  9237.984
 163  9080.183
 164  8822.813
 165  8521.007
 166  8408.553
 167  8663.929
 168  8514.919
 169  8431.418
 170  8594.812
 171  8446.673
 172  8157.156
 173  7767.451
 174  7822.362
 175  7986.412
 176  8038.574
 177  8745.811
 178  9051.738
 179  9599.462
 180  9781.021
 181  9154.747
 182  8339.392
 183  7905.967
 184  7974.202
 185  7967.054
 186  8195.99
 187  8531.178
 188  8491.747
 189  7874.183
 190  7525.419
 191  7525.74
 192  7617.188
 193  8322.571
 194  8712.031
 195  8910.122
 196  8935.657
 197  8837.734
 198  8569.908
 199  8230.503
 200  8162.744
 201  8223.324
 202  8081.644
 203  8341.076
 204  8539.294
 205  8264.172
 206  7623.495
 207  7422.895
 208  7615.139
 209  7806.164
 210  8157.203
 211  8799.514
 212  9548.523
 213  9404.557
 214  9263.124
 215  8740.027
 216  8366.722
 217  8284.929
 218  8175.639
 219  8419.02
 220  8385.692
 221  8280.635
 222  7823.722
 223  7421.441
 224  7441.246
 225  7680.936
 226  7875.502
 227  8111.929
 228  9105.909
 229  9126.588
 230  8772.025
 231  8082.153
 232  8154.256
 233  7800.855
 234  8080.54
 235  8140.672
 236  7765.601
 237  7789.133
 238  7598.279
 239  7221.221
 240  7262.458
 241  7449.186
 242  7748.88
 243  8133.117
 244  8927.529
 245  8949.76
 246  8522.762
 247  8137.3
 248  8084.201
 249  7597.204
 250  8017.305
 251  8332.125
 252  8228.239
 253  8424.212
 254  8149.873
 255  7670.997
 256  7359.623
 257  7398.19
 258  7267.325
 259  7441.472
 260  8008.288
 261  8465.461
 262  8789.129
 263  8547.417
 264  7749.584
 265  7758.591
 266  7629.242
 267  7555.223
 268  7413.582
 269  7293.693
 270  7848.626
 271  7542.496
 272  7318.647
 273  7000.136
 274  7141.164
 275  7417.693
 276  7839.241
 277  8315.896
 278  8547.15
 279  8292.834
 280  7865.709
 281  7515.249
 282  7581.275
 283  7555.488
 284  7702.807
 285  8007.158
 286  8182.15
 287  8087.604
 288  7550.1
 289  7409.768
 290  7020.57
 291  6985.224
 292  7806.533
 293  8584.957
 294  9135.351
 295  9208.794
 296  9030.314
 297  8541.003
 298  8003.416
 299  8099.072
 300  7797.724
 301  7793.26
 302  8146.68
 303  8620.636
 304  8903.782
 305  8345.027
 306  8325.837
 307  8369.353
 308  8349.528
 309  8471.279
 310  8316.387
 311  8584.879
 312  8686.041
 313  8650.489
 314  8159.539
 315  7941.766
 316  8429.425
 317  8099.724
 318  7518.26
 319  7817.969
 320  8010.372
 321  8044.682
 322  7428.709
 323  7436.604
 324  7645.334
 325  7991.618
 326  8628.877
 327  9288.02
 328  9780.473
 329  9416.153
 330  8618.319
 331  8274.141
 332  8343.297
 333  8449.368
 334  8669.482
 335  8768.347
 336  8856.243
 337  8486.43
 338  8100.339
 339  7557.683
 340  7735.395
 341  8156.704
 342  8415.053
 343  9078.879
 344  9539.019
 345  9622.971
 346  9737.529
 347  9031.366
 348  9037.876
 349  8635.528
 350  8300.73
 351  8396.354
 352  8913.431
 353  9008.276
 354  8233.204
 355  7748.776
 356  7802.998
 357  8050.539
 358  8510.212
 359  9190.291
 360  9419.212
 361  9574.179
 362  9651.843
 363  9238.709
 364  9074.063
 365  9141.357
 366  8628.847
 367  8646.695
 368  9044.013
 369  9464.878
 370  9181.333
 371  8615.882
 372  8219.002
 373  8592.777
 374  8590.864
 375  9001.113
 376  9268.537
 377  9883.64
 378  10115.63
 379  9919.077
 380  9575.745
 381  9186.178
 382  8718.166
 383  8828.562
 384  8572.604
 385  8477.689
 386  8858.667
 387  8453.516
 388  8231.396
 389  8268.517
 390  8592.603
 391  8794.294
 392  8970.296
 393  9525.577
 394  9739.326
 395  9808.354
 396  9223.378
 397  8814.596
 398  8931.987
 399  9057.763
 400  8877.04
 401  8866.755
 402  9115.574
 403  8835.224
 404  8550.941
 405  7950.355
 406  7706.892
 407  8102.68
 408  8381.388
 409  9212.372
 410  9660.357
 411  9455.612
 412  8928.641
 413  8685.508
 414  8159.472
 415  8496.935
 416  8398.745
 417  8365.443
 418  8500.188
 419  8666.933
 420  8229.411
 421  7667.301
 422  7611.608
 423  8013.642
 424  8503.58
 425  8585.749
 426  9535.527
 427  9413.206
 428  9078.851
 429  8696.327
 430  8519.04
 431  8667.703
 432  8321.143
 433  8289.848
 434  8595.681
 435  9204.19
 436  8806.022
 437  8072.692
 438  7890.19
 439  7692.658
 440  8018.149
 441  8540.899
 442  8915.132
 443  9080.001
 444  9226.108
 445  9474.996
 446  8965.837
 447  8852.244
 448  8380.877
 449  8065.296
 450  8005.383
 451  8471.196
 452  8799.815
 453  8927.941
 454  8172.464
 455  7885.55
 456  8590.295
 457  8796.787
 458  9029.827
 459  9329.627
 460  9804.679
 461  9703.294
 462  9234.823
 463  8914.189
 464  9204.42
 465  9348.089
 466  9100.294
 467  9258.396
 468  9448.495
 469  9440.954
 470  8706.464
 471  8582.364
 472  8879.165
 473  9033.132
 474  9343.848
 475  9726.397
 476  10458.72
 477  11004.28
 478  10825.94
 479  9955.06
 480  9677.044
 481  9624.338
 482  9765.401
 483  9621.153
 484  9992.117
 485  10429.85
 486  9896.389
 487  9549.611
 488  8969.472
 489  9188.104
 490  9298.132
 491  9954.669
 492  10389.4
 493  10637.51
 494  10599.8
 495  10155.29
 496  9845.477
 497  9663.691
 498  9469.136
 499  9441.199
 500  9987.233
 501  10268.85
 502  9732.583
 503  9456.478
 504  8955.183
 505  9180.579
 506  9123.141
 507  9653.927
 508  10000.6
 509  10674.63
 510  10244.18
 511  10227.85
