# Input file       =  1203343110.089843_cleaned.dat
# Candidate        =  PSR_0332+5434
# Telescope        =  AR
# Epoch_topo       =  58171.582512613924
# Epoch_bary       =  N/A
# T_sample         =  0.002
# Data Folded      =  7340032
# Data Avg         =  0.0792051091027943
# Data StdDev      =  1.00041328825954 
# Profile Bins     =  512
# Profile Avg      =  1135.57091889275 
# Profile StdDev   =  119.78252063498  
# Reduced chi-sqr  =  1.527
# Prob(Noise)      <  1.44e-13   (~7.3 sigma)
# P_topo (ms)      =  714.58072971464   +/- 0.000861
# P'_topo (s/s)    =  -0                +/- 4.54e-10
# P''_topo (s/s^2) =  0                 +/- 2.01e-13
# P_bary (ms)      =  N/A
# P'_bary (s/s)    =  N/A
# P''_bary (s/s^2) =  N/A
# P_orb (s)        =  N/A
# asin(i)/c (s)    =  N/A
# eccentricity     =  N/A
# w (rad)          =  N/A
# T_peri           =  N/A
######################################################
   0  1560.098
   1  1565.917
   2  1493.006
   3  1484.47
   4  1346.259
   5  1243.912
   6  1335.41
   7  1338.387
   8  1340.308
   9  1253.509
  10  1179.009
  11  1202.537
  12  1220.76
  13  1231.159
  14  1324.288
  15  1282.339
  16  1243.302
  17  1281.822
  18  1305.814
  19  1248.947
  20  1214.731
  21  1217.162
  22  1147.85
  23  1209.039
  24  1190.753
  25  1191.838
  26  1143.763
  27  1127.707
  28  1115
  29  1099.123
  30  1171.836
  31  1195.171
  32  1119.625
  33  1164.829
  34  1194.407
  35  1119.642
  36  1148.593
  37  1211.463
  38  1129.793
  39  1177.074
  40  1178.834
  41  1165.207
  42  1123.321
  43  1153.647
  44  1158.061
  45  1124.778
  46  1085.97
  47  1115.634
  48  1110.871
  49  1047.39
  50  1112.833
  51  1160.099
  52  1166.645
  53  1165.884
  54  1135.435
  55  1210.156
  56  1219.739
  57  1199.885
  58  1138.23
  59  1244.337
  60  1265.717
  61  1291.304
  62  1166.805
  63  1248.935
  64  1284.593
  65  1228.451
  66  1178.237
  67  1228.009
  68  1242.133
  69  1192.449
  70  1185.168
  71  1201.349
  72  1207.186
  73  1160.39
  74  1192.308
  75  1122.681
  76  1095.632
  77  1091.637
  78  1093.425
  79  1121.652
  80  1087.004
  81  1094.005
  82  940.5113
  83  1018.157
  84  1107.049
  85  1097.182
  86  1028.731
  87  990.1469
  88  988.5756
  89  1012.359
  90  1004.016
  91  971.5189
  92  1078.516
  93  1058.638
  94  1051.63
  95  988.1088
  96  992.4922
  97  1031.732
  98  1016.768
  99  1024.492
 100  1060.243
 101  1078.979
 102  1077.371
 103  1068.106
 104  1085.198
 105  1077.94
 106  1078.614
 107  1130.408
 108  1114.184
 109  1080.65
 110  1084.184
 111  1106.812
 112  1136.723
 113  1126.723
 114  1019.473
 115  1047.858
 116  997.6812
 117  1111.649
 118  1066.417
 119  1005.221
 120  1027.54
 121  1112.558
 122  1065.554
 123  1010.155
 124  947.3945
 125  944.9199
 126  988.6668
 127  1047.51
 128  1124.696
 129  1116.113
 130  1083.655
 131  1041.19
 132  981.4283
 133  1093.183
 134  1102.157
 135  1119.693
 136  1102.603
 137  1037.351
 138  993.5074
 139  1063.938
 140  1095.271
 141  1083.221
 142  1063.499
 143  1044.013
 144  1032.84
 145  1025.892
 146  1061.554
 147  992.7168
 148  1015.625
 149  1060.167
 150  1054.021
 151  1008.903
 152  1009.202
 153  1000.023
 154  1013.188
 155  1025.745
 156  1059.834
 157  1088.379
 158  923.134
 159  949.2172
 160  1054.626
 161  1072.983
 162  1036.551
 163  1102.78
 164  1026.562
 165  1045.904
 166  1116.629
 167  1136.495
 168  1117.052
 169  1056.022
 170  1100.401
 171  1199.632
 172  1126.157
 173  1139.919
 174  1096.695
 175  1131.787
 176  1120.397
 177  1128.605
 178  1120.265
 179  1062.711
 180  1085.921
 181  1111.184
 182  1139.276
 183  1116.938
 184  1032.749
 185  998.4147
 186  1029.357
 187  1101.193
 188  1179.453
 189  1096.188
 190  1182.83
 191  1147.623
 192  1108.566
 193  1068.206
 194  1044.297
 195  1053.852
 196  1073.903
 197  1023.994
 198  1029.734
 199  1011.751
 200  997.9524
 201  1011.102
 202  1009.185
 203  1127.554
 204  1115.026
 205  1101.489
 206  1061.008
 207  1128.343
 208  1211.907
 209  1145.87
 210  1166.272
 211  1178.725
 212  1146.441
 213  1101.4
 214  1074.131
 215  1023.693
 216  1063.672
 217  983.681
 218  919.3204
 219  1006.565
 220  1064.928
 221  1020.712
 222  1039.861
 223  1078.869
 224  1124.828
 225  1057.297
 226  1060.898
 227  1060.629
 228  988.5331
 229  948.8262
 230  1060.431
 231  1070.762
 232  1039.403
 233  940.6498
 234  981.2131
 235  1019.464
 236  1020.484
 237  1074.885
 238  1014.111
 239  1033.734
 240  1068.58
 241  1039.197
 242  1045.536
 243  1123.902
 244  1089.127
 245  1023.76
 246  1049.775
 247  1039.038
 248  975.9821
 249  974.7551
 250  995.9966
 251  1063.424
 252  1103.032
 253  1085.509
 254  1045.487
 255  948.9376
 256  1051.288
 257  1016.064
 258  1052.84
 259  1011.65
 260  1048.804
 261  1096.312
 262  1064.287
 263  1100.934
 264  1080.495
 265  1132.013
 266  1092.496
 267  1159.961
 268  1147.094
 269  1176.232
 270  1128.107
 271  1112.781
 272  1065.352
 273  1077.56
 274  1145.609
 275  1123.411
 276  1101.529
 277  1108.061
 278  1108.429
 279  1097.599
 280  1084.67
 281  1055.922
 282  1109.206
 283  1158.402
 284  1113.479
 285  1120.597
 286  1108.321
 287  1083.533
 288  1098.854
 289  1040.107
 290  1046.709
 291  1148.877
 292  1219.366
 293  1175.518
 294  1089.126
 295  1061.329
 296  1145.15
 297  1164.509
 298  1098.294
 299  1099.21
 300  1092.205
 301  1079.155
 302  1051.857
 303  1107.55
 304  1119.154
 305  1213.98
 306  1262.832
 307  1233.584
 308  1226.463
 309  1209.227
 310  1178.003
 311  1146.025
 312  1244.307
 313  1273.146
 314  1223.892
 315  1248.426
 316  1173.516
 317  1164.97
 318  1198.34
 319  1198.862
 320  1113.967
 321  1102.644
 322  1122.42
 323  1130.705
 324  1193.187
 325  1206.592
 326  1207.716
 327  1185.771
 328  1075.722
 329  1124.004
 330  1136.012
 331  1083.169
 332  1051.197
 333  1114.424
 334  1101.986
 335  1037.489
 336  1079.581
 337  994.738
 338  974.9155
 339  960.0916
 340  1095.291
 341  1142.302
 342  1105.245
 343  1080.586
 344  1094.144
 345  1035.849
 346  1069.464
 347  1108.389
 348  1095.394
 349  1203.534
 350  1180.722
 351  1126.593
 352  1015.101
 353  1014.042
 354  1119.964
 355  1145.13
 356  1027.48
 357  1101.448
 358  1063.37
 359  1139.679
 360  1074.052
 361  1074.931
 362  1096.98
 363  1130.86
 364  1169.757
 365  1157.263
 366  1180.678
 367  1098.254
 368  1125.021
 369  1161.471
 370  1150.186
 371  1059.159
 372  1074.579
 373  1214.529
 374  1224.285
 375  1151.097
 376  1207.757
 377  1232.525
 378  1219.404
 379  1184.185
 380  1108.048
 381  1176.279
 382  1160.942
 383  1176.345
 384  1158.938
 385  1160.928
 386  1178.37
 387  1134.785
 388  1158.702
 389  1122.706
 390  1116.274
 391  1084.396
 392  1203.168
 393  1252.268
 394  1235.063
 395  1259.709
 396  1213.177
 397  1172.782
 398  1220.277
 399  1255.481
 400  1192.262
 401  1174.691
 402  1273.625
 403  1283.528
 404  1145.487
 405  1122.479
 406  1177.306
 407  1179.953
 408  1130.249
 409  1129.502
 410  1253.515
 411  1255.002
 412  1244.48
 413  1163.025
 414  1166.68
 415  1125.838
 416  1091.481
 417  1085.629
 418  1183.683
 419  1240.899
 420  1207.785
 421  1120.929
 422  1134.812
 423  1069.791
 424  1077.686
 425  1090.701
 426  1115.222
 427  1087.941
 428  1100.958
 429  1106.157
 430  1102.016
 431  1099.495
 432  1062.092
 433  1043.351
 434  961.4317
 435  1012.054
 436  1092.513
 437  1155.661
 438  1063.968
 439  1006.802
 440  1001.916
 441  1075.515
 442  1104.614
 443  1062.462
 444  1121.706
 445  1151.623
 446  1144.229
 447  1077.183
 448  1005.984
 449  1045.056
 450  1120.908
 451  1100.826
 452  1159.866
 453  1191.595
 454  1192.137
 455  1170.005
 456  1141.226
 457  1148.195
 458  1149.481
 459  1190.436
 460  1249.448
 461  1239.675
 462  1254.148
 463  1196.355
 464  1201.555
 465  1133.664
 466  1185.284
 467  1221.997
 468  1132.536
 469  1181
 470  1152.121
 471  1149.208
 472  1185.405
 473  1150.034
 474  1165.323
 475  1223.807
 476  1208.839
 477  1238.869
 478  1165.51
 479  1224.225
 480  1306.803
 481  1350.158
 482  1396.675
 483  1427.612
 484  1413.007
 485  1407.491
 486  1356.576
 487  1363.104
 488  1342.853
 489  1321.01
 490  1405.582
 491  1450.122
 492  1473.866
 493  1448.132
 494  1377.058
 495  1357.062
 496  1399.212
 497  1398.197
 498  1291.791
 499  1269.246
 500  1257.699
 501  1237.309
 502  1321.271
 503  1366.762
 504  1408.237
 505  1447.524
 506  1388.326
 507  1330.478
 508  1343.201
 509  1474.44
 510  1592.662
 511  1577.46
