# Input file       =  1203956956.133537_cleaned.dat
# Candidate        =  PSR_0332+5434
# Telescope        =  AR
# Epoch_topo       =  58178.687212193719
# Epoch_bary       =  N/A
# T_sample         =  0.002
# Data Folded      =  7340032
# Data Avg         =  0.45425295651304 
# Data StdDev      =  8.81414289869402 
# Profile Bins     =  512
# Profile Avg      =  6512.11435181139 
# Profile StdDev   =  1055.34409231935 
# Reduced chi-sqr  =  0.663
# Prob(Noise)      <  1   (~0.0 sigma)
# P_topo (ms)      =  714.580673975134  +/- 0.000509
# P'_topo (s/s)    =  -0                +/- 2.69e-10
# P''_topo (s/s^2) =  0                 +/- 1.19e-13
# P_bary (ms)      =  N/A
# P'_bary (s/s)    =  N/A
# P''_bary (s/s^2) =  N/A
# P_orb (s)        =  N/A
# asin(i)/c (s)    =  N/A
# eccentricity     =  N/A
# w (rad)          =  N/A
# T_peri           =  N/A
######################################################
   0  5521.171
   1  5841.709
   2  6070.388
   3  5867.751
   4  5833.804
   5  5594.326
   6  5610.573
   7  6054.714
   8  6244.696
   9  5890.084
  10  5497.628
  11  5397.999
  12  5485.151
  13  5553.72
  14  5647.568
  15  5795.286
  16  5418.182
  17  5871.506
  18  6167.741
  19  6267.169
  20  5953.473
  21  5925.182
  22  5904.285
  23  6189.526
  24  6403.639
  25  6091.685
  26  6353.57
  27  6968.286
  28  7034.78
  29  6756.391
  30  6897.397
  31  6638.904
  32  6841.396
  33  7402.297
  34  7316.499
  35  7099.751
  36  6955.275
  37  6910.842
  38  6484.848
  39  6692.364
  40  6862.571
  41  6838.679
  42  6738.728
  43  6480.602
  44  6221.289
  45  7266.463
  46  7245.648
  47  7567.169
  48  7776.86
  49  8098.846
  50  7946.294
  51  7527.683
  52  7705.014
  53  7856.083
  54  7795.588
  55  7555.41
  56  7518.591
  57  7890.288
  58  7666.024
  59  7218.652
  60  7054.95
  61  6632.97
  62  6636.275
  63  6297.535
  64  6449.992
  65  6610.306
  66  6805.784
  67  6267.805
  68  6346.753
  69  6461.835
  70  6203.936
  71  6397.795
  72  6448.778
  73  6198.25
  74  6033.987
  75  6225.972
  76  5994.259
  77  5932.893
  78  5962.691
  79  5787.643
  80  5651.444
  81  5482.292
  82  5279.969
  83  5468.902
  84  5640.576
  85  5910.725
  86  5745.914
  87  5875.686
  88  5737.06
  89  5683.868
  90  5844.792
  91  5764.246
  92  5513.302
  93  5951.97
  94  6549.579
  95  5945.528
  96  5475.425
  97  5516.561
  98  5855.575
  99  5691.188
 100  5444.345
 101  5568.593
 102  5610.731
 103  5212.891
 104  5414.709
 105  5764.44
 106  5947.557
 107  6068.897
 108  5289.082
 109  5396.015
 110  6011.149
 111  6326.703
 112  6663.75
 113  6707.644
 114  6622.334
 115  6527.347
 116  6527.315
 117  6661.834
 118  6961.106
 119  7209.006
 120  7406.149
 121  6916.581
 122  6889.684
 123  6897.567
 124  7333.864
 125  7122.959
 126  7200.787
 127  6864.804
 128  6424.618
 129  6453.418
 130  6457.9
 131  6514.558
 132  6390.939
 133  6216.576
 134  6318.98
 135  6272.63
 136  6222.028
 137  6181.061
 138  5930.366
 139  5819.63
 140  5904.012
 141  6078.026
 142  6051.31
 143  6419.877
 144  6783.452
 145  6901.983
 146  6488.391
 147  6518.005
 148  6577.638
 149  7028.07
 150  7491.095
 151  7170.861
 152  7184.395
 153  6713.601
 154  6362.919
 155  6368.466
 156  6682.655
 157  6795.83
 158  6724.595
 159  6919.776
 160  6691.79
 161  6445.771
 162  6466.676
 163  6289.901
 164  6403.343
 165  6469.474
 166  7239.81
 167  7602.842
 168  7655.294
 169  7029.486
 170  7141.111
 171  6992.247
 172  6859.732
 173  6841.5
 174  6622.192
 175  6460.044
 176  6144.513
 177  6255.978
 178  5990.763
 179  5903.967
 180  6082.296
 181  6337.859
 182  6151.488
 183  6002.71
 184  6021.891
 185  6147.738
 186  6562.72
 187  6764.875
 188  6719.964
 189  6766.296
 190  6782.869
 191  6658.253
 192  6510.097
 193  6187.021
 194  6207.621
 195  6558.742
 196  6457.08
 197  6510.918
 198  6215.751
 199  6273.421
 200  6381.572
 201  6501.593
 202  6484.456
 203  5983.475
 204  5789.403
 205  6037.576
 206  5869.918
 207  6147.392
 208  5998.997
 209  5852.319
 210  5536.574
 211  5830.864
 212  6459.546
 213  6654.844
 214  6354.283
 215  5987.941
 216  5569.479
 217  5705.335
 218  5980.943
 219  5960.1
 220  6604.95
 221  7197.962
 222  7059.668
 223  6795.66
 224  6872.326
 225  6274.761
 226  6268.807
 227  6392.052
 228  6503.57
 229  6651.263
 230  6834.168
 231  6745.351
 232  6580.711
 233  6891.845
 234  6374.957
 235  6601.199
 236  6715.934
 237  6754.113
 238  6546.152
 239  6613.271
 240  6507.646
 241  6524.81
 242  6399.19
 243  6503.459
 244  6568.786
 245  6416.388
 246  6946.668
 247  7397.335
 248  6907.631
 249  6468.219
 250  5793.574
 251  6228.683
 252  6603.937
 253  6688.465
 254  7006.634
 255  7078.298
 256  6465.227
 257  6546.51
 258  6966.115
 259  6983.284
 260  6950.364
 261  7032.443
 262  7201.828
 263  7250.035
 264  7053.664
 265  6949.748
 266  6393.889
 267  6685.705
 268  6780.341
 269  6781.04
 270  6184.542
 271  6029.588
 272  6339.416
 273  6117.26
 274  6292.11
 275  5916.819
 276  6046.575
 277  6070.346
 278  5616.755
 279  5859.718
 280  5602.05
 281  5699.044
 282  5904.616
 283  5931.646
 284  6267.36
 285  6055
 286  5811.716
 287  6167.688
 288  6732.808
 289  6763.617
 290  6913.265
 291  6923.241
 292  6394.468
 293  6808.755
 294  7140.936
 295  7285.014
 296  7148.683
 297  7253.297
 298  7152.832
 299  7073.428
 300  6828.917
 301  7232.891
 302  7286.587
 303  8041.687
 304  8449.365
 305  8329.596
 306  8009.791
 307  7409.011
 308  7261.27
 309  7462.146
 310  7365.105
 311  7772.853
 312  7329.244
 313  6921.666
 314  7008.329
 315  7046.304
 316  6940.931
 317  6733.943
 318  7025.604
 319  7251.377
 320  7154.406
 321  6696.18
 322  6962.214
 323  7270.729
 324  7402.673
 325  7398.826
 326  7803.287
 327  7682.361
 328  7623.521
 329  8093.912
 330  7831.592
 331  7428.292
 332  7143.623
 333  7301.428
 334  7360.061
 335  7129.726
 336  6826.977
 337  6796.239
 338  7015.374
 339  6872.829
 340  6338.671
 341  6576.098
 342  6358.416
 343  6732.779
 344  6564.735
 345  6516.423
 346  6267.665
 347  6044.009
 348  6192.985
 349  5939.545
 350  5983.866
 351  6393.378
 352  5848.6
 353  5410.848
 354  5684.813
 355  5807.175
 356  5790.107
 357  5879.746
 358  6088.518
 359  5850.469
 360  5895.847
 361  6353.35
 362  6568.93
 363  6592.691
 364  6774.175
 365  6825.12
 366  6928.172
 367  7006.079
 368  7265.005
 369  7360.384
 370  7542.166
 371  7281.157
 372  7249.088
 373  7884.069
 374  7999.026
 375  7730.673
 376  7330.672
 377  6761.083
 378  6957.007
 379  7261.936
 380  7461.749
 381  7460.479
 382  7196.944
 383  7120.422
 384  7003.39
 385  6787.629
 386  6733.964
 387  6972.866
 388  6912.119
 389  6307.418
 390  6232.531
 391  6115.782
 392  6050.417
 393  6086.414
 394  6460.978
 395  6498.313
 396  6581.584
 397  7153.75
 398  7205.25
 399  7084.11
 400  6823.468
 401  7319.36
 402  7780.617
 403  7949.37
 404  7461.789
 405  7262.804
 406  7571.812
 407  7544.423
 408  7638.623
 409  7092.356
 410  6860.035
 411  7162.586
 412  7015.323
 413  7175.801
 414  7205.044
 415  6810.888
 416  6656.711
 417  6881.678
 418  6908.156
 419  6569.932
 420  6600.562
 421  6631.999
 422  6591.655
 423  6370.01
 424  6310.842
 425  6391.258
 426  6199.146
 427  6083.845
 428  6103.43
 429  5854.759
 430  5537.112
 431  5939.962
 432  6022.318
 433  6147.707
 434  6455.536
 435  6295.807
 436  6295.327
 437  6098.124
 438  5965.559
 439  5825.381
 440  5625.561
 441  6174.962
 442  6389.195
 443  6513.355
 444  6080.792
 445  5858.572
 446  5421.14
 447  5883.122
 448  6229.079
 449  6294.646
 450  6429.664
 451  6789.544
 452  7085.05
 453  6711.568
 454  6676.352
 455  6356.988
 456  6190.128
 457  6110.223
 458  6248.15
 459  5896.195
 460  5377.294
 461  5646.314
 462  6162.206
 463  5984.694
 464  6227.64
 465  6108.294
 466  6164.518
 467  5951.881
 468  6102.467
 469  6214.401
 470  6779.252
 471  6880.207
 472  6582.768
 473  6447.172
 474  6144.594
 475  6240.77
 476  6380.556
 477  6502.292
 478  6642.074
 479  6518.393
 480  6872
 481  6423.559
 482  6536.092
 483  6850.753
 484  6423.416
 485  6212.61
 486  6702.194
 487  6704.73
 488  6431.766
 489  6717.547
 490  6531.871
 491  6138.596
 492  6221.922
 493  5802.157
 494  5476.581
 495  5570.991
 496  5918.822
 497  5931.822
 498  5728.844
 499  5690.796
 500  5932.1
 501  5764.302
 502  5320.369
 503  5291.174
 504  5119.293
 505  5568.245
 506  5206.385
 507  5845.185
 508  5396.939
 509  5085.185
 510  5365.294
 511  5352.939
