# Input file       =  1203429282.104877_cleaned.dat
# Candidate        =  PSR_0332+5434
# Telescope        =  AR
# Epoch_topo       =  58172.579873899042
# Epoch_bary       =  N/A
# T_sample         =  0.002
# Data Folded      =  7340032
# Data Avg         =  0.538007333990078
# Data StdDev      =  9.95913641368611 
# Profile Bins     =  512
# Profile Avg      =  7712.81399922075 
# Profile StdDev   =  1192.43764250106 
# Reduced chi-sqr  =  1.746
# Prob(Noise)      <  3.88e-23   (~9.8 sigma)
# P_topo (ms)      =  714.580744070334  +/- 0.000615
# P'_topo (s/s)    =  -0                +/- 3.25e-10
# P''_topo (s/s^2) =  0                 +/- 1.43e-13
# P_bary (ms)      =  N/A
# P'_bary (s/s)    =  N/A
# P''_bary (s/s^2) =  N/A
# P_orb (s)        =  N/A
# asin(i)/c (s)    =  N/A
# eccentricity     =  N/A
# w (rad)          =  N/A
# T_peri           =  N/A
######################################################
   0  6855.087
   1  6616.476
   2  6677.34
   3  6871.627
   4  6828.017
   5  6245.303
   6  6097.189
   7  5827.621
   8  6038.048
   9  6365.74
  10  6470.448
  11  6240.058
  12  6572.449
  13  6445.724
  14  7241.013
  15  7347.664
  16  7101.524
  17  7663.727
  18  7898.991
  19  7709.388
  20  7828.541
  21  7759.292
  22  7133.712
  23  6355.854
  24  6327.378
  25  6725.975
  26  6839.42
  27  6904.61
  28  6690.398
  29  6237.662
  30  6047.175
  31  6233.718
  32  6238.014
  33  6436.958
  34  6949.432
  35  7497.55
  36  7964.249
  37  7867.911
  38  7710.594
  39  8160.03
  40  8237.076
  41  7928.117
  42  7917.895
  43  7921.694
  44  8329.963
  45  8486.923
  46  8594.691
  47  8239.89
  48  8122.733
  49  7820.432
  50  7701.206
  51  7480.71
  52  6941.251
  53  7276.875
  54  7988.748
  55  7883.741
  56  8033.868
  57  7594.956
  58  7691.605
  59  7138.992
  60  7350.65
  61  7610.3
  62  7497.947
  63  7851.454
  64  8101.92
  65  8143.551
  66  7952.833
  67  7986.214
  68  8512.458
  69  8421.444
  70  8162.091
  71  7808.063
  72  7286.722
  73  6662.042
  74  6223.999
  75  6658.605
  76  6925.005
  77  6368.936
  78  6615.216
  79  6579.866
  80  6548.683
  81  6236.983
  82  5809.13
  83  5953.155
  84  6015.576
  85  6082.318
  86  6035.37
  87  5768.811
  88  5732.646
  89  5631.076
  90  5715.037
  91  5760.243
  92  5585.184
  93  5553.206
  94  5492.683
  95  5240.287
  96  5599.407
  97  5688.52
  98  6013.263
  99  5895.572
 100  6295.378
 101  5756.827
 102  5742.357
 103  6442.975
 104  6642.849
 105  6659.695
 106  6098.461
 107  6190.266
 108  6209.41
 109  6133.558
 110  6005.481
 111  6174.213
 112  6418.066
 113  7017.519
 114  7310.173
 115  7332.592
 116  6947.931
 117  6757.635
 118  6828.201
 119  7013.489
 120  6767.383
 121  6897.841
 122  7141.446
 123  7388.361
 124  7908.242
 125  7991.617
 126  7810.264
 127  7037.075
 128  6854.393
 129  7529.894
 130  7919.863
 131  7888.611
 132  7718.343
 133  7142.949
 134  6912.309
 135  7151.561
 136  7122.209
 137  6796.775
 138  6172.501
 139  6475.408
 140  6460.769
 141  6627.578
 142  7097.973
 143  7498.707
 144  7390.338
 145  6553.744
 146  5661.461
 147  5800.199
 148  5950.621
 149  6104.005
 150  6445.071
 151  6272.295
 152  6762.411
 153  6885.844
 154  6755.071
 155  6625.703
 156  6895.905
 157  7045.574
 158  7077.263
 159  7739.879
 160  7606.622
 161  7488.308
 162  7508.369
 163  7288.361
 164  7760.523
 165  8044.907
 166  8116.481
 167  7785.354
 168  7289.844
 169  7381.57
 170  7844.071
 171  7783.831
 172  8283.163
 173  8086.629
 174  8089.531
 175  8417.273
 176  8721.055
 177  8472.662
 178  8281.838
 179  8774.563
 180  8371.504
 181  8093.424
 182  8767.431
 183  8686.331
 184  8590.991
 185  8423.394
 186  7717.176
 187  7464.183
 188  6937.155
 189  7266.418
 190  7199.6
 191  6663.565
 192  6270.231
 193  6257.275
 194  6820.982
 195  7289.102
 196  7314.877
 197  7655.204
 198  7458.416
 199  7065.329
 200  7355.215
 201  7089.517
 202  7001.333
 203  7730.616
 204  7568.994
 205  6776.914
 206  6362.313
 207  6281.617
 208  6651.333
 209  6738.331
 210  6941.822
 211  7286.744
 212  7230.692
 213  7111.203
 214  6545.939
 215  6752.68
 216  6676.743
 217  7066.959
 218  8032.553
 219  8317.684
 220  7428.67
 221  7491.124
 222  7111.734
 223  6896.783
 224  7517.116
 225  8127.829
 226  7996.657
 227  7142.58
 228  6403.847
 229  6049.797
 230  6417.856
 231  7121.727
 232  7700.671
 233  7302.295
 234  7288.25
 235  7636.732
 236  7964.498
 237  8506.009
 238  8751.287
 239  8092.16
 240  7959.752
 241  7990.761
 242  7999.257
 243  7956.719
 244  8608.74
 245  8490.981
 246  8591.289
 247  8645.937
 248  8078.149
 249  8631.712
 250  9069.367
 251  8904.838
 252  8392.123
 253  9286.663
 254  9774.347
 255  9293.776
 256  8764.188
 257  8733.82
 258  8680.248
 259  8721.969
 260  9271.111
 261  9513.145
 262  8778.917
 263  8362.366
 264  8614.464
 265  8091.524
 266  8367.382
 267  8824.347
 268  9364.044
 269  9242.127
 270  9046.736
 271  9441.612
 272  9419.943
 273  9891.612
 274  9422.079
 275  9615.088
 276  9860.015
 277  9608.307
 278  9554.715
 279  9913.25
 280  9636.846
 281  9342.34
 282  9336.297
 283  9506.912
 284  9572.733
 285  9051.035
 286  8946.584
 287  9902.281
 288  9882.625
 289  9740.121
 290  9621.691
 291  8978.435
 292  9511.524
 293  10175.24
 294  10385.62
 295  10661.84
 296  10914.18
 297  10850.65
 298  10287.96
 299  10284.2
 300  10399.5
 301  10492.66
 302  11385.15
 303  11479.42
 304  11217.65
 305  10950.37
 306  11773.06
 307  11686.43
 308  11565.65
 309  10970.44
 310  10253
 311  9714.155
 312  9637.977
 313  9292.279
 314  9582.781
 315  9250.783
 316  8742.863
 317  8564.9
 318  8098.928
 319  7945.084
 320  7987.989
 321  7817.284
 322  7783.115
 323  7866.602
 324  8387.795
 325  8507.936
 326  8767.477
 327  8685.09
 328  8528.026
 329  9022.681
 330  9125.324
 331  8925.642
 332  8500.236
 333  8605.18
 334  7758.048
 335  7463.227
 336  8131.247
 337  8712.393
 338  8491.243
 339  8624.988
 340  8439.456
 341  8230.428
 342  7920.534
 343  8019.339
 344  8451.56
 345  8309.162
 346  8396.857
 347  8133.798
 348  7543.592
 349  7093.666
 350  7449.663
 351  6998.508
 352  6685.456
 353  7283.711
 354  7746.685
 355  7940.115
 356  7227.635
 357  7042.491
 358  7041.227
 359  7664.46
 360  8050.645
 361  8604.569
 362  8502.955
 363  8509.671
 364  8333.765
 365  8362.884
 366  8697.245
 367  8919.96
 368  9514.726
 369  9786.073
 370  9842.021
 371  9544.087
 372  9390.519
 373  9073.598
 374  8593.677
 375  9239.697
 376  9496.715
 377  9896.952
 378  9506.463
 379  8846.995
 380  8172.893
 381  8394.885
 382  8937.536
 383  9166.377
 384  9235.437
 385  9093.67
 386  8790.558
 387  9034.396
 388  9040.652
 389  8681.37
 390  7934.085
 391  8103.119
 392  7306.187
 393  7179.46
 394  7152.231
 395  7202.712
 396  7323.333
 397  7176.861
 398  6657.079
 399  6529.363
 400  6876.628
 401  6824.039
 402  6946.516
 403  7463.502
 404  7732.991
 405  7082.885
 406  7209.657
 407  7306.061
 408  7501.999
 409  7772.708
 410  7670.631
 411  7466.112
 412  7378.182
 413  6767.886
 414  6535.884
 415  6435.232
 416  6662.493
 417  6881.554
 418  7166.446
 419  7187.301
 420  7635.572
 421  7578.847
 422  7674.846
 423  7433.62
 424  7322.429
 425  7341.246
 426  7649.657
 427  7307.406
 428  7385.288
 429  7722.277
 430  7350.425
 431  7128.308
 432  7260.302
 433  7394.953
 434  7363.046
 435  7205.717
 436  7250.931
 437  7673.398
 438  7461.469
 439  7995.358
 440  8369.934
 441  8401.357
 442  7978.065
 443  7958.121
 444  7956.988
 445  8170.111
 446  8389.849
 447  8337.005
 448  8111.314
 449  7215.783
 450  6982.124
 451  7693.046
 452  7367.65
 453  7736.583
 454  7328.801
 455  7408.59
 456  7070.506
 457  7523.525
 458  7754.515
 459  7524.75
 460  7405.169
 461  7128.229
 462  6965.211
 463  7175.661
 464  7450.264
 465  7390.336
 466  7213.266
 467  7281.771
 468  7646.818
 469  7533.822
 470  6975.229
 471  6902.877
 472  6915.319
 473  7594.544
 474  7559.859
 475  7634.04
 476  7258.062
 477  7404.274
 478  7035.676
 479  6621.567
 480  6328.938
 481  7034.116
 482  7174.193
 483  7033.83
 484  7026.088
 485  6948.355
 486  6819.363
 487  6824.641
 488  7148.946
 489  7576.81
 490  7702.428
 491  7830.413
 492  7584.938
 493  7815.182
 494  7241.61
 495  7477.994
 496  7685.349
 497  7720.224
 498  7279.212
 499  7152.318
 500  7174.359
 501  7058.073
 502  7500.052
 503  7791.788
 504  7941
 505  7805.214
 506  7286.339
 507  7009.778
 508  6811.98
 509  6825.894
 510  6254.542
 511  6728.852
