# Input file       =  1203444197.101021_cleaned.dat
# Candidate        =  PSR_0332+5434
# Telescope        =  AR
# Epoch_topo       =  58172.752501169227
# Epoch_bary       =  N/A
# T_sample         =  0.002
# Data Folded      =  7340032
# Data Avg         =  0.196412418164462
# Data StdDev      =  5.02659471562247 
# Profile Bins     =  1024
# Profile Avg      =  1407.94708099385 
# Profile StdDev   =  425.571825889551 
# Reduced chi-sqr  =  0.567
# Prob(Noise)      <  1   (~0.0 sigma)
# P_topo (ms)      =  714.58108380081   +/- 0.000942
# P'_topo (s/s)    =  -0                +/- 4.97e-10
# P''_topo (s/s^2) =  0                 +/- 2.19e-13
# P_bary (ms)      =  N/A
# P'_bary (s/s)    =  N/A
# P''_bary (s/s^2) =  N/A
# P_orb (s)        =  N/A
# asin(i)/c (s)    =  N/A
# eccentricity     =  N/A
# w (rad)          =  N/A
# T_peri           =  N/A
######################################################
   0  1307.616
   1  1419.833
   2  1454.919
   3  1418.676
   4  1339.493
   5  1331.485
   6  1222.913
   7  1289.17
   8  1372.47
   9  1443.908
  10  1373.621
  11  1498.042
  12  1478.525
  13  1516.017
  14  1507.327
  15  1508.376
  16  1412.301
  17  1340.008
  18  1490.865
  19  1512.608
  20  1426.257
  21  1380.465
  22  1367.784
  23  1407.264
  24  1529.809
  25  1783.372
  26  1796.652
  27  1757.148
  28  1733.264
  29  1674.829
  30  1547.693
  31  1547.269
  32  1547.569
  33  1510.091
  34  1452.676
  35  1558.538
  36  1599.281
  37  1539.387
  38  1609.741
  39  1743.533
  40  1805.5
  41  1723.497
  42  1637.096
  43  1568.364
  44  1449.839
  45  1389.798
  46  1385.709
  47  1573.764
  48  1717.621
  49  1692.87
  50  1532.484
  51  1367.484
  52  1325.245
  53  1308.771
  54  1312.376
  55  1439.659
  56  1477.463
  57  1546.389
  58  1578.545
  59  1519.328
  60  1531.988
  61  1499.465
  62  1466.362
  63  1357.049
  64  1239.46
  65  1288.811
  66  1219.227
  67  1229.768
  68  1214.015
  69  1449.009
  70  1550.665
  71  1519.096
  72  1395.81
  73  1418.229
  74  1379.625
  75  1329.727
  76  1367.168
  77  1356.359
  78  1388.231
  79  1449.786
  80  1408.082
  81  1392.493
  82  1455.393
  83  1426.009
  84  1431.651
  85  1231.296
  86  1261.405
  87  1157.54
  88  1096.941
  89  1103.669
  90  1280.198
  91  1434.957
  92  1468.65
  93  1351.331
  94  1319.18
  95  1253.952
  96  1109.51
  97  1108.304
  98  1197.188
  99  1227.038
 100  1200.639
 101  1254.287
 102  1383.249
 103  1421.259
 104  1416.245
 105  1519.972
 106  1562.35
 107  1433.146
 108  1243.677
 109  1183.252
 110  1196.639
 111  1189.263
 112  1132.966
 113  1330.843
 114  1442.816
 115  1558.198
 116  1605.883
 117  1627.114
 118  1661.343
 119  1685.627
 120  1802.163
 121  1844.312
 122  1723.733
 123  1625.17
 124  1559.148
 125  1498.948
 126  1635.906
 127  1578.899
 128  1624.204
 129  1520.778
 130  1604.005
 131  1631.376
 132  1704.769
 133  1653.496
 134  1611.698
 135  1456.279
 136  1290.615
 137  1278.738
 138  1374.18
 139  1585.487
 140  1508.487
 141  1495.665
 142  1468.161
 143  1453.164
 144  1514.277
 145  1384.041
 146  1425.348
 147  1476.488
 148  1442.602
 149  1373.398
 150  1285.113
 151  1383.377
 152  1368.018
 153  1388.062
 154  1413.703
 155  1525.941
 156  1532.4
 157  1478.245
 158  1448.523
 159  1340.434
 160  1352.803
 161  1290.63
 162  1236.064
 163  1202.162
 164  1120.608
 165  1224.126
 166  1243.863
 167  1268.165
 168  1286.634
 169  1264.377
 170  1210.182
 171  1172.424
 172  1193.194
 173  1258.143
 174  1206.764
 175  1291.629
 176  1317.57
 177  1379.92
 178  1424.927
 179  1392.002
 180  1421.968
 181  1297.501
 182  1230.809
 183  1302.522
 184  1427.233
 185  1520.428
 186  1548.801
 187  1508.552
 188  1531.904
 189  1539.782
 190  1473.811
 191  1457.423
 192  1531.985
 193  1716.253
 194  1637.498
 195  1395.191
 196  1336.399
 197  1332.485
 198  1370.727
 199  1355.594
 200  1473.134
 201  1500.525
 202  1528.834
 203  1461.211
 204  1453.867
 205  1463.975
 206  1449.868
 207  1370.505
 208  1406.061
 209  1472.661
 210  1576.432
 211  1490.344
 212  1421.307
 213  1402.595
 214  1388.864
 215  1421.213
 216  1223.892
 217  1327.559
 218  1354.777
 219  1515.308
 220  1582.998
 221  1497.365
 222  1403.474
 223  1298.788
 224  1203.566
 225  1183.626
 226  1241.601
 227  1378.562
 228  1512.001
 229  1490.468
 230  1468.066
 231  1292.196
 232  1127.042
 233  1120.439
 234  1225.926
 235  1239.438
 236  1123.603
 237  1120.978
 238  1344.536
 239  1545.512
 240  1524.611
 241  1494.262
 242  1376.06
 243  1410.262
 244  1344.279
 245  1319.476
 246  1291.83
 247  1286.502
 248  1202.661
 249  1238.297
 250  1194.859
 251  1375.925
 252  1408.046
 253  1408.003
 254  1517.719
 255  1437.636
 256  1412.938
 257  1402.241
 258  1545.009
 259  1664.448
 260  1617.778
 261  1550.651
 262  1559.782
 263  1576.551
 264  1527.793
 265  1636.61
 266  1616.218
 267  1593.731
 268  1367.837
 269  1400.505
 270  1380.579
 271  1463.786
 272  1425.515
 273  1506.015
 274  1501.151
 275  1501.154
 276  1448.021
 277  1455.467
 278  1400.056
 279  1417.213
 280  1492.614
 281  1576.723
 282  1450.491
 283  1389.221
 284  1410.735
 285  1585.238
 286  1602.611
 287  1567.737
 288  1484.358
 289  1402.952
 290  1477.507
 291  1458.517
 292  1414.084
 293  1345.969
 294  1325.339
 295  1518.399
 296  1496.978
 297  1437.141
 298  1431.755
 299  1415.866
 300  1478.411
 301  1565.873
 302  1628.321
 303  1489.541
 304  1309.934
 305  1331.115
 306  1377.372
 307  1501.342
 308  1501.314
 309  1515.28
 310  1567.305
 311  1601.007
 312  1571.428
 313  1300.169
 314  1339.704
 315  1292.453
 316  1336.072
 317  1373.974
 318  1444.076
 319  1531.331
 320  1508.225
 321  1343.712
 322  1234.777
 323  1293.773
 324  1369.305
 325  1331.298
 326  1382.93
 327  1437.128
 328  1493.676
 329  1389.139
 330  1404.82
 331  1327.457
 332  1356.371
 333  1266.445
 334  1294.644
 335  1203.756
 336  1212.334
 337  1182.995
 338  1246.14
 339  1210.895
 340  1271.659
 341  1269.831
 342  1303.516
 343  1375.31
 344  1505.847
 345  1539.933
 346  1419.725
 347  1274.6
 348  1253.427
 349  1316.188
 350  1426.557
 351  1336.725
 352  1305.348
 353  1251.79
 354  1310.049
 355  1245.496
 356  1286.418
 357  1295.883
 358  1451.999
 359  1631.067
 360  1566.787
 361  1424.195
 362  1317.939
 363  1370.213
 364  1512.967
 365  1437.893
 366  1428.778
 367  1347.73
 368  1391.473
 369  1428.833
 370  1537.591
 371  1641.853
 372  1659.19
 373  1571.323
 374  1471.839
 375  1404.388
 376  1346.112
 377  1299.893
 378  1258.866
 379  1308.874
 380  1351.067
 381  1429.392
 382  1317.875
 383  1252.35
 384  1277.421
 385  1321.853
 386  1367.681
 387  1397.996
 388  1492.41
 389  1526.271
 390  1434.327
 391  1391.951
 392  1342.849
 393  1435.125
 394  1476.545
 395  1570.674
 396  1597.398
 397  1665.804
 398  1728.769
 399  1802.755
 400  1776.458
 401  1685.34
 402  1521.577
 403  1419.418
 404  1374.211
 405  1444.438
 406  1553.925
 407  1560.871
 408  1433.23
 409  1377.218
 410  1314.308
 411  1337.056
 412  1427.894
 413  1470.908
 414  1482.214
 415  1453.588
 416  1397.052
 417  1370.772
 418  1257.706
 419  1442.435
 420  1427.036
 421  1460.294
 422  1313.708
 423  1302.218
 424  1265.135
 425  1321.717
 426  1368.251
 427  1354.538
 428  1331.677
 429  1346.186
 430  1451.349
 431  1532.791
 432  1582.457
 433  1466.548
 434  1401.287
 435  1410.245
 436  1453.432
 437  1567.858
 438  1585.562
 439  1745.954
 440  1833.322
 441  1678.556
 442  1373.924
 443  1255.694
 444  1368.988
 445  1420.579
 446  1427.155
 447  1305.409
 448  1327.375
 449  1378.068
 450  1558.559
 451  1503.78
 452  1522.786
 453  1560.608
 454  1712.033
 455  1671.85
 456  1559.06
 457  1413.906
 458  1404.088
 459  1403.058
 460  1490.774
 461  1514.511
 462  1524.376
 463  1422.011
 464  1366.516
 465  1452.368
 466  1441.622
 467  1406.656
 468  1329.282
 469  1356.754
 470  1326.324
 471  1226.243
 472  1130.333
 473  1200.547
 474  1251.532
 475  1150.834
 476  1055.939
 477  1242.808
 478  1308.152
 479  1380.834
 480  1321.828
 481  1438.042
 482  1415.944
 483  1355.486
 484  1337.851
 485  1381.1
 486  1488.976
 487  1513.179
 488  1496.134
 489  1456.559
 490  1438.016
 491  1413.106
 492  1272.096
 493  1257.89
 494  1366.844
 495  1458.866
 496  1437.207
 497  1345.411
 498  1374.425
 499  1328.594
 500  1360.249
 501  1326.349
 502  1307.537
 503  1130.202
 504  1152.547
 505  1343.856
 506  1468.867
 507  1453.307
 508  1255.179
 509  1153.533
 510  1103.583
 511  1098.694
 512  1199.409
 513  1196.672
 514  1176.352
 515  1038.968
 516  1179.897
 517  1222.68
 518  1238.692
 519  1199.199
 520  1286.124
 521  1343.923
 522  1224.865
 523  1210.069
 524  1120.913
 525  1107.566
 526  1068.042
 527  1095.688
 528  1054.396
 529  1213.499
 530  1197.374
 531  1252.322
 532  1217.424
 533  1151.182
 534  1198.154
 535  1248.016
 536  1364.52
 537  1379.82
 538  1336.185
 539  1307.159
 540  1201.773
 541  1087.672
 542  1063.161
 543  1068.035
 544  1321.046
 545  1500.398
 546  1558.668
 547  1566.096
 548  1478.463
 549  1451.189
 550  1391.863
 551  1360.848
 552  1331.134
 553  1218.498
 554  1103.036
 555  1142.492
 556  1233.243
 557  1360.193
 558  1417.578
 559  1439.452
 560  1516.102
 561  1337.979
 562  1212.863
 563  1179.238
 564  1277.427
 565  1402.731
 566  1348.831
 567  1394.865
 568  1297.388
 569  1285.869
 570  1233.735
 571  1260.728
 572  1324.558
 573  1345.539
 574  1423.754
 575  1481.947
 576  1461.448
 577  1462.949
 578  1448.438
 579  1481.821
 580  1519.637
 581  1425.288
 582  1459.452
 583  1315.981
 584  1346.906
 585  1320.919
 586  1479.873
 587  1501.229
 588  1570.408
 589  1532.277
 590  1541.706
 591  1571.426
 592  1505.368
 593  1568.827
 594  1555.491
 595  1561.339
 596  1646.698
 597  1707.369
 598  1787.331
 599  1731.669
 600  1838.495
 601  1857.333
 602  1834.971
 603  1620.266
 604  1738.549
 605  1830.363
 606  1982.251
 607  2014.448
 608  1990.657
 609  1984.934
 610  2042.022
 611  2240.301
 612  2350.578
 613  2252.723
 614  2088.323
 615  1920.513
 616  1842.438
 617  1757.59
 618  1690.584
 619  1592.362
 620  1560.598
 621  1548.57
 622  1566.914
 623  1568.441
 624  1653.598
 625  1728.323
 626  1790.88
 627  1776.126
 628  1651.156
 629  1536.429
 630  1506.806
 631  1501.273
 632  1387.276
 633  1493.564
 634  1612.848
 635  1782.144
 636  1717.233
 637  1659.619
 638  1597.722
 639  1611.679
 640  1582.866
 641  1630.329
 642  1561.615
 643  1617.533
 644  1553.343
 645  1570.112
 646  1275.903
 647  1315.256
 648  1430.111
 649  1724.624
 650  1663.746
 651  1575.732
 652  1553.794
 653  1610.125
 654  1590.371
 655  1512.78
 656  1555.902
 657  1470.47
 658  1468.613
 659  1509.647
 660  1714.083
 661  1623.411
 662  1588.84
 663  1423.296
 664  1318.981
 665  1255.199
 666  1386.005
 667  1509.219
 668  1387.572
 669  1310.161
 670  1205.256
 671  1180.054
 672  1271.509
 673  1386.515
 674  1496.16
 675  1537.461
 676  1465.902
 677  1366.935
 678  1249.544
 679  1172.432
 680  1106.118
 681  1188.524
 682  1287.329
 683  1178.109
 684  1194.231
 685  1359.542
 686  1499.138
 687  1594.778
 688  1609.708
 689  1640.008
 690  1437.467
 691  1329.178
 692  1234.733
 693  1174.659
 694  1289.397
 695  1439.827
 696  1550.095
 697  1497.723
 698  1480.001
 699  1498.358
 700  1580.859
 701  1558.026
 702  1471.104
 703  1479.292
 704  1548.653
 705  1620.988
 706  1522.214
 707  1403.393
 708  1277.325
 709  1279.757
 710  1252.439
 711  1249.625
 712  1208.33
 713  1341.165
 714  1384.326
 715  1397.426
 716  1499.268
 717  1568.108
 718  1639.03
 719  1546.987
 720  1473.417
 721  1485.266
 722  1436.189
 723  1299.725
 724  1168.576
 725  1210.454
 726  1198.026
 727  1195.111
 728  1272.818
 729  1449.779
 730  1619.105
 731  1710.883
 732  1647.743
 733  1464.558
 734  1273.618
 735  1102.673
 736  1034.106
 737  1090.844
 738  1215.464
 739  1293.18
 740  1365.107
 741  1438.743
 742  1436.21
 743  1406.466
 744  1364.848
 745  1286.523
 746  1279.845
 747  1348.87
 748  1448.615
 749  1366.846
 750  1396.88
 751  1399.929
 752  1369.9
 753  1307.195
 754  1446.331
 755  1440.761
 756  1446.218
 757  1424.233
 758  1454.071
 759  1471.674
 760  1536.005
 761  1580.211
 762  1538.165
 763  1527.504
 764  1598.217
 765  1565.046
 766  1519.533
 767  1473.136
 768  1453.365
 769  1479.685
 770  1462.578
 771  1603.867
 772  1576.957
 773  1550.895
 774  1491.009
 775  1505.533
 776  1576.319
 777  1557.101
 778  1720.496
 779  1788.92
 780  1666.717
 781  1624.007
 782  1478.039
 783  1512.964
 784  1473.371
 785  1563.994
 786  1486.406
 787  1397.376
 788  1406.044
 789  1538.673
 790  1599.763
 791  1603.736
 792  1528.152
 793  1413.285
 794  1351.84
 795  1417.27
 796  1443.398
 797  1529.782
 798  1584.448
 799  1674.219
 800  1661.295
 801  1633.167
 802  1623.919
 803  1550.254
 804  1443.213
 805  1403.972
 806  1417.105
 807  1411.478
 808  1356.366
 809  1304.908
 810  1473.655
 811  1575.885
 812  1624.945
 813  1644.042
 814  1690.734
 815  1749.048
 816  1585.478
 817  1454.393
 818  1509.078
 819  1559.057
 820  1543.699
 821  1489.866
 822  1461.577
 823  1580.182
 824  1532.197
 825  1498.525
 826  1555.574
 827  1376.233
 828  1365.929
 829  1366.124
 830  1486.574
 831  1533.028
 832  1463.962
 833  1451.516
 834  1362.37
 835  1277.408
 836  1320.321
 837  1293.619
 838  1377.803
 839  1419.37
 840  1547.826
 841  1530.984
 842  1528.2
 843  1544.383
 844  1571.416
 845  1622.133
 846  1512.278
 847  1520.05
 848  1468.306
 849  1373.882
 850  1315.592
 851  1355.534
 852  1469.7
 853  1418.298
 854  1275.189
 855  1223.283
 856  1261.716
 857  1305.228
 858  1295.239
 859  1366.588
 860  1503.523
 861  1492.702
 862  1494.502
 863  1461.433
 864  1545.741
 865  1621.909
 866  1567.917
 867  1406.998
 868  1310.983
 869  1224.6
 870  1193.143
 871  1207.498
 872  1327.974
 873  1463.595
 874  1465.89
 875  1344.028
 876  1211.549
 877  1231.911
 878  1310.475
 879  1392.51
 880  1370.625
 881  1340.15
 882  1367.572
 883  1417.886
 884  1404.394
 885  1317.955
 886  1251.018
 887  1187.893
 888  1006.311
 889  1076.989
 890  1205.265
 891  1405.885
 892  1481.304
 893  1341.615
 894  1360.627
 895  1295.896
 896  1350.232
 897  1305.007
 898  1422.544
 899  1435.53
 900  1288.409
 901  1202.187
 902  1211.365
 903  1195.491
 904  1255.037
 905  1370.926
 906  1414.046
 907  1390.001
 908  1373.437
 909  1382.107
 910  1354.661
 911  1342.54
 912  1414.721
 913  1455.96
 914  1425.583
 915  1473.076
 916  1389.643
 917  1318.556
 918  1166.121
 919  1185.359
 920  1224.473
 921  1348.218
 922  1322.647
 923  1443.821
 924  1502.679
 925  1514.092
 926  1470.866
 927  1420.299
 928  1367.067
 929  1289.958
 930  1151.725
 931  1180.207
 932  1193.155
 933  1174.737
 934  1113.643
 935  1005.888
 936  1026.131
 937  1034.38
 938  1045.603
 939  1026.02
 940  1121.516
 941  1229.289
 942  1277.781
 943  1067.162
 944  1033.372
 945  994.5396
 946  1118.452
 947  1031.605
 948  989.5153
 949  982.1121
 950  976.0998
 951  980.517
 952  1101.787
 953  1207.661
 954  1317.266
 955  1106.584
 956  1194.863
 957  1203.389
 958  1229.03
 959  1182.174
 960  1057.183
 961  1104.308
 962  1124.305
 963  1299.312
 964  1346.915
 965  1287.162
 966  1296.608
 967  1305.55
 968  1242.403
 969  1074.711
 970  1166.492
 971  1287.885
 972  1277.253
 973  1166.007
 974  1165.454
 975  1208.149
 976  1186.089
 977  1210.591
 978  1064.555
 979  989.2358
 980  954.4285
 981  1079.419
 982  1010.162
 983  1049.116
 984  1160.314
 985  1190.661
 986  1191.718
 987  1164.498
 988  1122.172
 989  1073.25
 990  1075.893
 991  1238.186
 992  1154.809
 993  958.011
 994  919.284
 995  1089.354
 996  1282.487
 997  1348.548
 998  1382.842
 999  1310.663
1000  1317.334
1001  1465.673
1002  1427.535
1003  1409.316
1004  1391.365
1005  1607.334
1006  1632.582
1007  1591.343
1008  1514.456
1009  1392.698
1010  1452.028
1011  1441.149
1012  1459.552
1013  1298.776
1014  1361.318
1015  1331.389
1016  1293.797
1017  1250.629
1018  1245.093
1019  1424.167
1020  1455.248
1021  1396.751
1022  1344.774
1023  1191.757
