# Input file       =  1203672702.105511_cleaned.dat
# Candidate        =  PSR_0332+5434
# Telescope        =  AR
# Epoch_topo       =  58175.397235017488
# Epoch_bary       =  N/A
# T_sample         =  0.002
# Data Folded      =  7405568
# Data Avg         =  0.0762812522318712
# Data StdDev      =  1.00013041619635 
# Profile Bins     =  512
# Profile Avg      =  1103.34818242405 
# Profile StdDev   =  120.282055709641 
# Reduced chi-sqr  =  1.227
# Prob(Noise)      <  0.000327   (~3.4 sigma)
# P_topo (ms)      =  714.580666988539  +/- 0.000306
# P'_topo (s/s)    =  -0                +/- 1.6e-10
# P''_topo (s/s^2) =  0                 +/- 7e-14
# P_bary (ms)      =  N/A
# P'_bary (s/s)    =  N/A
# P''_bary (s/s^2) =  N/A
# P_orb (s)        =  N/A
# asin(i)/c (s)    =  N/A
# eccentricity     =  N/A
# w (rad)          =  N/A
# T_peri           =  N/A
######################################################
   0  1138.097
   1  1072.319
   2  1191.64
   3  1161.875
   4  1173.131
   5  1056.82
   6  1093.351
   7  1130.742
   8  1037.358
   9  1083.022
  10  1116.876
  11  1179.559
  12  1242.643
  13  1349.124
  14  1238.662
  15  1267.007
  16  1238.751
  17  1244.798
  18  1176.033
  19  1202.252
  20  1215.403
  21  1149.138
  22  1151.299
  23  1171.306
  24  1221.083
  25  1190.688
  26  1178.493
  27  1152.581
  28  1118.881
  29  1164.848
  30  1103.578
  31  1054.313
  32  1156.308
  33  1114.151
  34  1029.977
  35  998.4657
  36  1029.784
  37  1021.424
  38  1034.807
  39  1098.987
  40  1114.616
  41  1187.807
  42  1269.963
  43  1406.542
  44  1356.116
  45  1358.382
  46  1239.898
  47  1216.186
  48  1121.686
  49  1068.986
  50  1071.029
  51  1100.612
  52  1107.432
  53  1093.334
  54  1034.194
  55  986.8431
  56  1042.014
  57  1095.481
  58  1056.358
  59  1032.217
  60  1008.946
  61  1074.457
  62  1035.554
  63  1088.277
  64  1092.196
  65  983.6701
  66  910.0723
  67  934.0379
  68  938.1063
  69  913.7006
  70  844.2609
  71  889.089
  72  935.5752
  73  948.2045
  74  944.3466
  75  957.7702
  76  1071.118
  77  1025.628
  78  998.3634
  79  1099.38
  80  1109.157
  81  1008.153
  82  929.495
  83  1032.19
  84  1108.388
  85  1050.825
  86  939.6337
  87  1042.162
  88  1044.893
  89  1032.023
  90  1069.139
  91  1158.05
  92  984.7585
  93  994.2596
  94  1077.582
  95  1047.85
  96  1043.035
  97  1070.548
  98  1064.802
  99  1109.641
 100  1098.109
 101  1070.273
 102  942.2575
 103  913.1476
 104  908.9235
 105  934.9364
 106  1108.745
 107  942.8724
 108  921.2079
 109  964.6129
 110  974.478
 111  891.1966
 112  973.3712
 113  941.3389
 114  918.3715
 115  1030.832
 116  985.8169
 117  1041.385
 118  876.438
 119  967.2297
 120  956.25
 121  929.6647
 122  919.0107
 123  840.1034
 124  933.9302
 125  849.3946
 126  814.0012
 127  973.6721
 128  935.7756
 129  873.9146
 130  952.6818
 131  948.3202
 132  1002.172
 133  1014.541
 134  949.5978
 135  934.6052
 136  911.3372
 137  977.0369
 138  910.04
 139  985.2176
 140  1005.901
 141  1059.796
 142  984.1973
 143  1044.281
 144  1091.08
 145  1085.813
 146  1104.798
 147  1178.042
 148  1150.09
 149  1083.861
 150  1174.353
 151  1075.291
 152  1086.539
 153  982.1719
 154  1026.549
 155  1101.152
 156  1081.539
 157  1063.186
 158  1094.932
 159  1142.227
 160  1134.956
 161  1141.682
 162  1194.828
 163  1151.594
 164  1140.44
 165  1093.371
 166  1026.956
 167  963.6548
 168  1010.794
 169  1109.399
 170  1082.233
 171  1136.577
 172  1073.177
 173  1044.957
 174  1076.439
 175  1137.106
 176  1115.898
 177  1041.628
 178  1088.682
 179  1097.856
 180  1138.92
 181  1096.039
 182  1077.867
 183  1072.163
 184  1037.62
 185  1144.526
 186  1185.63
 187  1078.013
 188  1094.539
 189  1034.296
 190  986.0653
 191  1135.234
 192  1150.658
 193  1099.372
 194  1157.002
 195  1185.263
 196  1129.883
 197  1145.916
 198  1189.434
 199  1177.605
 200  1141.489
 201  1175.479
 202  1084.944
 203  1138.637
 204  1138.35
 205  1052.33
 206  1034.805
 207  1145.708
 208  1096.592
 209  1062.491
 210  985.2784
 211  1083.108
 212  1076.377
 213  1135.82
 214  1216.651
 215  1254.802
 216  1238.379
 217  1190.173
 218  1185.056
 219  1200.512
 220  1112.522
 221  1136.69
 222  1184.175
 223  1218.285
 224  1191.671
 225  1302.244
 226  1262.098
 227  1285.278
 228  1317.831
 229  1339.459
 230  1318.837
 231  1241.649
 232  1262.921
 233  1296.701
 234  1240.176
 235  1247.492
 236  1356.303
 237  1342.829
 238  1274.909
 239  1164.897
 240  1177.33
 241  1250.667
 242  1287.118
 243  1275.715
 244  1178.022
 245  1191.272
 246  1094.787
 247  1114.209
 248  1203.84
 249  1223.119
 250  1152.938
 251  1141.419
 252  1107.28
 253  994.9047
 254  1054.947
 255  1065.293
 256  1114.524
 257  1143.961
 258  1117.912
 259  1152.18
 260  1166.88
 261  1121.882
 262  935.4034
 263  1020.926
 264  1038.624
 265  1037.164
 266  914.2907
 267  1030.143
 268  1152.398
 269  1093.335
 270  1030.521
 271  927.6472
 272  1003.933
 273  980.5906
 274  1124.106
 275  1106.572
 276  1023.715
 277  1077.136
 278  1143.651
 279  1084.51
 280  1035.092
 281  956.4055
 282  933.6226
 283  992.0183
 284  1049.738
 285  988.4269
 286  1011.884
 287  986.4752
 288  993.5216
 289  961.6542
 290  1044.351
 291  1013.496
 292  945.3714
 293  965.5576
 294  1057.302
 295  1050.068
 296  1109.359
 297  1144.361
 298  1180.955
 299  1075.415
 300  1122.614
 301  1189.732
 302  1113.443
 303  1092.103
 304  1111.083
 305  1192.816
 306  1193.524
 307  1222.208
 308  1233.416
 309  1225.073
 310  1224.826
 311  1138.427
 312  1209.419
 313  1248.521
 314  1136.86
 315  1064.692
 316  1144.498
 317  1216.247
 318  1117.071
 319  1240.484
 320  1245.465
 321  1173.395
 322  1090.81
 323  1111.322
 324  1095.417
 325  1160.293
 326  1239.532
 327  1144.133
 328  1201.573
 329  1218.853
 330  1216.331
 331  1204.535
 332  1023.544
 333  1081.48
 334  1073.148
 335  1040.82
 336  985.4658
 337  1032.569
 338  1146.369
 339  1168.916
 340  1173.597
 341  1147.634
 342  1238.877
 343  1223.987
 344  1215.93
 345  1144.604
 346  1101.758
 347  1099.321
 348  1040.838
 349  1025.157
 350  1001.975
 351  1122.315
 352  1191.815
 353  1111.052
 354  1031.301
 355  1030.229
 356  1091.685
 357  1076.977
 358  1018.863
 359  1001.783
 360  1125.765
 361  1099.256
 362  1132.27
 363  1179.262
 364  1115.436
 365  1132.4
 366  1133.134
 367  1158.239
 368  1110
 369  1051.767
 370  1080.469
 371  1081.105
 372  1065.995
 373  997.0181
 374  1038.743
 375  986.4512
 376  1133.193
 377  1120.172
 378  1104.827
 379  1140.952
 380  1166.874
 381  1080.212
 382  952.7317
 383  1024.707
 384  1108.664
 385  1111.718
 386  1140.608
 387  1172.668
 388  1227.119
 389  1164.534
 390  1073.898
 391  1061.931
 392  1057.279
 393  1077.988
 394  1052.514
 395  1091.574
 396  1154.283
 397  1155.079
 398  1120.041
 399  1144.974
 400  1219.167
 401  1090.446
 402  1132.385
 403  1070.256
 404  1094.763
 405  1103.218
 406  1004.102
 407  1109.637
 408  1087.384
 409  1127.773
 410  1120.697
 411  1159.326
 412  1077.682
 413  1057.712
 414  1006.009
 415  1016.213
 416  1019.522
 417  1067.619
 418  1066.753
 419  1018.673
 420  1105.002
 421  1094.938
 422  1030.821
 423  1012.768
 424  1004.923
 425  1083.447
 426  1119.711
 427  1114.214
 428  1142.355
 429  1180.648
 430  1152.314
 431  1059.098
 432  1040.905
 433  1055.899
 434  1066.717
 435  1115.555
 436  1220.556
 437  1246.48
 438  1193.179
 439  1235.96
 440  1233.921
 441  1234.135
 442  1228.842
 443  1123.973
 444  1130.624
 445  1128.963
 446  1187.279
 447  1223.603
 448  1252.306
 449  1245.132
 450  1168.868
 451  1111.399
 452  1190.741
 453  1224.197
 454  1231.575
 455  1181.42
 456  1167.428
 457  1152.617
 458  1199.979
 459  1303.403
 460  1225.917
 461  1189.393
 462  1252.783
 463  1275.379
 464  1134.434
 465  1125.443
 466  1269.778
 467  1153.193
 468  1058.789
 469  1140.194
 470  1143.223
 471  1180.263
 472  1240.437
 473  1244.663
 474  1095.205
 475  1077.706
 476  938.0485
 477  1011.228
 478  1117.493
 479  1161.771
 480  1128.094
 481  1107.49
 482  1137.065
 483  1063.697
 484  1097.11
 485  1114.354
 486  1148.998
 487  1075.597
 488  1098.98
 489  1136.24
 490  1152.049
 491  1188.858
 492  1197.946
 493  1202.044
 494  1244.151
 495  1169.496
 496  1177.834
 497  1099.832
 498  1086.828
 499  1110.602
 500  1119.917
 501  1234.399
 502  1199.72
 503  1131.818
 504  1087.234
 505  1080.437
 506  1183.25
 507  1094.767
 508  1066.605
 509  1127.007
 510  1125.067
 511  1126.256
