# Input file       =  1203090916.122294_cleaned.dat
# Candidate        =  PSR_0332+5434
# Telescope        =  AR
# Epoch_topo       =  58168.663600952474
# Epoch_bary       =  N/A
# T_sample         =  0.002
# Data Folded      =  7340032
# Data Avg         =  0.326154452958561
# Data StdDev      =  5.32634595220811 
# Profile Bins     =  1024
# Profile Avg      =  2338.10954826263 
# Profile StdDev   =  450.949977159622 
# Reduced chi-sqr  =  0.903
# Prob(Noise)      <  0.988   (~0.0 sigma)
# P_topo (ms)      =  714.580705522024  +/- 0.000506
# P'_topo (s/s)    =  -0                +/- 2.67e-10
# P''_topo (s/s^2) =  0                 +/- 1.18e-13
# P_bary (ms)      =  N/A
# P'_bary (s/s)    =  N/A
# P''_bary (s/s^2) =  N/A
# P_orb (s)        =  N/A
# asin(i)/c (s)    =  N/A
# eccentricity     =  N/A
# w (rad)          =  N/A
# T_peri           =  N/A
######################################################
   0  2411.052
   1  2457.708
   2  2415.53
   3  2388.596
   4  2181.144
   5  2132.865
   6  2219.38
   7  2369.937
   8  2433.706
   9  2389.915
  10  2382.858
  11  2347.998
  12  2369.062
  13  2362.199
  14  2336.884
  15  2307.179
  16  2221.026
  17  2235.069
  18  2326.047
  19  2468.268
  20  2562.161
  21  2622.619
  22  2566.597
  23  2447.458
  24  2352.602
  25  2326.789
  26  2375.641
  27  2414.063
  28  2456.976
  29  2323.484
  30  2150.914
  31  2236.33
  32  2440.109
  33  2560.329
  34  2584.89
  35  2647.944
  36  2656.338
  37  2696.93
  38  2606.817
  39  2599.953
  40  2643.234
  41  2703.91
  42  2748.566
  43  2740.399
  44  2718.136
  45  2636.504
  46  2672.714
  47  2670.254
  48  2619.547
  49  2649.037
  50  2623.557
  51  2747.152
  52  2781.467
  53  2746.452
  54  2688.494
  55  2702.238
  56  2758.542
  57  2834.576
  58  2820.071
  59  2797.968
  60  2737.5
  61  2646.609
  62  2629.667
  63  2549.519
  64  2667.964
  65  2626.33
  66  2580.873
  67  2505.577
  68  2459.826
  69  2447.193
  70  2441.057
  71  2517.242
  72  2537.242
  73  2425.231
  74  2321.015
  75  2356.975
  76  2438.946
  77  2398.275
  78  2292.504
  79  2126.231
  80  2087.28
  81  2191.559
  82  2329.852
  83  2366.354
  84  2434.62
  85  2584.433
  86  2662.846
  87  2561.409
  88  2511.94
  89  2560.855
  90  2497
  91  2376.118
  92  2358.599
  93  2363.021
  94  2399.376
  95  2405.597
  96  2355.374
  97  2329.512
  98  2309.13
  99  2234.658
 100  2167.262
 101  2187.97
 102  2212.123
 103  2350.222
 104  2341.681
 105  2261.145
 106  2290.098
 107  2436.288
 108  2465.871
 109  2340.975
 110  2232.772
 111  2419.877
 112  2459.025
 113  2485.259
 114  2384.52
 115  2386.073
 116  2265.411
 117  2210.1
 118  2157.949
 119  2277.148
 120  2384.509
 121  2411.505
 122  2386.746
 123  2319.646
 124  2508.283
 125  2490.357
 126  2367.936
 127  2318.807
 128  2293.707
 129  2339.04
 130  2286.692
 131  2359.199
 132  2410.894
 133  2344.756
 134  2245.666
 135  2197.365
 136  2315.143
 137  2311.207
 138  2363.95
 139  2364.47
 140  2426.627
 141  2432.754
 142  2428.961
 143  2379.789
 144  2285.064
 145  2276.75
 146  2432.089
 147  2371.998
 148  2277.122
 149  2134.71
 150  2216.032
 151  2345.047
 152  2423.759
 153  2471.38
 154  2485.949
 155  2525.465
 156  2592.667
 157  2508.227
 158  2477.819
 159  2396.595
 160  2343.405
 161  2235.306
 162  2275.576
 163  2367.999
 164  2419.47
 165  2378.337
 166  2302.2
 167  2301.842
 168  2311.537
 169  2321.247
 170  2386.251
 171  2370.348
 172  2354.241
 173  2362.741
 174  2352.208
 175  2232.766
 176  2199.786
 177  2239.951
 178  2302.509
 179  2430.855
 180  2500.452
 181  2510.103
 182  2439.143
 183  2368.307
 184  2424.267
 185  2321.824
 186  2305.349
 187  2197.255
 188  2284.451
 189  2372.285
 190  2444.275
 191  2340.975
 192  2261.222
 193  2278.745
 194  2359.527
 195  2347.344
 196  2195.597
 197  2105.554
 198  1982.545
 199  2044.748
 200  2006.75
 201  1976.273
 202  1923.367
 203  1893.508
 204  2101.963
 205  2127.319
 206  2099.487
 207  2056.187
 208  2226.818
 209  2229.099
 210  2116.164
 211  1991.408
 212  1787.208
 213  1754.586
 214  1791.552
 215  1943.276
 216  2066.668
 217  2142.917
 218  2169.538
 219  2164.541
 220  2222.187
 221  2296.848
 222  2265.15
 223  2212.067
 224  2042.333
 225  1936.429
 226  1853.357
 227  1919.33
 228  2116.551
 229  2137.125
 230  2277.445
 231  2266.621
 232  2264.434
 233  2173.45
 234  2098.321
 235  2060.442
 236  2036.233
 237  2142.497
 238  2079.126
 239  2117.906
 240  2154.341
 241  2219.473
 242  2234.304
 243  2254.571
 244  2278.787
 245  2205.865
 246  2210.58
 247  2152.598
 248  2243.044
 249  2202.88
 250  2120.425
 251  2086.497
 252  2241.105
 253  2307.713
 254  2300.644
 255  2220.905
 256  2237.053
 257  2252.319
 258  2288.922
 259  2414.784
 260  2414.284
 261  2483.188
 262  2333.855
 263  2328.121
 264  2348.787
 265  2427.947
 266  2342.137
 267  2285.291
 268  2309.022
 269  2315.913
 270  2332.324
 271  2290.431
 272  2283.941
 273  2247.273
 274  2263.453
 275  2285.485
 276  2176.497
 277  2009.401
 278  2003.525
 279  2018.502
 280  2113.448
 281  2002.551
 282  2083.588
 283  2200.805
 284  2263.769
 285  2271.288
 286  2242.213
 287  2192.06
 288  2167.664
 289  2183.137
 290  2263.969
 291  2312.468
 292  2453.1
 293  2351.476
 294  2239.556
 295  2161.44
 296  2032.331
 297  2060.423
 298  2063.952
 299  2233.677
 300  2355.22
 301  2495.747
 302  2506.718
 303  2560.985
 304  2607.079
 305  2669.145
 306  2661.114
 307  2597.252
 308  2528.963
 309  2485.099
 310  2423.241
 311  2467.66
 312  2373.411
 313  2309.323
 314  2316.004
 315  2253.44
 316  2238.151
 317  2103.209
 318  2235.841
 319  2294.615
 320  2337.664
 321  2336.036
 322  2432.043
 323  2479.537
 324  2382.396
 325  2324.675
 326  2275.773
 327  2352.971
 328  2282.418
 329  2135.484
 330  1936.621
 331  1905.065
 332  2111.162
 333  2233.411
 334  2272.605
 335  2298.57
 336  2288.035
 337  2195.63
 338  2186.948
 339  2175.987
 340  2309.17
 341  2336.128
 342  2427.298
 343  2471.387
 344  2454.385
 345  2223.47
 346  2009.922
 347  1847.128
 348  1899.74
 349  1997.76
 350  2181.757
 351  2119.235
 352  2171.62
 353  2128.16
 354  2255.352
 355  2268.593
 356  2311.252
 357  2274.437
 358  2225.616
 359  2162.96
 360  2207.106
 361  2351.082
 362  2339.497
 363  2312.656
 364  2404.098
 365  2419.529
 366  2344.126
 367  2263.643
 368  2446.418
 369  2534.561
 370  2608.708
 371  2449.972
 372  2349.138
 373  2119.879
 374  2154.865
 375  2282.453
 376  2409.61
 377  2271.417
 378  2212.395
 379  2138.1
 380  2208.847
 381  2248.576
 382  2302.7
 383  2402.705
 384  2366.889
 385  2301.605
 386  2184.885
 387  2145.704
 388  2079.256
 389  2188.124
 390  2142.678
 391  2042.229
 392  1991.527
 393  1966.209
 394  2048.968
 395  2034.656
 396  2053.888
 397  2125.715
 398  2062.866
 399  1980.574
 400  2106.862
 401  2245.374
 402  2266.352
 403  2101.768
 404  2052.154
 405  2124.058
 406  2072.596
 407  2122.899
 408  2201.878
 409  2394.313
 410  2275.062
 411  2201.706
 412  2211.404
 413  2206.285
 414  2193.194
 415  2237.805
 416  2342.953
 417  2407.641
 418  2448.871
 419  2409.383
 420  2340.83
 421  2270.945
 422  2208.268
 423  2327.293
 424  2468.254
 425  2530.046
 426  2436.148
 427  2363.517
 428  2306.226
 429  2217.821
 430  2234.338
 431  2175.126
 432  2106.778
 433  2212.372
 434  2358.728
 435  2305.036
 436  2153.265
 437  2085.175
 438  1977.103
 439  2016.826
 440  1982.616
 441  2049.498
 442  2046.657
 443  2231.688
 444  2261.311
 445  2054.598
 446  1875.786
 447  1892.153
 448  1972.968
 449  1909.49
 450  1810.902
 451  1884.696
 452  2046.18
 453  2162.164
 454  2066.253
 455  2006.549
 456  1919.791
 457  1936.884
 458  1962.57
 459  2016.741
 460  2068.423
 461  2141.367
 462  2171.838
 463  2348.1
 464  2313.949
 465  2302.752
 466  2247.201
 467  2361.223
 468  2375.877
 469  2310.692
 470  2313.115
 471  2310.531
 472  2380.396
 473  2462.52
 474  2409.232
 475  2505.308
 476  2522.695
 477  2562.797
 478  2478.683
 479  2428.539
 480  2352.042
 481  2346.667
 482  2429.323
 483  2498.564
 484  2396.627
 485  2359.91
 486  2361.762
 487  2363.967
 488  2310.488
 489  2251.307
 490  2321.107
 491  2411.298
 492  2496.573
 493  2407.757
 494  2295.583
 495  2205.816
 496  2256.109
 497  2402.519
 498  2460.831
 499  2537.03
 500  2470.158
 501  2309.692
 502  2143.262
 503  2033.209
 504  2056.987
 505  2185.693
 506  2194.97
 507  2263.34
 508  2306.088
 509  2248.085
 510  2099.248
 511  2013.35
 512  2205.855
 513  2386.207
 514  2504.492
 515  2611.25
 516  2623.777
 517  2630.275
 518  2639.35
 519  2621.994
 520  2473.39
 521  2380.476
 522  2537.44
 523  2555.358
 524  2531.365
 525  2571.257
 526  2490.478
 527  2475.191
 528  2510.151
 529  2725.79
 530  2803.954
 531  2748.106
 532  2692.259
 533  2732.698
 534  2696.111
 535  2686.047
 536  2639.743
 537  2729.615
 538  2520.62
 539  2477.342
 540  2425.895
 541  2580.426
 542  2654.151
 543  2694.709
 544  2566.176
 545  2404.48
 546  2276.977
 547  2339.93
 548  2360.051
 549  2218.465
 550  2068.321
 551  2160.958
 552  2263.243
 553  2317.962
 554  2266.528
 555  2130.278
 556  2063.615
 557  2135.181
 558  2135.112
 559  2094.97
 560  2031.898
 561  2128.043
 562  2119.295
 563  2097.311
 564  2077.805
 565  2046.687
 566  2231.553
 567  2225.365
 568  2294.751
 569  2257.337
 570  2246.61
 571  2211.101
 572  2294.841
 573  2363.483
 574  2353.778
 575  2362.619
 576  2398.62
 577  2461.089
 578  2397.76
 579  2456.587
 580  2428.524
 581  2404.334
 582  2419.387
 583  2531.584
 584  2532.054
 585  2450.953
 586  2350.687
 587  2376.996
 588  2402.627
 589  2402.521
 590  2421.689
 591  2553.461
 592  2654.351
 593  2634.752
 594  2630.001
 595  2601.97
 596  2611.961
 597  2741.186
 598  2801.858
 599  2806.354
 600  2811.536
 601  2849.348
 602  2953.667
 603  2866.019
 604  2891.312
 605  2855.843
 606  2946.314
 607  2932.156
 608  3145.362
 609  3237.125
 610  3321.977
 611  3195.332
 612  3191.804
 613  3130.644
 614  3054.828
 615  2910.079
 616  2834.516
 617  2760.83
 618  2640.938
 619  2479.869
 620  2376.885
 621  2389.752
 622  2407.17
 623  2529.975
 624  2478.716
 625  2385.303
 626  2270.392
 627  2442.272
 628  2443.899
 629  2461.831
 630  2405.592
 631  2452.743
 632  2531.848
 633  2521.934
 634  2422.228
 635  2381.466
 636  2478.269
 637  2613.598
 638  2682.067
 639  2699.028
 640  2762.277
 641  2760.521
 642  2705.168
 643  2650.76
 644  2605.001
 645  2650.68
 646  2611.558
 647  2562.683
 648  2409.513
 649  2313.368
 650  2257.749
 651  2305.167
 652  2393.266
 653  2473.3
 654  2455.731
 655  2477.306
 656  2471.936
 657  2422.448
 658  2488.647
 659  2567.699
 660  2578.229
 661  2485.862
 662  2381.586
 663  2333.796
 664  2337.278
 665  2307.766
 666  2376.079
 667  2356.251
 668  2466.07
 669  2517.948
 670  2575.612
 671  2370.795
 672  2382.209
 673  2485.494
 674  2679.123
 675  2687.117
 676  2629.956
 677  2571.806
 678  2656.69
 679  2804.526
 680  2763.997
 681  2710.126
 682  2712.691
 683  2807.739
 684  2929.828
 685  2896.904
 686  2933.975
 687  2879.453
 688  3010.997
 689  3140.9
 690  2934.434
 691  2832.925
 692  2723.712
 693  2826.327
 694  2785.698
 695  2755.438
 696  2792.854
 697  2789.044
 698  2824.73
 699  2764.982
 700  2883.833
 701  2888.218
 702  2966.847
 703  2874.762
 704  2764.302
 705  2715.435
 706  2689.905
 707  2661.252
 708  2625.22
 709  2604.702
 710  2805.302
 711  2817.814
 712  2773.384
 713  2618.632
 714  2631.383
 715  2753.913
 716  2745.473
 717  2600.053
 718  2668.563
 719  2689.561
 720  2638.652
 721  2694.947
 722  2693.756
 723  2800.638
 724  2797.467
 725  2722.089
 726  2609.555
 727  2557.429
 728  2577.921
 729  2595.663
 730  2585.482
 731  2697.186
 732  2623.075
 733  2787.18
 734  2840.821
 735  2867.344
 736  2684.034
 737  2615.456
 738  2571.506
 739  2568.517
 740  2650.466
 741  2682.282
 742  2655.99
 743  2571.973
 744  2531.916
 745  2432.416
 746  2399.184
 747  2479.253
 748  2606.619
 749  2650.083
 750  2523.659
 751  2595.473
 752  2619.807
 753  2526.288
 754  2292.604
 755  2171.259
 756  2145.038
 757  2102.173
 758  2166.436
 759  2171.258
 760  2262.286
 761  2371.401
 762  2479.015
 763  2469.406
 764  2327.733
 765  2242.25
 766  2082.162
 767  2080.608
 768  2090.791
 769  2080.53
 770  2115.487
 771  2137.728
 772  2169.851
 773  2172.305
 774  2153.482
 775  2180.06
 776  2314.355
 777  2257.027
 778  2190.548
 779  2008.565
 780  2091.043
 781  2179.346
 782  2372.856
 783  2383.836
 784  2380.928
 785  2280.282
 786  2230.499
 787  2262.709
 788  2290.436
 789  2369.93
 790  2438.481
 791  2476.12
 792  2396.085
 793  2320.644
 794  2313.811
 795  2301.94
 796  2215.868
 797  2194.738
 798  2170.384
 799  2234.864
 800  2279.813
 801  2338.081
 802  2274.042
 803  2249.775
 804  2225.924
 805  2259.521
 806  2219.505
 807  2132.942
 808  2045.054
 809  1942.013
 810  1948.365
 811  2036.233
 812  2085.06
 813  2178.313
 814  2158.182
 815  2111.282
 816  2190.997
 817  2198.932
 818  2242.417
 819  2180.977
 820  2189.956
 821  2037.739
 822  1942.434
 823  1863.031
 824  2063.492
 825  2226.623
 826  2298.791
 827  2318.53
 828  2281.499
 829  2255.844
 830  2271.947
 831  2364.771
 832  2276.46
 833  2251.02
 834  2246.723
 835  2388.757
 836  2234.956
 837  2207.43
 838  2217.059
 839  2302.593
 840  2281.002
 841  2252.311
 842  2206.656
 843  2319.235
 844  2395.138
 845  2463.966
 846  2520.426
 847  2624.507
 848  2617.128
 849  2564.824
 850  2500.583
 851  2459.33
 852  2516.829
 853  2597.858
 854  2695.592
 855  2585.557
 856  2505.999
 857  2569.744
 858  2644.319
 859  2688.135
 860  2575.134
 861  2360.634
 862  2385.223
 863  2415.168
 864  2346.74
 865  2111.702
 866  2063.73
 867  2227.711
 868  2368.974
 869  2377.096
 870  2358.714
 871  2381.928
 872  2455.485
 873  2395.479
 874  2329.746
 875  2223.762
 876  2115.226
 877  2188.677
 878  2250.863
 879  2349.999
 880  2253.316
 881  2093.639
 882  1945.505
 883  1963.19
 884  2013.841
 885  2014.47
 886  2137.995
 887  2216.549
 888  2241.345
 889  2114.656
 890  1997.938
 891  2021.809
 892  2055.019
 893  2075.146
 894  2071.542
 895  2078.478
 896  2099.224
 897  2062.566
 898  2063.123
 899  2067.77
 900  2128.765
 901  2132.287
 902  2197.092
 903  2183.543
 904  2061.509
 905  2080.105
 906  2118.706
 907  2046.211
 908  1966.684
 909  2034.522
 910  2151.965
 911  2166.946
 912  2061.919
 913  1998.67
 914  2049.724
 915  2168.939
 916  2165.459
 917  2131.674
 918  2005.145
 919  1983.163
 920  1948.415
 921  1879.329
 922  1877.443
 923  1986.828
 924  2110.417
 925  2217.895
 926  2223.196
 927  2122.789
 928  2070.361
 929  2152.857
 930  2206.739
 931  2185.4
 932  2205.921
 933  2251.537
 934  2221.654
 935  2201.624
 936  2122.98
 937  2052.268
 938  1916.004
 939  1989.719
 940  2084.023
 941  2096.946
 942  2050.927
 943  2045.615
 944  2097.09
 945  2138.474
 946  2166.695
 947  2158.439
 948  2075.411
 949  1996.704
 950  1985.824
 951  2005.812
 952  2005.14
 953  2074.44
 954  2149.07
 955  2258.672
 956  2235.267
 957  2271.13
 958  2368.668
 959  2335.706
 960  2338.051
 961  2265.811
 962  2173.244
 963  2143.032
 964  2158.2
 965  2209.717
 966  2226.138
 967  2192.481
 968  2139.205
 969  2174.413
 970  2264.551
 971  2295.294
 972  2196.134
 973  2193.255
 974  2308.979
 975  2329.975
 976  2204.953
 977  2128.433
 978  2153.484
 979  2243.349
 980  2198.191
 981  2129.736
 982  2167.865
 983  2195.191
 984  2126.534
 985  2085.801
 986  2051.49
 987  2050.469
 988  2062.742
 989  2093.442
 990  2130.792
 991  2103.411
 992  2062.459
 993  2039.033
 994  2110.69
 995  2172.851
 996  2190.949
 997  2178.628
 998  2098.808
 999  2144.576
1000  2112.157
1001  2124.453
1002  2068.728
1003  1958.215
1004  1949.201
1005  1935.076
1006  2016.446
1007  2164.2
1008  2359.898
1009  2359.308
1010  2327.85
1011  2190.464
1012  2040.884
1013  2039.591
1014  2081.705
1015  2177.873
1016  2176.625
1017  2235.573
1018  2278.124
1019  2243.124
1020  2144.202
1021  2190.603
1022  2273.157
1023  2337.451
