# Input file       =  1203414632.110324_cleaned.dat
# Candidate        =  PSR_0332+5434
# Telescope        =  AR
# Epoch_topo       =  58172.410313776898
# Epoch_bary       =  N/A
# T_sample         =  0.002
# Data Folded      =  7208960
# Data Avg         =  0.0936037208944619
# Data StdDev      =  1.0001588998527  
# Profile Bins     =  512
# Profile Avg      =  1317.86105171268 
# Profile StdDev   =  118.678030719085 
# Reduced chi-sqr  =  1.110
# Prob(Noise)      <  0.0425   (~1.7 sigma)
# P_topo (ms)      =  714.580719632067  +/- 0.000266
# P'_topo (s/s)    =  -0                +/- 1.43e-10
# P''_topo (s/s^2) =  0                 +/- 6.42e-14
# P_bary (ms)      =  N/A
# P'_bary (s/s)    =  N/A
# P''_bary (s/s^2) =  N/A
# P_orb (s)        =  N/A
# asin(i)/c (s)    =  N/A
# eccentricity     =  N/A
# w (rad)          =  N/A
# T_peri           =  N/A
######################################################
   0  1315.206
   1  1456.669
   2  1454.831
   3  1351.466
   4  1303.302
   5  1302.86
   6  1358.671
   7  1401.698
   8  1327.412
   9  1291.257
  10  1322.193
  11  1342.856
  12  1278.018
  13  1342.064
  14  1258.271
  15  1387.979
  16  1435.417
  17  1391.287
  18  1372.316
  19  1363.294
  20  1401.1
  21  1381.324
  22  1307.592
  23  1280.952
  24  1154.693
  25  1165.729
  26  1242.107
  27  1328.306
  28  1272.457
  29  1274.706
  30  1309.583
  31  1338.507
  32  1309.56
  33  1305.5
  34  1369.428
  35  1411.48
  36  1253.101
  37  1379.208
  38  1417.071
  39  1360.773
  40  1283.381
  41  1376.752
  42  1392.979
  43  1253.975
  44  1256.887
  45  1316.989
  46  1391.221
  47  1456.174
  48  1380.795
  49  1299.641
  50  1339.742
  51  1414.975
  52  1340.525
  53  1332.302
  54  1334.241
  55  1233.009
  56  1226.628
  57  1277.29
  58  1291.788
  59  1249.274
  60  1301.489
  61  1272.212
  62  1342.159
  63  1249.785
  64  1215.579
  65  1240.126
  66  1222.843
  67  1279.441
  68  1285.93
  69  1293.602
  70  1411.024
  71  1426.462
  72  1209.569
  73  1113.194
  74  1195.512
  75  1227.297
  76  1151.421
  77  1222.765
  78  1243.513
  79  1260.429
  80  1236.556
  81  1223.89
  82  1194.561
  83  1237.66
  84  1198.917
  85  1215.111
  86  1272.25
  87  1176.079
  88  1158.77
  89  1121.148
  90  1094.039
  91  1167.707
  92  1236.652
  93  1188.908
  94  1149.076
  95  1223.397
  96  1189.688
  97  1299.363
  98  1304.837
  99  1207.354
 100  1225.967
 101  1169.991
 102  1166.497
 103  1189.62
 104  1385.252
 105  1379.461
 106  1332.908
 107  1326.065
 108  1318.353
 109  1298.013
 110  1359.672
 111  1276.103
 112  1249
 113  1188.309
 114  1152.354
 115  1118.635
 116  1185.351
 117  1176.788
 118  1253.448
 119  1272.033
 120  1252.411
 121  1337.578
 122  1348.38
 123  1277.716
 124  1236.221
 125  1318.051
 126  1436.307
 127  1318.879
 128  1306.477
 129  1237.567
 130  1165.78
 131  1240.609
 132  1278.04
 133  1311.309
 134  1233.594
 135  1316.571
 136  1340.571
 137  1378.69
 138  1305.356
 139  1293.467
 140  1317.271
 141  1296.12
 142  1377.078
 143  1382.909
 144  1388.104
 145  1312.536
 146  1291.181
 147  1341.694
 148  1430.225
 149  1463.06
 150  1433.286
 151  1325.794
 152  1340.688
 153  1305.128
 154  1237.24
 155  1327.398
 156  1276.004
 157  1296.488
 158  1382.856
 159  1335.685
 160  1307.141
 161  1411.937
 162  1414.482
 163  1319.963
 164  1296.625
 165  1378.45
 166  1382.415
 167  1379.292
 168  1356.636
 169  1408.263
 170  1379.894
 171  1308.067
 172  1215.796
 173  1170.342
 174  1220.179
 175  1298.721
 176  1338.452
 177  1317.398
 178  1366.15
 179  1366.026
 180  1360.626
 181  1367.64
 182  1347.19
 183  1316.39
 184  1317.285
 185  1240.905
 186  1230.955
 187  1346.8
 188  1321.28
 189  1265.675
 190  1309.95
 191  1185.154
 192  1248.693
 193  1265.326
 194  1289.731
 195  1292.363
 196  1325.707
 197  1327.285
 198  1197.124
 199  1103.816
 200  1165.276
 201  1354.175
 202  1423.113
 203  1287.101
 204  1238.109
 205  1226.799
 206  1296.901
 207  1312.961
 208  1373.376
 209  1381.379
 210  1382.77
 211  1429.579
 212  1374.264
 213  1270.738
 214  1339.757
 215  1304.806
 216  1272.434
 217  1323.164
 218  1203.959
 219  1251.251
 220  1309.142
 221  1241.874
 222  1276.017
 223  1212.102
 224  1265.579
 225  1185.187
 226  1211.085
 227  1286.15
 228  1211.643
 229  1198.49
 230  1249.732
 231  1233.001
 232  1206.747
 233  1272.649
 234  1319.745
 235  1308.138
 236  1287.221
 237  1259.384
 238  1268.247
 239  1249.649
 240  1302.321
 241  1270.694
 242  1276.157
 243  1298.883
 244  1352.684
 245  1272.135
 246  1271.441
 247  1399.071
 248  1385.206
 249  1261.211
 250  1212.815
 251  1247.447
 252  1265.315
 253  1373.614
 254  1433.394
 255  1368.477
 256  1350.516
 257  1433.026
 258  1319.245
 259  1284.775
 260  1313.051
 261  1422.769
 262  1316.553
 263  1314.673
 264  1364.465
 265  1374.827
 266  1330.575
 267  1332.633
 268  1364.721
 269  1386.608
 270  1361.491
 271  1364.08
 272  1342.681
 273  1360.384
 274  1417.764
 275  1402.804
 276  1397.998
 277  1402.567
 278  1495.365
 279  1508.963
 280  1386.116
 281  1361.921
 282  1471.402
 283  1414.278
 284  1420.258
 285  1514.033
 286  1477.399
 287  1397.255
 288  1462.606
 289  1453.45
 290  1497.009
 291  1513.431
 292  1492.511
 293  1501.43
 294  1525.014
 295  1486.413
 296  1480.341
 297  1486.815
 298  1446.126
 299  1427.434
 300  1382.745
 301  1414.85
 302  1467.944
 303  1496.948
 304  1395.419
 305  1337.74
 306  1410.295
 307  1361.439
 308  1397.939
 309  1489.129
 310  1454.579
 311  1383.115
 312  1319.431
 313  1275.006
 314  1237.773
 315  1337.508
 316  1416.875
 317  1393.837
 318  1349.529
 319  1412.574
 320  1347.14
 321  1394.936
 322  1311.183
 323  1296.5
 324  1333.699
 325  1311.624
 326  1340.392
 327  1437.042
 328  1421.944
 329  1393.842
 330  1357.183
 331  1309.59
 332  1316.374
 333  1283.74
 334  1274.464
 335  1203.957
 336  1140.366
 337  1231.573
 338  1353.959
 339  1301.952
 340  1331.893
 341  1459.278
 342  1346.708
 343  1295.56
 344  1379.069
 345  1388.578
 346  1398.806
 347  1382.981
 348  1369.095
 349  1375.293
 350  1415.579
 351  1405.004
 352  1265.069
 353  1294.585
 354  1261.803
 355  1224.258
 356  1160.239
 357  1294.395
 358  1310.62
 359  1440.71
 360  1402.313
 361  1332.611
 362  1276.249
 363  1372.449
 364  1482.016
 365  1400.13
 366  1216.999
 367  1278.755
 368  1318.177
 369  1287.233
 370  1225.407
 371  1328.156
 372  1280.256
 373  1281.641
 374  1303.659
 375  1333.06
 376  1410.935
 377  1423.02
 378  1484.749
 379  1371.483
 380  1315.953
 381  1286.719
 382  1284.488
 383  1415.254
 384  1413.281
 385  1455.084
 386  1476.035
 387  1416.724
 388  1410.94
 389  1478.664
 390  1520.971
 391  1714.409
 392  1729.546
 393  1766.925
 394  1687.687
 395  1586.418
 396  1441.71
 397  1304.512
 398  1269.523
 399  1265.541
 400  1258.912
 401  1333.424
 402  1332.675
 403  1388.109
 404  1295.18
 405  1291.174
 406  1246.734
 407  1210.44
 408  1198.865
 409  1215.073
 410  1276.402
 411  1278.475
 412  1336.025
 413  1315.906
 414  1307.638
 415  1328.437
 416  1277.655
 417  1323.215
 418  1258.19
 419  1154.727
 420  1175.359
 421  1282.091
 422  1349.647
 423  1216.369
 424  1322.586
 425  1418.796
 426  1445.398
 427  1391.91
 428  1346.177
 429  1204.78
 430  1299.115
 431  1313.855
 432  1294.351
 433  1323.589
 434  1276.97
 435  1340.564
 436  1226.226
 437  1197.859
 438  1137.419
 439  1246.971
 440  1332.151
 441  1383.54
 442  1437.634
 443  1337.848
 444  1276.677
 445  1345.877
 446  1332.258
 447  1322.885
 448  1353.511
 449  1273.756
 450  1273.971
 451  1318.409
 452  1240.236
 453  1191.519
 454  1267.468
 455  1255.785
 456  1272.222
 457  1189.129
 458  1267.504
 459  1288.962
 460  1343.217
 461  1242.591
 462  1302.491
 463  1366.242
 464  1268.783
 465  1160.606
 466  1279.47
 467  1276.692
 468  1320.871
 469  1366.707
 470  1378.556
 471  1260.894
 472  1226.86
 473  1252.197
 474  1194.843
 475  1261.973
 476  1289.301
 477  1346.706
 478  1295.661
 479  1356.549
 480  1373.531
 481  1429.454
 482  1337.728
 483  1248.631
 484  1219.594
 485  1156.93
 486  1249.553
 487  1253.347
 488  1241.876
 489  1259.962
 490  1268.573
 491  1305.16
 492  1237.26
 493  1100.271
 494  1170.793
 495  1141.469
 496  1192.869
 497  1296.02
 498  1320.478
 499  1309.036
 500  1365.658
 501  1239.688
 502  1290.683
 503  1279.541
 504  1268.291
 505  1360.615
 506  1271.996
 507  1331.748
 508  1387.853
 509  1383.651
 510  1371.585
 511  1370.096
