# Input file       =  1203672702.105511_cleaned.dat
# Candidate        =  PSR_0332+5434
# Telescope        =  AR
# Epoch_topo       =  58175.397235017488
# Epoch_bary       =  N/A
# T_sample         =  0.002
# Data Folded      =  7405568
# Data Avg         =  0.506636324398369
# Data StdDev      =  6.60972195734303 
# Profile Bins     =  512
# Profile Avg      =  7328.05981726999 
# Profile StdDev   =  794.927273307015 
# Reduced chi-sqr  =  1.255
# Prob(Noise)      <  7.39e-05   (~3.8 sigma)
# P_topo (ms)      =  714.580667172845  +/- 7.26e-05
# P'_topo (s/s)    =  -0                +/- 3.8e-11
# P''_topo (s/s^2) =  0                 +/- 1.66e-14
# P_bary (ms)      =  N/A
# P'_bary (s/s)    =  N/A
# P''_bary (s/s^2) =  N/A
# P_orb (s)        =  N/A
# asin(i)/c (s)    =  N/A
# eccentricity     =  N/A
# w (rad)          =  N/A
# T_peri           =  N/A
######################################################
   0  7451.689
   1  7277.265
   2  6864.205
   3  6557.141
   4  6882.224
   5  7188.463
   6  7511.732
   7  7530.85
   8  7849.102
   9  8081.798
  10  7836.643
  11  7531.317
  12  7300.72
  13  7217.779
  14  7171.022
  15  6781.185
  16  6292.822
  17  7179.297
  18  7005.487
  19  6939.451
  20  6405.351
  21  6816.1
  22  6981.179
  23  6986.602
  24  7914.55
  25  7668.778
  26  7696.346
  27  7886.851
  28  7955.256
  29  7725.936
  30  7347.675
  31  6822.981
  32  6848.648
  33  7236.632
  34  6793.653
  35  6516.087
  36  6756.851
  37  7128.982
  38  7153.68
  39  7256.096
  40  7836.335
  41  7794.909
  42  7313.763
  43  7241.725
  44  7686.025
  45  7649.812
  46  7945.491
  47  8007.386
  48  7835.312
  49  7208.509
  50  7574.77
  51  7403.128
  52  7046.357
  53  7022.9
  54  7619.429
  55  7917.051
  56  8175.562
  57  8329.125
  58  8484.308
  59  8420.787
  60  8519.099
  61  8425.305
  62  8739.73
  63  8613.509
  64  7607.351
  65  7410.625
  66  7783.446
  67  7709.287
  68  7394.478
  69  7905.947
  70  8150.575
  71  7896.982
  72  7861.421
  73  8046.275
  74  8085.378
  75  8244.857
  76  8017.28
  77  8092.355
  78  8451.32
  79  8310.809
  80  8321.682
  81  7645.049
  82  7053.1
  83  7221.156
  84  6771.854
  85  6605.803
  86  6528.525
  87  7042.098
  88  7745.186
  89  7444.5
  90  7865.672
  91  7930.618
  92  8334.731
  93  8451.02
  94  8263.271
  95  8152.1
  96  7801.708
  97  7585.807
  98  6777.194
  99  6590.11
 100  6708.448
 101  7224.148
 102  7305.755
 103  7122.27
 104  7095.118
 105  7075.367
 106  7331.094
 107  7477.315
 108  7403.349
 109  7212.047
 110  7580.879
 111  7382.786
 112  7723.864
 113  7569.817
 114  7035.199
 115  7179.651
 116  7477.017
 117  6973.283
 118  6602.526
 119  6766.467
 120  6922.386
 121  6992.719
 122  7004.331
 123  7216.317
 124  7333.087
 125  6834.924
 126  7184.457
 127  7109.46
 128  7148.04
 129  7028.369
 130  6892.788
 131  6212.978
 132  6013.889
 133  6568.148
 134  6758.526
 135  6755.87
 136  6928.136
 137  7257.732
 138  7534.35
 139  7456.435
 140  7232.368
 141  7133.408
 142  7039.325
 143  7287.063
 144  7171.887
 145  7254.478
 146  7264.423
 147  6998.229
 148  6864.606
 149  6933.953
 150  6729.293
 151  6229.216
 152  6636.441
 153  6596.568
 154  6964.924
 155  6775.59
 156  6774.945
 157  7436.064
 158  7080.534
 159  7097.447
 160  7195.414
 161  7283.377
 162  7111.662
 163  6992.371
 164  6564.271
 165  6530.703
 166  6352.104
 167  6197.223
 168  6310.561
 169  6342.812
 170  6984.136
 171  7023.756
 172  6905.796
 173  7011.975
 174  7178.417
 175  7421.473
 176  7344.401
 177  7570.792
 178  7956.518
 179  7667.682
 180  7307.763
 181  6740.41
 182  6780.909
 183  6568.578
 184  6463.98
 185  6752.119
 186  7566.971
 187  8066.551
 188  7913.942
 189  8404.57
 190  8647.392
 191  8371.396
 192  8009.13
 193  7760.898
 194  7741.01
 195  7836.1
 196  7959.643
 197  8023.962
 198  8054.459
 199  7788.192
 200  7295.954
 201  7086.58
 202  7059.383
 203  7515.033
 204  7763.897
 205  8104.086
 206  8119.785
 207  8177.941
 208  8316.65
 209  8478.993
 210  8293.284
 211  8309.052
 212  8534.818
 213  7958.238
 214  7358.267
 215  7490.693
 216  7487.049
 217  6923.694
 218  6939.545
 219  7845.25
 220  7935.382
 221  8068.01
 222  8382.759
 223  8072.2
 224  7842.202
 225  7638.768
 226  7154.669
 227  7606.651
 228  7666.07
 229  7656.945
 230  7068.409
 231  7336.664
 232  7415.371
 233  6877.843
 234  7090.927
 235  7176.393
 236  7553.29
 237  7179.327
 238  7396.314
 239  8008.272
 240  8028.078
 241  8153.583
 242  8294.41
 243  8394.107
 244  8443.923
 245  7962.954
 246  7625.179
 247  7407.072
 248  7476.857
 249  7251.62
 250  7109.508
 251  7724.173
 252  7669.989
 253  7638.575
 254  7602.444
 255  7531.764
 256  7999.671
 257  7608.762
 258  7760.584
 259  8015.652
 260  7598.28
 261  7826.926
 262  7455.111
 263  7470.242
 264  7594.534
 265  7218.103
 266  6952.814
 267  6319.284
 268  7104.543
 269  7167.825
 270  7259.402
 271  7812.033
 272  8013.696
 273  8269.257
 274  8204.119
 275  8289.03
 276  8262.484
 277  8206.189
 278  8174.88
 279  8068.786
 280  7758.755
 281  7623.339
 282  7070.388
 283  6934.666
 284  7123.199
 285  7397.064
 286  7716.387
 287  7928.945
 288  8056.53
 289  7956.07
 290  7843.905
 291  7844.494
 292  7642.739
 293  7581.889
 294  7898.469
 295  7294.138
 296  6958.104
 297  7139.019
 298  7178.182
 299  6931.389
 300  6725.854
 301  7065.879
 302  7451.189
 303  7531.967
 304  7916.148
 305  8640.251
 306  8746.132
 307  8577.27
 308  8507.321
 309  8438.467
 310  7771.892
 311  7347.544
 312  7355.756
 313  7217.013
 314  7168.451
 315  7174.56
 316  6984.324
 317  6888.11
 318  7397.66
 319  7446.494
 320  7329.427
 321  7560.261
 322  7630.011
 323  7845.929
 324  7798.568
 325  8088.349
 326  7779.479
 327  7109.262
 328  6689.292
 329  6661.961
 330  6763.725
 331  6486.439
 332  5940.146
 333  6268.627
 334  6418.744
 335  6881.009
 336  6913.418
 337  7159.215
 338  7607.839
 339  7892.327
 340  7547.522
 341  7670.625
 342  7414.644
 343  7178.704
 344  7009.653
 345  7271.143
 346  7133.772
 347  6821.903
 348  6454.56
 349  6632.425
 350  6622.747
 351  6665.701
 352  7232.51
 353  7130.112
 354  6531.533
 355  7002.183
 356  7450.635
 357  6806.042
 358  6916.826
 359  7149.978
 360  7179.521
 361  7175.36
 362  6701.604
 363  6436.993
 364  5612.564
 365  5545.235
 366  5267.045
 367  5812.594
 368  6459.766
 369  6078.9
 370  6239.118
 371  6621.899
 372  6408.403
 373  6141.603
 374  6315.375
 375  6341.396
 376  6297.163
 377  6487.813
 378  6160.339
 379  6049.625
 380  5561.812
 381  5885.047
 382  5407.334
 383  5477.832
 384  5700.281
 385  5836.226
 386  6095.385
 387  5913.616
 388  6118.189
 389  6510.197
 390  6143.88
 391  6445.55
 392  6740.912
 393  6896.775
 394  6599.477
 395  6298.772
 396  6229.604
 397  6004.728
 398  5597.521
 399  5828.341
 400  6087.721
 401  6724.392
 402  6886.752
 403  6729.169
 404  6984.541
 405  6999.501
 406  7177.261
 407  7231.102
 408  7168.672
 409  7485.946
 410  7405.325
 411  7188.66
 412  6991.764
 413  6910.891
 414  6706.639
 415  6326.496
 416  6812.851
 417  7231.877
 418  7172.208
 419  7372.464
 420  7570.588
 421  7817.608
 422  7715.746
 423  8000.749
 424  8124.778
 425  7841.252
 426  7663.41
 427  7239.54
 428  6719.092
 429  6648.523
 430  6848.751
 431  6649.964
 432  6847.593
 433  7194.375
 434  7147.769
 435  7209.346
 436  7594.615
 437  7777.897
 438  7638.438
 439  7333.706
 440  7399.929
 441  7495.276
 442  7630.905
 443  7313.935
 444  7216.288
 445  7015.539
 446  6837.867
 447  6992.347
 448  6742.876
 449  6627.165
 450  6926.821
 451  7105.699
 452  6947.481
 453  7664.037
 454  7564.164
 455  7511.006
 456  7555.662
 457  7548.116
 458  7513.013
 459  7405.184
 460  7355.975
 461  7099.62
 462  7080.478
 463  7098.08
 464  6795.624
 465  6899.544
 466  6776.776
 467  7061.654
 468  7401.674
 469  7625.692
 470  7508.564
 471  7150.601
 472  7237.787
 473  7451.413
 474  7471.675
 475  7721.973
 476  8197.541
 477  8079.361
 478  7714.888
 479  7501.681
 480  7473.253
 481  6920.034
 482  6649.78
 483  7156.364
 484  7598.236
 485  7628.366
 486  8068.274
 487  8527.756
 488  8457.284
 489  8616.766
 490  8630.63
 491  8522.507
 492  8212.717
 493  8174.922
 494  8041.672
 495  7974.609
 496  8013.098
 497  8085.014
 498  7930.608
 499  7924.823
 500  7771.272
 501  7589.427
 502  7931.162
 503  8433.66
 504  8862.901
 505  8503.53
 506  8157.596
 507  8012.127
 508  7685.099
 509  7900.232
 510  7942.151
 511  7814.926
