# Input file       =  1203500530.107594_cleaned.dat
# Candidate        =  PSR_0332+5434
# Telescope        =  AR
# Epoch_topo       =  58173.404503560116
# Epoch_bary       =  N/A
# T_sample         =  0.002
# Data Folded      =  7340032
# Data Avg         =  0.455168912622736
# Data StdDev      =  6.29079205861016 
# Profile Bins     =  512
# Profile Avg      =  6526.03552887227 
# Profile StdDev   =  753.215634392242 
# Reduced chi-sqr  =  0.626
# Prob(Noise)      <  1   (~0.0 sigma)
# P_topo (ms)      =  714.58072137236   +/- 6.19e-05
# P'_topo (s/s)    =  -0                +/- 3.26e-11
# P''_topo (s/s^2) =  0                 +/- 1.44e-14
# P_bary (ms)      =  N/A
# P'_bary (s/s)    =  N/A
# P''_bary (s/s^2) =  N/A
# P_orb (s)        =  N/A
# asin(i)/c (s)    =  N/A
# eccentricity     =  N/A
# w (rad)          =  N/A
# T_peri           =  N/A
######################################################
   0  6742.973
   1  6241.335
   2  6125.335
   3  6527.289
   4  6720.203
   5  6401.974
   6  6934.241
   7  7465.066
   8  6750.685
   9  6931.353
  10  6852.384
  11  7120.977
  12  6715.783
  13  6744.704
  14  6372.832
  15  6462.12
  16  6877.156
  17  7068.889
  18  6945.123
  19  7366.02
  20  6971.967
  21  6856.992
  22  6983.061
  23  7366.752
  24  7189.122
  25  6930.707
  26  6734.375
  27  6738.584
  28  6509.334
  29  6377.034
  30  6398.03
  31  6489.648
  32  6751.426
  33  7048.404
  34  6271.128
  35  6019.881
  36  6394.833
  37  6283.914
  38  6558.687
  39  7215.524
  40  7376.362
  41  6981.741
  42  6777.277
  43  6751.741
  44  6704.407
  45  6511.738
  46  6261.005
  47  5912.772
  48  6982.354
  49  7189.079
  50  6577.489
  51  6458.753
  52  6572.925
  53  6456.939
  54  6084.926
  55  5956.362
  56  6118.438
  57  6489.219
  58  6804.468
  59  6500.264
  60  6327.479
  61  6433.786
  62  6131.195
  63  6063.989
  64  6370.606
  65  6937.636
  66  6194.513
  67  6002.717
  68  6084.752
  69  6499.114
  70  6864.497
  71  6554.048
  72  6708.333
  73  7059.996
  74  6522.608
  75  6644.678
  76  6913.872
  77  6676.226
  78  6417.1
  79  6238.547
  80  6233.48
  81  6627.535
  82  6801.186
  83  6505.329
  84  6619.923
  85  6874.735
  86  6530.711
  87  6263.672
  88  6067.836
  89  6926.244
  90  7128.147
  91  6404.229
  92  6089.567
  93  6384.172
  94  6657.075
  95  6379.195
  96  6202.588
  97  6480.418
  98  6637.803
  99  6335.509
 100  6118.812
 101  6006.841
 102  6182.618
 103  6170.275
 104  6099.593
 105  6416.305
 106  6730.572
 107  6485.27
 108  6213.951
 109  5804.109
 110  5866.093
 111  6019.458
 112  6072.078
 113  5909.062
 114  6404.667
 115  6355.488
 116  6407.394
 117  6211.394
 118  6256.833
 119  6300.025
 120  5608.96
 121  6350.259
 122  6434.698
 123  6485.884
 124  6462.385
 125  6021.027
 126  5882.028
 127  5540.835
 128  5825.855
 129  6169.064
 130  5998.734
 131  6140.944
 132  6323.353
 133  6012.364
 134  6260.681
 135  6616.486
 136  6751.63
 137  7067.189
 138  7600.2
 139  7740.239
 140  7472.929
 141  6918.688
 142  6331.146
 143  6054.155
 144  5919.423
 145  5515.808
 146  5505.254
 147  5818.709
 148  6357.814
 149  6362.928
 150  6066.078
 151  5861.417
 152  6049.525
 153  6652.422
 154  7010.052
 155  6979.177
 156  6965.846
 157  6610.703
 158  6359.7
 159  6502.673
 160  6938.821
 161  6880.734
 162  6274.591
 163  6209.164
 164  6251.188
 165  6195.849
 166  6025.539
 167  6305.94
 168  6614.29
 169  6129.315
 170  6357.919
 171  6528.296
 172  6675.72
 173  6257.883
 174  5932.979
 175  5982.142
 176  5947.272
 177  6259.134
 178  5832.263
 179  6059.256
 180  6400.659
 181  6842.858
 182  6421.625
 183  5568.016
 184  5794.677
 185  5841.28
 186  6090.402
 187  6489.643
 188  6598.335
 189  6683.394
 190  5904.881
 191  5638.348
 192  6305.683
 193  6148.102
 194  5969.054
 195  5565.417
 196  6328.979
 197  6628.723
 198  6098.585
 199  5738.018
 200  5531.66
 201  5992.249
 202  6203.094
 203  6440.463
 204  6696.167
 205  6417.208
 206  6073.071
 207  6142.088
 208  6278.262
 209  6245.542
 210  5830.497
 211  5799.288
 212  5634.805
 213  6434.839
 214  7007.821
 215  6487.792
 216  6142.761
 217  5736.424
 218  6007.967
 219  5882.247
 220  6207.029
 221  6414.358
 222  6871.514
 223  6789.65
 224  6661.969
 225  6179.774
 226  6415.416
 227  5891.498
 228  5459.295
 229  6343.397
 230  6639.492
 231  6925.885
 232  6546.221
 233  6647.874
 234  7191.232
 235  6421.023
 236  6280.459
 237  6845.587
 238  6977.372
 239  6750.371
 240  6749.121
 241  6845.846
 242  6513.326
 243  6770.079
 244  6899.563
 245  6666.312
 246  7047.525
 247  6804.197
 248  6193.567
 249  5745.603
 250  6069.158
 251  6493.511
 252  6703.789
 253  6983.477
 254  7158.354
 255  7340.23
 256  6578.529
 257  5984.878
 258  5978.898
 259  6445.703
 260  6118.054
 261  6169.3
 262  6565.135
 263  6798.889
 264  6712.276
 265  6401.357
 266  6471.297
 267  6441.71
 268  6698.395
 269  6816.104
 270  6629.917
 271  7172.171
 272  7336.301
 273  7092.937
 274  6876.14
 275  6600.74
 276  6827.207
 277  6514.867
 278  6272.235
 279  7221.971
 280  6938.2
 281  6623.135
 282  6610.837
 283  6617.3
 284  6427.936
 285  6041.224
 286  6305.255
 287  6815.689
 288  6951.226
 289  7344.864
 290  6619.408
 291  6218.011
 292  5985.108
 293  5929.087
 294  6166.732
 295  6354.819
 296  6585.411
 297  7156.963
 298  6752.631
 299  6470.116
 300  6615.527
 301  6130.49
 302  5819.283
 303  6055.89
 304  6571.39
 305  6885.292
 306  6786.369
 307  6426.327
 308  6458.89
 309  6225.049
 310  6017.794
 311  5622.522
 312  5931.921
 313  6366.505
 314  6537.5
 315  6383.346
 316  6681.158
 317  6536.19
 318  6165.774
 319  6086.061
 320  6326.752
 321  6964.849
 322  6638.27
 323  6042.846
 324  6355.063
 325  6399.883
 326  6198.975
 327  5891.271
 328  6738.906
 329  6963.22
 330  6563.581
 331  5972.477
 332  5550.645
 333  5801.103
 334  6449.392
 335  6417.592
 336  6636.291
 337  6665.517
 338  6921.591
 339  6671.068
 340  6321.579
 341  6060.906
 342  6561.128
 343  6553.675
 344  6147.814
 345  6277.669
 346  6417.933
 347  6224.153
 348  6097.806
 349  6672.015
 350  6796.125
 351  6807.4
 352  6621.808
 353  6827.457
 354  6896.865
 355  6690.088
 356  7016.609
 357  7009.62
 358  6662.263
 359  6585.729
 360  6572.95
 361  6750.188
 362  7000.374
 363  6973.571
 364  6795.843
 365  6593.566
 366  6397.555
 367  6505.294
 368  6595.44
 369  6976.003
 370  7935.229
 371  7446.43
 372  7347.962
 373  6841.68
 374  6626.751
 375  6979.467
 376  6687.065
 377  6758.964
 378  7307.677
 379  7595.474
 380  7439.388
 381  7053.92
 382  7289.184
 383  6837.464
 384  6792.426
 385  6713.356
 386  7180.986
 387  7520.007
 388  7472.525
 389  6809.503
 390  6928.48
 391  7117.909
 392  6934.276
 393  6805.028
 394  7137.444
 395  7433.182
 396  7364.946
 397  6860.153
 398  6443.502
 399  6715.565
 400  6669.263
 401  6636.476
 402  7525.954
 403  7700.41
 404  7668.692
 405  7572.745
 406  7128.775
 407  7109.646
 408  6799.432
 409  6316.614
 410  6287.91
 411  6747.804
 412  7247.55
 413  6993.08
 414  6839.599
 415  6823.693
 416  6797.12
 417  6698.838
 418  6322.111
 419  6680.454
 420  6887.475
 421  6336.581
 422  6358.75
 423  6345.687
 424  6154.187
 425  6342.609
 426  6134.334
 427  6114.394
 428  6843.898
 429  6717.286
 430  6070.042
 431  6227.533
 432  6337.135
 433  6549.702
 434  6579.593
 435  6803.865
 436  7453.911
 437  6936.014
 438  6815.014
 439  6306.326
 440  6207.47
 441  6593.574
 442  6438.665
 443  6270.973
 444  6733.903
 445  6965.514
 446  6641.883
 447  6512.904
 448  6550.42
 449  6252.907
 450  6040.329
 451  6551.03
 452  6844.674
 453  7341.921
 454  7267.621
 455  6972.081
 456  6434.869
 457  6714.124
 458  6371.864
 459  6105.114
 460  6453.64
 461  6642.835
 462  6787.624
 463  6242.396
 464  6432.967
 465  6801.138
 466  6781.601
 467  6213.69
 468  6430.893
 469  7088.285
 470  7104.477
 471  6808.45
 472  6233.864
 473  6039.491
 474  5968.901
 475  6086.45
 476  5859.101
 477  6383.728
 478  6331.681
 479  6503.656
 480  6059.261
 481  5780.653
 482  5838.342
 483  5651.639
 484  6202.505
 485  6578.253
 486  6973.798
 487  6885.73
 488  6275.275
 489  6384.015
 490  6216.219
 491  6399.07
 492  6088.599
 493  6166.926
 494  6514.105
 495  6816.41
 496  6572.022
 497  6784.355
 498  6943.671
 499  6915.24
 500  6532.738
 501  6787.042
 502  7376.644
 503  7471.013
 504  6846.288
 505  6725.341
 506  6389.819
 507  6376.067
 508  6374.598
 509  6223.892
 510  6452.106
 511  6444.891
