# Input file       =  1203931188.137021_cleaned.dat
# Candidate        =  PSR_0332+5434
# Telescope        =  AR
# Epoch_topo       =  58178.388971493303
# Epoch_bary       =  N/A
# T_sample         =  0.002
# Data Folded      =  7274496
# Data Avg         =  0.0831664899135389
# Data StdDev      =  0.999977709949656
# Profile Bins     =  512
# Profile Avg      =  1181.62744530562 
# Profile StdDev   =  119.19465849185  
# Reduced chi-sqr  =  1.538
# Prob(Noise)      <  5.3e-14   (~7.4 sigma)
# P_topo (ms)      =  714.58045631954   +/- 2.1e-05
# P'_topo (s/s)    =  -0                +/- 1.12e-11
# P''_topo (s/s^2) =  0                 +/- 4.99e-15
# P_bary (ms)      =  N/A
# P'_bary (s/s)    =  N/A
# P''_bary (s/s^2) =  N/A
# P_orb (s)        =  N/A
# asin(i)/c (s)    =  N/A
# eccentricity     =  N/A
# w (rad)          =  N/A
# T_peri           =  N/A
######################################################
   0  1376.494
   1  1348.943
   2  1259.326
   3  1208.737
   4  1288.124
   5  1365.093
   6  1264.824
   7  1213.922
   8  1261.074
   9  1273.527
  10  1228.357
  11  987.7727
  12  1051.123
  13  1194.708
  14  1145.792
  15  1082.816
  16  1184.978
  17  1379.341
  18  1290.36
  19  1192.426
  20  1251.539
  21  1268.888
  22  1275.068
  23  1142.814
  24  1211.709
  25  1229.099
  26  1057.099
  27  975.4948
  28  979.9069
  29  1142.281
  30  1245.692
  31  1182.323
  32  1120.138
  33  1252.767
  34  1272.402
  35  1151.723
  36  1098.362
  37  1258.902
  38  1308.019
  39  1222.532
  40  1133.212
  41  1247.417
  42  1285.185
  43  1182.857
  44  995.909
  45  1022.572
  46  1132.157
  47  1129.245
  48  1109.445
  49  1247.744
  50  1303.031
  51  1268.711
  52  1159.197
  53  1171.455
  54  1280.375
  55  1195.232
  56  1234.649
  57  1263.016
  58  1343.621
  59  1276.138
  60  1148.885
  61  1137.563
  62  1139.719
  63  1287.212
  64  1286.885
  65  1327.115
  66  1486.101
  67  1411.18
  68  1267.079
  69  1158.206
  70  1203.254
  71  1280.447
  72  1138.889
  73  1118.75
  74  1263.917
  75  1288.052
  76  1108.265
  77  1051.428
  78  1099.54
  79  1188.495
  80  1160.378
  81  1133.837
  82  1247.388
  83  1354.044
  84  1353.907
  85  1324.641
  86  1286.713
  87  1302.497
  88  1270.459
  89  1145.678
  90  1264.673
  91  1281.901
  92  1204.23
  93  1075.422
  94  1031.742
  95  1138.477
  96  1145.544
  97  1140.399
  98  1209.969
  99  1301.964
 100  1280.627
 101  1189.535
 102  1211.548
 103  1318.07
 104  1443.866
 105  1344.482
 106  1200.398
 107  1318.071
 108  1320.112
 109  1152.715
 110  1020.172
 111  1049.804
 112  1194.67
 113  1120.802
 114  1137.816
 115  1294.073
 116  1348.022
 117  1375.492
 118  1231.541
 119  1228.711
 120  1311.32
 121  1307.922
 122  1222.851
 123  1208.877
 124  1316.067
 125  1185.667
 126  981.2695
 127  978.6773
 128  1050.48
 129  1153.999
 130  1136.286
 131  1109.536
 132  1318.4
 133  1343.301
 134  1286
 135  1148.726
 136  1200.927
 137  1263.654
 138  1194.067
 139  1218.208
 140  1267.455
 141  1295.602
 142  1089.125
 143  963.0811
 144  1062.622
 145  1113.174
 146  1119.377
 147  1126.728
 148  1189.628
 149  1343.72
 150  1300.464
 151  1185.3
 152  1160.426
 153  1324.168
 154  1291.906
 155  1122.328
 156  1133.076
 157  1247.168
 158  1197.639
 159  1078.551
 160  981.0508
 161  1112.374
 162  1228.703
 163  1117.168
 164  1143.802
 165  1238.297
 166  1354.565
 167  1225.88
 168  1181.884
 169  1203.448
 170  1245.879
 171  1197.909
 172  1141.094
 173  1191.282
 174  1195.221
 175  1124.116
 176  1051.697
 177  1024.267
 178  1174.508
 179  1189.77
 180  1172.753
 181  1221.083
 182  1294.275
 183  1318.461
 184  1259.664
 185  1218.523
 186  1202.713
 187  1212.197
 188  1176.568
 189  1097.163
 190  1207.558
 191  1154.266
 192  1005.252
 193  971.7994
 194  1019.83
 195  1170.284
 196  1091.654
 197  1141.781
 198  1253.762
 199  1291.825
 200  1237.324
 201  1063.88
 202  1149.065
 203  1300.438
 204  1217.498
 205  1108.086
 206  1168.105
 207  1275.571
 208  1104.434
 209  851.5402
 210  918.379
 211  1055.522
 212  1204.663
 213  1177.632
 214  1199.663
 215  1336.986
 216  1303.39
 217  1254.137
 218  1168.498
 219  1170.066
 220  1209.537
 221  1107.645
 222  1091.565
 223  1155.099
 224  1125.541
 225  974.4594
 226  889.1992
 227  1011.302
 228  1050.058
 229  1059.435
 230  1075.005
 231  1159.26
 232  1345.874
 233  1216.47
 234  1115.189
 235  1162.733
 236  1249.803
 237  1119.702
 238  1029.53
 239  1138.142
 240  1208.043
 241  1194.963
 242  990.9985
 243  1006.27
 244  1099.557
 245  1171.934
 246  1154.01
 247  1160.534
 248  1249.589
 249  1271.328
 250  1221.366
 251  1215.973
 252  1232.423
 253  1285.553
 254  1278.894
 255  1153.247
 256  1250.432
 257  1190.578
 258  1082.7
 259  948.5554
 260  1023.681
 261  1074.365
 262  1048.675
 263  1103.969
 264  1257.598
 265  1318.071
 266  1216.451
 267  1204.366
 268  1269.906
 269  1273.419
 270  1203.298
 271  1099.719
 272  1117.448
 273  1131.724
 274  1112.846
 275  909.4177
 276  976.5885
 277  1126.695
 278  1197.295
 279  1067.318
 280  1072.374
 281  1225.608
 282  1127.441
 283  1088.517
 284  1144.826
 285  1292.549
 286  1397.661
 287  1153.126
 288  1148.03
 289  1230.418
 290  1165.307
 291  968.1939
 292  893.9515
 293  1052.028
 294  1119.306
 295  1101.812
 296  1153.956
 297  1303.796
 298  1355.78
 299  1198.363
 300  1040.955
 301  1180.818
 302  1346.993
 303  1248.313
 304  1031.337
 305  1132.841
 306  1255.058
 307  1185.379
 308  996.4254
 309  1036.716
 310  1230.438
 311  1093.788
 312  1092.434
 313  1176.433
 314  1312.566
 315  1338.16
 316  1131.409
 317  1094.445
 318  1117.674
 319  1175.567
 320  1095.969
 321  1177.571
 322  1190.079
 323  1151.655
 324  1036.135
 325  838.2575
 326  924.6899
 327  1022.7
 328  1099.407
 329  1170.791
 330  1291.03
 331  1325.367
 332  1259.474
 333  1218.681
 334  1191.138
 335  1220.962
 336  1253.639
 337  1098.018
 338  1120.079
 339  1287.79
 340  1235.478
 341  1012.765
 342  1084.481
 343  1181.844
 344  1154.948
 345  1084.087
 346  1087.361
 347  1352.154
 348  1363.184
 349  1262.615
 350  1245.29
 351  1374.951
 352  1352.089
 353  1245.353
 354  1188.999
 355  1244.723
 356  1271.503
 357  1031.95
 358  990.6455
 359  1059.441
 360  1140.373
 361  1224.116
 362  1216.698
 363  1323.789
 364  1366.545
 365  1270.026
 366  1245.363
 367  1255.758
 368  1356.153
 369  1326.249
 370  1198.896
 371  1165.907
 372  1346.586
 373  1221.738
 374  1016.436
 375  1037.025
 376  1067.303
 377  1114.932
 378  1068.598
 379  1163.514
 380  1264.728
 381  1274.842
 382  1202.124
 383  1163.825
 384  1307.727
 385  1312.032
 386  1173.834
 387  1167.949
 388  1274.773
 389  1182.586
 390  1023.329
 391  882.9995
 392  1026.888
 393  1173.521
 394  1149.057
 395  1166.463
 396  1275.371
 397  1367.522
 398  1263.826
 399  1179.9
 400  1234.677
 401  1227.836
 402  1213.931
 403  1141.518
 404  1216.744
 405  1280.559
 406  1202.59
 407  1022.835
 408  995.0654
 409  1141.455
 410  1106.944
 411  1186.849
 412  1232.737
 413  1320.054
 414  1328.489
 415  1201.836
 416  1211.193
 417  1321.123
 418  1285.515
 419  1201.12
 420  1192.776
 421  1267.595
 422  1211.84
 423  1056.879
 424  921.4102
 425  1073.591
 426  1105.709
 427  1072.244
 428  1121.027
 429  1205.122
 430  1213.49
 431  1246.501
 432  1211.825
 433  1217.749
 434  1350.349
 435  1273.586
 436  1159.359
 437  1161.786
 438  1235.659
 439  1171.417
 440  972.6164
 441  973.5441
 442  1046.671
 443  1164.915
 444  1156.988
 445  1149.164
 446  1345.464
 447  1384.346
 448  1273.065
 449  1200.944
 450  1311.051
 451  1304.231
 452  1249.563
 453  1140.789
 454  1187.243
 455  1216.963
 456  1077.887
 457  991.097
 458  1046.529
 459  1119.064
 460  1118.864
 461  1198.993
 462  1251.682
 463  1319.553
 464  1320.902
 465  1218.013
 466  1246.18
 467  1265.879
 468  1182.192
 469  1087.954
 470  1128.308
 471  1239.578
 472  1060.104
 473  946.4492
 474  941.9413
 475  1081.665
 476  1144.468
 477  1150.745
 478  1206.469
 479  1305.726
 480  1324.708
 481  1182.812
 482  1104.206
 483  1250.535
 484  1309.32
 485  1256.976
 486  1139.324
 487  1314.696
 488  1314.325
 489  1071.473
 490  915.8365
 491  987.7745
 492  1139.318
 493  1117.199
 494  1039.327
 495  1154.753
 496  1316.197
 497  1325.878
 498  1255.53
 499  1211.592
 500  1253.706
 501  1276.635
 502  1070.361
 503  1147.703
 504  1288.44
 505  1189.53
 506  1093.013
 507  1025.782
 508  1113.01
 509  1197.286
 510  1188.031
 511  1206.444
