# Input file       =  1203759049.105247_cleaned.dat
# Candidate        =  PSR_0332+5434
# Telescope        =  AR
# Epoch_topo       =  58176.396621588508
# Epoch_bary       =  N/A
# T_sample         =  0.002
# Data Folded      =  7340032
# Data Avg         =  0.453025380753387
# Data StdDev      =  6.31867116348256 
# Profile Bins     =  512
# Profile Avg      =  6494.55022084686 
# Profile StdDev   =  756.55368427008  
# Reduced chi-sqr  =  0.944
# Prob(Noise)      <  0.812   (~0.0 sigma)
# P_topo (ms)      =  714.580610980017  +/- 7.72e-05
# P'_topo (s/s)    =  -0                +/- 4.07e-11
# P''_topo (s/s^2) =  0                 +/- 1.8e-14
# P_bary (ms)      =  N/A
# P'_bary (s/s)    =  N/A
# P''_bary (s/s^2) =  N/A
# P_orb (s)        =  N/A
# asin(i)/c (s)    =  N/A
# eccentricity     =  N/A
# w (rad)          =  N/A
# T_peri           =  N/A
######################################################
   0  6995.647
   1  7095.942
   2  6873.501
   3  7000.321
   4  7229.78
   5  7374.11
   6  7191.267
   7  7171.612
   8  6870.592
   9  6463.341
  10  6156.043
  11  6803.127
  12  7063.728
  13  7049.355
  14  7351.165
  15  7347.712
  16  7114.377
  17  6210.361
  18  6315.79
  19  6191.663
  20  6320.144
  21  6897.834
  22  6809.974
  23  6154.301
  24  6259.804
  25  6577.938
  26  6663.889
  27  6406.618
  28  6361.985
  29  6159.288
  30  6449.496
  31  6706.489
  32  6823.452
  33  6923.575
  34  6785.407
  35  6743.278
  36  6916.994
  37  6928.197
  38  6518.593
  39  6173.991
  40  6390.019
  41  6142.295
  42  6045.685
  43  6149.459
  44  5980.043
  45  6316.663
  46  6573.659
  47  6712.482
  48  6979.69
  49  6953.998
  50  6625.811
  51  6548.555
  52  6699.889
  53  6845.545
  54  6797.106
  55  6472.542
  56  6324.722
  57  6531.448
  58  6430.934
  59  6313.273
  60  6124.002
  61  6075.82
  62  6634.073
  63  6789.83
  64  6950.727
  65  6810.84
  66  6400.402
  67  6382.941
  68  6351.954
  69  6265.139
  70  6560.913
  71  6796.504
  72  6603.776
  73  5952.838
  74  5864.872
  75  5641.194
  76  5708.478
  77  6006.891
  78  6168.447
  79  6465.379
  80  6595.189
  81  6327.214
  82  6208.354
  83  6451.686
  84  6385.499
  85  5978.975
  86  6170.29
  87  6513.005
  88  6461.441
  89  6413.019
  90  6257.729
  91  6056.283
  92  5756.303
  93  5899.59
  94  6094.557
  95  6339.952
  96  6754.515
  97  6706.008
  98  6815.626
  99  6518.382
 100  6035.771
 101  6377.077
 102  6133.202
 103  5871.7
 104  5872.251
 105  5938.569
 106  5814.398
 107  5547.007
 108  5230.675
 109  5372.546
 110  5722.481
 111  6087.241
 112  6464.921
 113  6544.642
 114  6744.291
 115  6569.506
 116  6578.53
 117  6924
 118  6932.507
 119  7245.264
 120  7529.518
 121  6819.214
 122  6077.323
 123  6200.703
 124  5999.458
 125  5691.631
 126  5499.491
 127  5913.686
 128  6061.376
 129  6557.646
 130  6352.242
 131  6160.377
 132  5987.316
 133  5831.111
 134  5742.134
 135  5674.767
 136  5748.737
 137  5980.808
 138  6121.871
 139  5687.899
 140  5435.847
 141  5296.871
 142  5509.327
 143  5669.189
 144  6167.476
 145  6271.909
 146  6127.295
 147  6213.585
 148  6230.113
 149  6158.79
 150  6126.276
 151  6147.149
 152  6246.896
 153  6268.35
 154  6667.965
 155  6702.203
 156  6679.903
 157  6032.591
 158  5407.104
 159  5626.47
 160  6280.663
 161  6301.138
 162  6666.042
 163  6785.854
 164  6722.601
 165  6308.217
 166  6147.682
 167  6267.849
 168  6047.823
 169  6656.031
 170  6507.979
 171  5998.07
 172  5747.182
 173  5698.986
 174  5558.542
 175  5634.005
 176  6129.912
 177  6032.503
 178  6274.877
 179  6265.064
 180  6272.368
 181  6258.809
 182  6030.119
 183  5568.582
 184  6104.6
 185  6171.155
 186  6375.474
 187  6767.06
 188  6108.289
 189  6049.697
 190  5919.983
 191  6036.035
 192  6198.495
 193  6463.084
 194  6698.809
 195  6538.073
 196  6606.979
 197  6650.935
 198  6461.715
 199  6457.657
 200  6042.214
 201  6247.525
 202  6688.384
 203  6487.477
 204  6593.788
 205  6469.083
 206  6687.953
 207  5768.989
 208  5980.316
 209  6588.03
 210  6501.129
 211  6802.108
 212  6646.279
 213  6836.492
 214  6676.902
 215  6331.047
 216  6194.845
 217  5799.915
 218  6595.63
 219  7081.512
 220  6885.251
 221  6695.241
 222  6296.589
 223  6174.931
 224  5809.594
 225  5977.75
 226  6368.476
 227  6567.13
 228  6862.688
 229  7023.803
 230  6405.716
 231  6162.555
 232  5838.978
 233  5897.66
 234  6060.553
 235  6117.505
 236  6565.797
 237  6449.261
 238  6298.454
 239  5485.661
 240  5456.665
 241  5987.178
 242  6237.75
 243  6416.777
 244  6171.826
 245  6325.312
 246  6265.903
 247  6018.422
 248  5912.246
 249  5845.401
 250  5877.797
 251  5680.706
 252  6041.66
 253  6121.145
 254  5796.274
 255  5613.223
 256  5527.044
 257  5427.168
 258  5634.176
 259  5773.336
 260  6109.5
 261  6405.425
 262  6170.358
 263  5899.973
 264  5899.468
 265  5841.935
 266  5927.189
 267  5881.174
 268  5885.27
 269  5871.292
 270  5794.921
 271  5630.646
 272  5670.697
 273  5343.169
 274  5656.211
 275  5817.021
 276  5680.987
 277  6458.372
 278  6408.783
 279  6443.078
 280  6391.7
 281  6328.031
 282  6283.216
 283  6486.917
 284  6540.251
 285  6146
 286  6434.778
 287  6833.346
 288  6478.764
 289  6116.495
 290  5934.645
 291  6331.443
 292  6328.135
 293  6340.295
 294  6417.424
 295  7107.082
 296  7154.443
 297  6552.857
 298  6383.594
 299  6386.123
 300  6723.847
 301  6672.195
 302  6440.038
 303  6210.692
 304  6463.069
 305  6725.622
 306  6360.989
 307  6086.431
 308  6365.887
 309  6239.001
 310  6565.055
 311  6991.019
 312  7175.144
 313  6925.544
 314  6565.768
 315  6136.849
 316  6356.504
 317  6367.06
 318  6699.68
 319  6875.254
 320  6063.354
 321  6032.088
 322  5682.762
 323  5604.742
 324  6196.697
 325  6366.94
 326  6295.42
 327  6281.61
 328  6373.914
 329  6107.379
 330  6367.021
 331  6248.04
 332  6322.432
 333  5766.652
 334  5624.6
 335  6113.539
 336  6253.384
 337  6259.189
 338  5740.117
 339  5406.142
 340  5637.833
 341  5881.091
 342  6134.212
 343  6172.614
 344  6004.042
 345  6166.668
 346  6459.243
 347  6310.281
 348  6286.138
 349  6289.66
 350  6642.199
 351  6440.104
 352  6726.275
 353  6822.346
 354  6245.643
 355  6058.131
 356  5742.406
 357  6109.042
 358  6438.297
 359  6302.844
 360  6385.109
 361  6487.044
 362  6909.863
 363  6713.458
 364  6342.906
 365  6411.003
 366  6396.641
 367  6662.096
 368  7034.886
 369  6695.22
 370  6525.025
 371  5945.81
 372  6038.374
 373  6182.582
 374  6660.26
 375  6525.333
 376  6745.629
 377  7024.181
 378  6961.278
 379  7007.246
 380  6648.007
 381  6277.519
 382  6819.192
 383  7170.651
 384  7605.506
 385  7084.552
 386  6516.271
 387  5966.417
 388  5933.249
 389  6777.51
 390  6755.325
 391  6955.187
 392  7024.217
 393  7101.708
 394  6964.534
 395  6699.536
 396  6638.945
 397  6332.341
 398  6535.889
 399  6916.956
 400  6613.421
 401  6848.317
 402  6869.006
 403  6392.794
 404  6399.393
 405  5693.865
 406  5665.593
 407  6102.21
 408  6653.977
 409  6661.73
 410  6357.67
 411  6734.412
 412  6762.048
 413  6400.217
 414  6409.466
 415  6289.712
 416  6479.033
 417  6901.283
 418  7331.07
 419  7083.039
 420  6835.888
 421  6581.58
 422  6258.23
 423  6639.252
 424  6748.714
 425  6511.175
 426  6477.804
 427  6957.359
 428  7198.732
 429  6733.774
 430  6806.871
 431  7139.565
 432  6855.261
 433  6932.346
 434  7639.988
 435  7488.614
 436  7281.045
 437  7252.746
 438  6761.188
 439  6504.723
 440  6687.779
 441  7308.555
 442  7512.56
 443  7904.898
 444  8054.792
 445  7642.13
 446  7493.513
 447  7537.29
 448  7525.247
 449  7732.132
 450  7957.452
 451  7469.53
 452  7200.257
 453  7048.337
 454  7174.027
 455  7000.016
 456  6787.054
 457  7002.548
 458  6940.312
 459  6957.646
 460  7323.425
 461  7341.141
 462  7422.654
 463  7412.845
 464  7444.155
 465  7533.21
 466  7542.957
 467  7444.807
 468  7131.14
 469  6944.328
 470  7269.502
 471  7154.629
 472  7047.212
 473  7410.739
 474  7254.353
 475  7410.353
 476  7728.36
 477  7806.332
 478  7745.657
 479  8002.498
 480  7337.646
 481  7396.815
 482  7442.473
 483  7666.796
 484  7669.64
 485  7130.426
 486  6913.087
 487  6782.274
 488  6822.723
 489  6521.709
 490  6847.538
 491  7092.689
 492  7293.044
 493  7222.7
 494  7221.374
 495  7173.57
 496  6802.674
 497  6909.02
 498  6981.621
 499  7372.692
 500  6868.763
 501  7021.28
 502  7097.112
 503  7261.573
 504  6918.299
 505  6507.321
 506  6710.743
 507  7162.243
 508  7654.862
 509  7861.269
 510  7536.641
 511  7345.909
