# Input file       =  1203698822.10975_cleaned.dat
# Candidate        =  PSR_0332+5434
# Telescope        =  AR
# Epoch_topo       =  58175.699549881363
# Epoch_bary       =  N/A
# T_sample         =  0.002
# Data Folded      =  7340032
# Data Avg         =  0.420952941578955
# Data StdDev      =  8.29710585442649 
# Profile Bins     =  512
# Profile Avg      =  6034.89891312345 
# Profile StdDev   =  993.437677089926 
# Reduced chi-sqr  =  1.620
# Prob(Noise)      <  2.21e-17   (~8.4 sigma)
# P_topo (ms)      =  714.580908751544  +/- 0.00019
# P'_topo (s/s)    =  -0                +/- 1e-10
# P''_topo (s/s^2) =  0                 +/- 4.42e-14
# P_bary (ms)      =  N/A
# P'_bary (s/s)    =  N/A
# P''_bary (s/s^2) =  N/A
# P_orb (s)        =  N/A
# asin(i)/c (s)    =  N/A
# eccentricity     =  N/A
# w (rad)          =  N/A
# T_peri           =  N/A
######################################################
   0  7199.795
   1  7471.899
   2  7236.025
   3  7171.011
   4  7253.702
   5  7084.3
   6  6588.196
   7  6506.959
   8  6964.265
   9  6790.685
  10  7065.897
  11  7348.018
  12  6952.544
  13  6663.99
  14  6744.762
  15  7107.062
  16  7363.521
  17  6894.669
  18  6825.77
  19  6477.434
  20  6264.061
  21  5850.875
  22  5749.022
  23  6397.928
  24  6830.458
  25  6864.519
  26  6675.756
  27  6621.71
  28  6767.889
  29  6543.107
  30  6635.547
  31  6746.438
  32  6753.321
  33  6289.583
  34  6328.245
  35  6189.733
  36  6463.529
  37  6641.797
  38  6647.232
  39  6727.891
  40  6826.082
  41  6875.778
  42  6259.855
  43  6179.701
  44  6261.431
  45  5857.657
  46  6061.314
  47  5951.027
  48  5832.103
  49  5541.6
  50  5571.454
  51  6091.543
  52  5809.835
  53  5450.479
  54  5555.153
  55  5534.643
  56  5626.349
  57  5454.222
  58  5761.332
  59  5729.954
  60  5550.776
  61  5224.582
  62  6046.898
  63  6161.287
  64  6183.183
  65  6667.43
  66  6859.826
  67  6754.479
  68  6648.57
  69  7045.628
  70  7214.597
  71  7079.538
  72  7291.403
  73  7675.029
  74  7685.762
  75  7967.443
  76  8026.682
  77  7698.679
  78  7508.938
  79  7451.783
  80  7497.152
  81  8134.137
  82  8143.514
  83  8088.548
  84  7729.837
  85  7626.595
  86  7497.424
  87  6957.42
  88  6961.518
  89  7262.186
  90  7161.632
  91  7355.524
  92  7443.687
  93  6887.147
  94  6825.703
  95  6488.938
  96  6120.22
  97  6082.631
  98  6165.905
  99  6363.316
 100  5800.847
 101  5718.206
 102  5571.838
 103  5801.871
 104  5619.336
 105  5554.319
 106  5771.951
 107  5390.342
 108  5565.716
 109  5400.546
 110  5369.129
 111  5452.95
 112  4926.41
 113  4938.747
 114  4877.336
 115  5157.063
 116  4938.36
 117  5377.384
 118  5498.375
 119  5124.074
 120  4960.658
 121  4813.607
 122  4691.696
 123  4713.154
 124  4587.527
 125  4858.349
 126  4975.241
 127  4989.96
 128  4872.355
 129  4603.783
 130  4938.113
 131  4880.818
 132  4631.294
 133  5059.38
 134  4860.246
 135  5012.191
 136  5507.758
 137  5373.365
 138  5752.296
 139  5421.91
 140  5612.417
 141  6140.938
 142  5566.724
 143  5661.596
 144  5655.926
 145  5684.216
 146  5690.279
 147  5664.643
 148  5957.458
 149  6522.604
 150  6727.317
 151  6750.646
 152  6855.596
 153  6632.227
 154  6696.072
 155  7331.561
 156  7135.234
 157  7022.254
 158  7821.298
 159  8040.535
 160  7668.86
 161  7302.198
 162  6928.04
 163  7040.684
 164  6925.218
 165  6738.828
 166  6517.089
 167  6496.034
 168  6196.735
 169  6097.838
 170  6404.798
 171  6500.621
 172  6159.474
 173  5824.373
 174  5695.767
 175  5654.421
 176  5686.146
 177  5649.334
 178  5470.476
 179  5425.268
 180  5203.209
 181  4973.49
 182  5208.251
 183  5028.854
 184  4865.835
 185  5136.612
 186  5088.821
 187  5064.452
 188  5467.437
 189  5338.021
 190  5297.054
 191  5047.394
 192  5109.659
 193  5001.412
 194  4691.661
 195  4353.354
 196  4532.77
 197  4461.818
 198  4689.833
 199  4922.295
 200  4924.66
 201  4746.708
 202  4854.439
 203  4635.185
 204  4832.741
 205  4923.056
 206  5371.799
 207  5386.874
 208  5117.641
 209  4676.945
 210  4746.679
 211  5231.461
 212  5349.076
 213  5440.066
 214  5187.679
 215  5331.09
 216  4839.071
 217  4745.327
 218  5348.022
 219  5401.603
 220  5652.516
 221  5907.552
 222  6553.479
 223  6461.463
 224  6184.629
 225  6111.329
 226  6125.313
 227  6186.49
 228  5923.223
 229  5965.086
 230  6087.489
 231  6156.575
 232  5911.011
 233  5929.964
 234  5768.164
 235  5611.985
 236  5880.472
 237  5937.248
 238  5400.214
 239  5625.668
 240  5822.894
 241  5593.352
 242  5689.46
 243  5572.758
 244  5816.497
 245  5365.039
 246  5360.062
 247  6198.649
 248  6370.805
 249  6233.342
 250  6039.206
 251  5625.059
 252  5105.74
 253  4900.884
 254  5169.278
 255  5216.837
 256  5257.038
 257  5097.807
 258  5187.13
 259  5061.562
 260  4980.258
 261  5292.592
 262  5144.94
 263  4872.131
 264  5032.86
 265  5436.437
 266  5009.2
 267  5324.857
 268  5720.921
 269  5926.648
 270  5118.261
 271  5280.113
 272  5337.161
 273  5358.501
 274  5254.875
 275  5315.947
 276  5144.605
 277  5422.828
 278  5537.746
 279  6072.594
 280  5746.619
 281  6054.663
 282  6037.53
 283  6319.44
 284  6897.032
 285  6955.194
 286  6711.343
 287  6729.971
 288  6926.139
 289  6910.696
 290  6923.28
 291  7165.229
 292  7195.951
 293  7075.26
 294  7559.91
 295  8154.144
 296  8016.019
 297  8200.446
 298  7549.521
 299  7532.31
 300  7919.042
 301  8460.986
 302  8630.4
 303  8914.268
 304  9828.583
 305  9740.211
 306  9138.485
 307  8236.087
 308  7669.135
 309  6940.198
 310  6942.939
 311  6929.761
 312  6816.531
 313  6690.36
 314  6426.605
 315  6110.72
 316  5853.466
 317  5993.23
 318  5791.762
 319  5715.609
 320  6075.051
 321  6047.77
 322  5612.359
 323  5447.87
 324  5291.982
 325  5359.609
 326  5449.056
 327  5526.475
 328  5657.017
 329  5478.256
 330  5564.871
 331  5629.038
 332  5612.213
 333  5229.552
 334  5237.307
 335  5451.523
 336  5656.704
 337  5583.722
 338  5714.693
 339  5119.348
 340  4592.587
 341  4587.811
 342  4963.819
 343  5017.431
 344  5256.358
 345  5321.121
 346  5164.392
 347  4670.654
 348  4605.059
 349  4696.858
 350  4691.091
 351  4878.751
 352  5112.158
 353  4903.823
 354  5614.6
 355  5305.543
 356  5141.704
 357  4868.008
 358  4912.249
 359  5357.369
 360  5173.83
 361  5595.277
 362  5939.737
 363  5800.991
 364  5934.894
 365  6419.553
 366  6514.462
 367  6349.329
 368  6545.597
 369  7188.461
 370  7482.752
 371  7265.491
 372  7768.456
 373  7841.162
 374  7500.395
 375  7902.74
 376  7610.959
 377  7067.142
 378  6740.785
 379  7268.473
 380  7620.105
 381  7165.72
 382  7256.888
 383  6759.131
 384  6643.07
 385  6551.911
 386  6336.1
 387  6455.882
 388  5988.894
 389  5480.469
 390  5516.655
 391  5745.098
 392  5614.752
 393  5697.897
 394  5744.976
 395  6084.111
 396  5952.978
 397  5683.475
 398  5604.559
 399  5609.931
 400  5551.486
 401  6129.328
 402  6151.904
 403  6174.972
 404  5932.419
 405  6093.237
 406  5837.355
 407  5729.986
 408  5717.81
 409  5576.807
 410  5681.09
 411  5748.258
 412  6120.593
 413  5562.965
 414  5306.721
 415  5048.482
 416  5316.029
 417  5780.507
 418  6195.159
 419  5990.37
 420  5671.237
 421  5424.309
 422  5593.117
 423  5632.461
 424  6016.499
 425  5911.892
 426  5406.899
 427  5348.839
 428  5648.927
 429  5284.65
 430  5288.704
 431  5298.022
 432  5775.563
 433  5962.875
 434  5479.508
 435  5423.264
 436  5353.478
 437  5813.884
 438  6059.209
 439  5957.488
 440  6226.063
 441  6518.216
 442  6656.838
 443  6421.482
 444  6365.876
 445  6393.745
 446  6780.3
 447  7407.657
 448  7325.594
 449  7288.171
 450  7185.107
 451  7197.984
 452  7023.737
 453  6925.361
 454  7314.436
 455  7139.664
 456  7026.132
 457  6702.489
 458  6381.11
 459  6444.298
 460  6234.734
 461  6558.904
 462  6637.627
 463  6637.125
 464  6218.763
 465  6232.73
 466  6481.754
 467  6680.536
 468  6449.125
 469  6100.368
 470  6289.262
 471  6254.093
 472  6437.826
 473  6225.944
 474  5756.51
 475  5843.26
 476  5820.481
 477  5707.147
 478  5843.557
 479  5354.227
 480  5652.409
 481  5288.252
 482  4902.312
 483  4843.362
 484  4479.023
 485  4531.187
 486  5114.56
 487  5471.068
 488  5236.446
 489  4809.269
 490  4876.243
 491  5051.684
 492  4896.314
 493  4993.25
 494  4795.145
 495  4724.581
 496  5271.697
 497  5017.238
 498  5367.398
 499  5156.451
 500  5040.157
 501  4955.474
 502  5609.542
 503  5769.566
 504  5977.892
 505  6092.177
 506  5875.325
 507  5997.263
 508  6339.629
 509  6848.495
 510  6998.878
 511  6567.899
