# Input file       =  1203090916.122294_cleaned.dat
# Candidate        =  PSR_0332+5434
# Telescope        =  AR
# Epoch_topo       =  58168.663600952474
# Epoch_bary       =  N/A
# T_sample         =  0.002
# Data Folded      =  7340032
# Data Avg         =  0.0523240827746529
# Data StdDev      =  1.00009552835795 
# Profile Bins     =  512
# Profile Avg      =  750.25617072519  
# Profile StdDev   =  119.744474277124 
# Reduced chi-sqr  =  1.146
# Prob(Noise)      <  0.0125   (~2.2 sigma)
# P_topo (ms)      =  714.580705522024  +/- 0.000556
# P'_topo (s/s)    =  -0                +/- 2.93e-10
# P''_topo (s/s^2) =  0                 +/- 1.3e-13
# P_bary (ms)      =  N/A
# P'_bary (s/s)    =  N/A
# P''_bary (s/s^2) =  N/A
# P_orb (s)        =  N/A
# asin(i)/c (s)    =  N/A
# eccentricity     =  N/A
# w (rad)          =  N/A
# T_peri           =  N/A
######################################################
   0  820.5643
   1  783.1606
   2  831.9182
   3  912.5212
   4  927.7451
   5  847.4303
   6  683.3774
   7  688.4115
   8  750.8629
   9  838.9487
  10  851.0947
  11  714.0236
  12  645.2216
  13  657.3568
  14  677.7399
  15  696.998
  16  772.3715
  17  796.9211
  18  673.438
  19  724.0878
  20  757.1794
  21  674.1293
  22  682.2745
  23  773.1669
  24  795.4784
  25  726.0507
  26  718.2934
  27  655.2551
  28  704.5279
  29  777.4156
  30  701.8683
  31  760.0179
  32  732.6293
  33  633.5575
  34  649.9444
  35  685.1443
  36  680.043
  37  692.5228
  38  678.1786
  39  642.3094
  40  562.8356
  41  659.4459
  42  731.1296
  43  685.4349
  44  688.8539
  45  696.6199
  46  709.049
  47  692.839
  48  692.5724
  49  695.3381
  50  717.7299
  51  770.3972
  52  843.7873
  53  760.1091
  54  715.2088
  55  811.17
  56  768.9052
  57  771.792
  58  826.7064
  59  773.5542
  60  768.0421
  61  632.2371
  62  687.3817
  63  766.0162
  64  780.7852
  65  759.0875
  66  736.5042
  67  729.5693
  68  769.2957
  69  626.84
  70  547.019
  71  591.9941
  72  735.1359
  73  664.3872
  74  552.7739
  75  584.4167
  76  589.4516
  77  603.7979
  78  635.6791
  79  672.8881
  80  697.2977
  81  685.7609
  82  660.097
  83  622.1799
  84  699.146
  85  677.5944
  86  678.5858
  87  674.8701
  88  623.1814
  89  575.9482
  90  657.7383
  91  749.765
  92  644.7499
  93  678.495
  94  783.9278
  95  771.826
  96  749.1768
  97  641.8959
  98  618.0917
  99  656.8427
 100  689.6522
 101  723.9246
 102  709.5594
 103  665.4579
 104  629.6823
 105  669.2992
 106  768.4874
 107  731.855
 108  798.2739
 109  778.8266
 110  749.8533
 111  732.2646
 112  695.9506
 113  686.7386
 114  706.3524
 115  729.0956
 116  793.1815
 117  725.3281
 118  746.7177
 119  728.1443
 120  765.4095
 121  667.7819
 122  674.8099
 123  720.9109
 124  737.1344
 125  715.7267
 126  787.4942
 127  749.5905
 128  685.4079
 129  684.2731
 130  651.3464
 131  641.4725
 132  725.6976
 133  803.9133
 134  702.478
 135  662.3887
 136  733.6401
 137  750.3098
 138  689.413
 139  665.458
 140  778.7137
 141  838.0526
 142  743.0797
 143  646.6302
 144  767.5105
 145  788.4729
 146  749.1414
 147  789.1381
 148  741.0558
 149  737.0762
 150  865.7586
 151  857.73
 152  743.6627
 153  662.3599
 154  738.1364
 155  674.1901
 156  665.0421
 157  816.0087
 158  860.3026
 159  872.951
 160  834.8066
 161  835.836
 162  897.2324
 163  831.5827
 164  755.8542
 165  787.5112
 166  885.7563
 167  859.6818
 168  872.7695
 169  893.768
 170  868.3203
 171  865.7809
 172  834.8865
 173  818.2219
 174  818.6476
 175  797.7954
 176  783.553
 177  721.3757
 178  688.3823
 179  777.0438
 180  654.6111
 181  702.92
 182  811.5547
 183  881.5242
 184  862.2623
 185  866.3938
 186  763.7394
 187  749.1349
 188  793.5267
 189  737.5517
 190  663.6885
 191  660.527
 192  707.1298
 193  653.8129
 194  727.7435
 195  688.6035
 196  723.9661
 197  801.8199
 198  742.7476
 199  688.9528
 200  702.5052
 201  754.4086
 202  743.0208
 203  792.2178
 204  742.7037
 205  763.47
 206  765.5594
 207  771.9788
 208  696.3975
 209  788.6293
 210  769.9985
 211  824.4864
 212  719.1866
 213  709.8617
 214  776.0842
 215  620.6264
 216  706.2904
 217  774.0172
 218  778.9068
 219  773.1763
 220  823.0585
 221  765.6713
 222  751.4495
 223  775.3501
 224  706.3846
 225  696.5408
 226  674.4391
 227  706.6773
 228  689.6119
 229  635.8942
 230  754.487
 231  802.905
 232  736.8005
 233  684.0779
 234  642.9545
 235  789.8638
 236  800.4315
 237  703.3776
 238  695.3898
 239  638.3805
 240  591.0674
 241  541.4359
 242  528.9387
 243  619.6331
 244  622.5419
 245  713.1523
 246  585.3423
 247  459.8873
 248  576.2386
 249  631.2664
 250  636.8517
 251  708.884
 252  722.8795
 253  576.379
 254  608.5415
 255  721.2071
 256  765.5285
 257  682.6896
 258  621.3158
 259  652.9138
 260  656.3615
 261  666.0496
 262  697.8272
 263  713.1538
 264  685.4653
 265  654.9642
 266  613.3171
 267  758.2744
 268  743.5373
 269  738.966
 270  744.0283
 271  741.8766
 272  703.2717
 273  830.5618
 274  764.0182
 275  753.9629
 276  729.9036
 277  726.2189
 278  751.7698
 279  644.3901
 280  679.3634
 281  640.0815
 282  749.0608
 283  783.4523
 284  745.8003
 285  702.2318
 286  761.7486
 287  791.9156
 288  674.5308
 289  646.8397
 290  694.99
 291  803.142
 292  838.431
 293  870.6965
 294  882.222
 295  827.8898
 296  787.6621
 297  734.4662
 298  691.1943
 299  662.1453
 300  714.8111
 301  745.9263
 302  824.0046
 303  761.1623
 304  774.559
 305  688.4566
 306  576.6619
 307  706.6425
 308  732.3447
 309  703.905
 310  761.6158
 311  790.6282
 312  877.5956
 313  778.1284
 314  599.1737
 315  703.4807
 316  749.4518
 317  699.0406
 318  755.578
 319  745.9099
 320  709.7048
 321  725.1249
 322  756.0251
 323  807.3023
 324  811.9979
 325  927.8408
 326  875.317
 327  714.0122
 328  757.8959
 329  771.6764
 330  704.235
 331  763.1354
 332  860.0693
 333  799.4142
 334  735.3429
 335  701.2321
 336  657.9536
 337  714.4771
 338  680.3011
 339  705.4853
 340  678.988
 341  799.2155
 342  729.4787
 343  686.4016
 344  699.5976
 345  812.0268
 346  709.6337
 347  719.6058
 348  755.9002
 349  793.7433
 350  798.4832
 351  751.3701
 352  730.9947
 353  793.7302
 354  685.0903
 355  653.9051
 356  663.8563
 357  776.9407
 358  793.5757
 359  628.2198
 360  597.1369
 361  649.3878
 362  736.3641
 363  661.7634
 364  597.7192
 365  612.2413
 366  627.0546
 367  718.0084
 368  625.3694
 369  599.1843
 370  621.0814
 371  691.1317
 372  770.2634
 373  722.5447
 374  705.1917
 375  704.906
 376  684.0558
 377  730.0131
 378  767.7457
 379  793.4022
 380  772.6509
 381  779.6943
 382  817.3802
 383  720.1659
 384  740.9295
 385  716.3008
 386  777.8813
 387  751.1959
 388  641.5229
 389  761.379
 390  896.1329
 391  767.8343
 392  591.4795
 393  675.2708
 394  676.0667
 395  645.643
 396  529.9963
 397  701.7214
 398  826.7981
 399  830.5648
 400  787.9336
 401  709.8582
 402  762.4031
 403  812.2121
 404  769.9297
 405  861.6517
 406  878.1215
 407  865.1771
 408  826.7472
 409  835.7465
 410  740.5917
 411  825.7799
 412  882.6686
 413  772.4136
 414  764.6644
 415  696.8304
 416  707.4996
 417  741.2994
 418  653.6822
 419  708.2979
 420  663.6185
 421  663.5021
 422  711.9677
 423  716.3461
 424  767.5554
 425  764.9999
 426  750.675
 427  761.9498
 428  749.7561
 429  805.2532
 430  786.0074
 431  777.367
 432  860.9515
 433  826.9615
 434  772.8578
 435  770.1519
 436  826.2812
 437  890.4534
 438  844.1796
 439  843.981
 440  877.9146
 441  978.2712
 442  1025.589
 443  1024.882
 444  1047.263
 445  1152.042
 446  1192.093
 447  1214.674
 448  1071.861
 449  942.0537
 450  790.261
 451  763.6149
 452  807.9305
 453  747.4336
 454  789.2772
 455  805.2806
 456  825.8801
 457  818.4451
 458  780.8464
 459  850.4077
 460  876.683
 461  879.7141
 462  821.7348
 463  861.6448
 464  834.197
 465  688.1919
 466  683.1867
 467  749.5316
 468  754.3348
 469  773.1884
 470  873.1342
 471  821.9944
 472  773.9393
 473  764.5684
 474  725.6335
 475  773.2297
 476  740.1249
 477  784.6587
 478  865.5023
 479  814.8294
 480  861.1312
 481  803.1389
 482  850.4081
 483  915.184
 484  919.024
 485  1005.751
 486  879.4651
 487  876.9048
 488  843.7241
 489  848.155
 490  877.5428
 491  964.0984
 492  907.1261
 493  817.7797
 494  854.8428
 495  860.0549
 496  934.2545
 497  879.3283
 498  923.188
 499  880.3643
 500  901.026
 501  846.7933
 502  907.168
 503  899.087
 504  860.3388
 505  888.3718
 506  886.181
 507  931.1852
 508  964.0883
 509  844.1469
 510  798.8714
 511  827.3067
