# Input file       =  1203343110.089843_cleaned.dat
# Candidate        =  PSR_0332+5434
# Telescope        =  AR
# Epoch_topo       =  58171.582512613924
# Epoch_bary       =  N/A
# T_sample         =  0.002
# Data Folded      =  7340032
# Data Avg         =  0.461096115990325
# Data StdDev      =  5.51272471945315 
# Profile Bins     =  512
# Profile Avg      =  6610.45496376606 
# Profile StdDev   =  660.055269369381 
# Reduced chi-sqr  =  1.564
# Prob(Noise)      <  4.82e-15   (~7.7 sigma)
# P_topo (ms)      =  714.580730703343  +/- 0.000779
# P'_topo (s/s)    =  -0                +/- 4.11e-10
# P''_topo (s/s^2) =  0                 +/- 1.81e-13
# P_bary (ms)      =  N/A
# P'_bary (s/s)    =  N/A
# P''_bary (s/s^2) =  N/A
# P_orb (s)        =  N/A
# asin(i)/c (s)    =  N/A
# eccentricity     =  N/A
# w (rad)          =  N/A
# T_peri           =  N/A
######################################################
   0  7106.494
   1  6853.68
   2  6891.23
   3  7443.743
   4  7253.588
   5  6977.058
   6  6719.583
   7  6808
   8  6599.646
   9  6549.477
  10  6613.269
  11  7091.157
  12  7160.311
  13  6934.997
  14  6728.274
  15  6675.564
  16  6362.195
  17  6520.143
  18  6561.504
  19  6418.41
  20  6450.52
  21  6408.115
  22  6342.969
  23  6328.889
  24  6322.793
  25  6250.662
  26  6100.242
  27  5850.145
  28  6136.142
  29  6519.82
  30  6581.987
  31  6148.288
  32  6076.632
  33  6040.144
  34  6316.514
  35  6317.969
  36  6245.626
  37  6662.216
  38  6472.509
  39  6425.488
  40  6262.071
  41  5980.327
  42  6229.333
  43  6377.3
  44  6453.898
  45  6869.778
  46  7036.603
  47  6740.743
  48  6787.446
  49  6725.998
  50  6777.755
  51  6779.926
  52  6992.119
  53  7263.546
  54  7302.773
  55  7087.988
  56  6850.581
  57  6788.617
  58  6776.923
  59  6989.084
  60  6982.504
  61  6669.754
  62  6894.444
  63  6411.278
  64  6640.538
  65  6820.091
  66  6653.332
  67  6797.967
  68  7006.912
  69  7165.93
  70  7099.952
  71  6883.478
  72  7295.478
  73  7477.232
  74  7828.682
  75  7947.967
  76  8127.122
  77  8041.881
  78  8124.418
  79  7820.285
  80  7964.711
  81  7905.734
  82  7860.035
  83  7905.045
  84  8061.181
  85  8236.517
  86  8308.019
  87  7968.389
  88  7969.498
  89  8167.478
  90  7908.6
  91  7467.092
  92  7407.269
  93  7277.195
  94  7554.432
  95  7900.455
  96  8035.43
  97  7914.402
  98  8123.387
  99  7881.633
 100  7664.588
 101  7541.105
 102  8173.512
 103  8671.089
 104  8541.682
 105  8510.729
 106  8459.741
 107  8371.69
 108  8106.572
 109  7397.822
 110  7304.72
 111  7515.882
 112  7457.557
 113  7380.879
 114  7034.326
 115  6837.323
 116  6959.264
 117  6990.292
 118  7137.917
 119  7287.273
 120  7038.007
 121  7117.683
 122  7281.748
 123  7252.931
 124  6962.659
 125  6989.576
 126  6843.559
 127  6777.38
 128  6997.817
 129  6675.508
 130  6717.42
 131  6566.066
 132  6661.817
 133  6472.547
 134  6500.347
 135  6688.111
 136  6778.682
 137  6608.622
 138  6889.906
 139  6772.068
 140  6519.781
 141  6811.3
 142  6890.707
 143  6667.779
 144  6951.673
 145  6895.459
 146  6697.199
 147  6347.693
 148  6664.521
 149  6558.916
 150  6363.051
 151  6384.562
 152  6619.256
 153  6518.723
 154  6291.438
 155  6780.011
 156  6903.956
 157  6936.836
 158  6973.293
 159  7035.454
 160  7105.669
 161  7186.075
 162  6909.717
 163  6881.115
 164  7340.682
 165  7500.901
 166  7220.287
 167  6746.645
 168  7288.371
 169  7237.16
 170  7115.933
 171  6951.158
 172  6998.951
 173  6943.691
 174  6842.121
 175  7034.615
 176  6832.682
 177  6866.587
 178  6698.214
 179  6705.625
 180  6476.686
 181  6246.464
 182  6362.062
 183  6346.827
 184  6086.126
 185  5976.104
 186  5993.102
 187  5514.545
 188  5859.252
 189  6137.488
 190  5936.037
 191  5778.892
 192  5585.839
 193  5745.365
 194  5865.771
 195  5722.621
 196  5650.912
 197  5924.129
 198  5924.786
 199  5719.586
 200  5560.046
 201  5397.234
 202  5624.398
 203  5663.258
 204  5911.133
 205  5958.242
 206  5952.082
 207  6028.284
 208  6124.922
 209  6183.397
 210  5836.447
 211  5933.371
 212  6272.481
 213  6229.412
 214  6092.719
 215  6069.878
 216  6126.62
 217  6026.973
 218  5749.968
 219  5654.085
 220  5538.771
 221  5673.668
 222  6099.253
 223  5793.583
 224  5507.193
 225  5839.227
 226  6230.919
 227  5858.939
 228  5603.654
 229  5583.14
 230  5507.81
 231  5765.689
 232  6192.675
 233  6309.967
 234  6335.052
 235  6202.539
 236  5753.547
 237  5713.711
 238  6013.894
 239  6116.691
 240  6166.278
 241  6240.036
 242  5864.36
 243  5903.6
 244  6081.892
 245  6131.412
 246  6177.258
 247  6330.486
 248  6273.793
 249  6110.166
 250  6106.165
 251  5955.819
 252  5576.002
 253  5738.459
 254  6044.057
 255  5955.662
 256  6003.453
 257  5856.164
 258  5898.158
 259  5784.269
 260  5848.312
 261  6206.528
 262  6120.898
 263  5395.362
 264  5556.512
 265  6009.762
 266  6113.23
 267  6172.23
 268  6373.956
 269  6116.663
 270  6226.26
 271  6439.611
 272  6597.009
 273  6549.142
 274  6113.815
 275  6600.707
 276  6790.077
 277  6598.013
 278  6454.836
 279  6422.2
 280  6481.025
 281  6658.387
 282  6640.721
 283  6579.534
 284  6301.3
 285  6426.566
 286  6430.817
 287  6657.532
 288  6507.482
 289  6172.805
 290  5995.065
 291  5911.653
 292  6646.217
 293  6739.536
 294  6607.116
 295  6819.459
 296  6718.725
 297  6659.75
 298  6331.164
 299  6383.621
 300  6512.92
 301  6288.888
 302  6225.048
 303  6126.719
 304  6096.959
 305  5873.973
 306  6060.078
 307  6290.152
 308  6614.365
 309  6516.609
 310  6543.098
 311  6371.66
 312  6566.949
 313  6801.096
 314  6751.353
 315  6718.554
 316  6557.221
 317  6353.769
 318  6318.108
 319  6116.605
 320  5969.845
 321  6048.893
 322  5431.359
 323  5457.892
 324  5926.904
 325  6115.334
 326  5874.549
 327  6098.923
 328  6141.537
 329  6222.694
 330  5733.109
 331  5897.515
 332  5907.995
 333  5686.738
 334  5822.294
 335  6141.777
 336  6215.205
 337  5881.495
 338  5491.4
 339  5891.116
 340  5917.008
 341  6064.68
 342  6119.891
 343  5851.064
 344  6038.662
 345  6281.403
 346  6222.597
 347  6197.075
 348  6270.845
 349  6164.876
 350  6019.922
 351  6286.401
 352  6205.249
 353  6069.355
 354  5983.055
 355  6202.87
 356  6215.049
 357  6402.551
 358  6258.583
 359  6026.515
 360  5803.691
 361  6233.258
 362  6113.06
 363  6409.16
 364  6054.34
 365  6423.813
 366  6423.256
 367  6274.948
 368  6350.884
 369  6547.829
 370  6732.936
 371  6424.776
 372  6842.028
 373  6784.041
 374  6806.516
 375  6674.498
 376  6625.481
 377  6318.659
 378  6290.688
 379  6523.883
 380  6345.179
 381  6525.494
 382  6697.908
 383  6563.026
 384  6379.883
 385  6162.345
 386  6382.495
 387  6677.833
 388  6620.088
 389  6452.162
 390  6720.596
 391  6685.246
 392  6389.291
 393  6455.344
 394  6307.053
 395  6493.865
 396  6626.799
 397  6824.351
 398  6602.968
 399  6417.314
 400  6559.167
 401  6840.33
 402  6717.053
 403  6472.555
 404  6448.579
 405  6401.633
 406  6140.366
 407  6412.944
 408  6790.409
 409  6724.068
 410  7106.445
 411  7333.989
 412  7403.127
 413  7226.365
 414  7090.266
 415  6822.32
 416  6923.478
 417  7281.68
 418  7536.265
 419  7333.115
 420  7239.502
 421  6966.782
 422  7093.167
 423  7208.107
 424  6969.226
 425  6882.986
 426  6728.693
 427  6760.227
 428  6921.634
 429  7136.674
 430  6857.225
 431  6903.035
 432  6725.734
 433  6537.799
 434  6814.391
 435  6600.864
 436  6419.739
 437  6340.371
 438  6524.408
 439  6372.523
 440  6242.817
 441  6140.696
 442  5902.112
 443  5840.276
 444  5999.868
 445  6517.947
 446  6403.569
 447  6300.081
 448  6278.688
 449  6188.028
 450  6030.811
 451  6309.295
 452  6401.241
 453  6474.99
 454  6759.133
 455  6661.7
 456  6559.277
 457  6016.2
 458  6312.027
 459  6767.068
 460  6493.084
 461  6331.576
 462  6678.359
 463  6522.081
 464  6568.346
 465  6342.887
 466  6347.934
 467  6386.437
 468  6784.214
 469  6814.061
 470  6975.833
 471  6818.758
 472  6578.233
 473  6940.683
 474  6976.112
 475  6959.603
 476  6504.239
 477  6779.363
 478  7293.517
 479  7039.097
 480  6957.868
 481  7181.795
 482  7210.986
 483  6997.659
 484  6941.107
 485  6804.837
 486  7116.927
 487  7074.632
 488  7185.138
 489  7185.826
 490  7231.675
 491  7139.479
 492  6923.421
 493  7003.384
 494  6864.959
 495  6649.691
 496  6902.474
 497  7374.182
 498  7482.462
 499  7491.227
 500  7464.559
 501  7166.693
 502  7188.143
 503  7535.818
 504  7628.052
 505  7244.675
 506  7322.962
 507  7683.858
 508  7557.742
 509  6983.688
 510  7130.639
 511  7216.25
