# Input file       =  1203500530.107594_cleaned.dat
# Candidate        =  PSR_0332+5434
# Telescope        =  AR
# Epoch_topo       =  58173.404503560116
# Epoch_bary       =  N/A
# T_sample         =  0.002
# Data Folded      =  7340032
# Data Avg         =  0.0780982161468481
# Data StdDev      =  1.000212937144   
# Profile Bins     =  512
# Profile Avg      =  1119.70623753351 
# Profile StdDev   =  119.758531987575 
# Reduced chi-sqr  =  1.002
# Prob(Noise)      <  0.482   (~0.0 sigma)
# P_topo (ms)      =  714.58072137236   +/- 0.000205
# P'_topo (s/s)    =  -0                +/- 1.08e-10
# P''_topo (s/s^2) =  0                 +/- 4.77e-14
# P_bary (ms)      =  N/A
# P'_bary (s/s)    =  N/A
# P''_bary (s/s^2) =  N/A
# P_orb (s)        =  N/A
# asin(i)/c (s)    =  N/A
# eccentricity     =  N/A
# w (rad)          =  N/A
# T_peri           =  N/A
######################################################
   0  1157.642
   1  1099.862
   2  1072.113
   3  1175.11
   4  1231.791
   5  1163.714
   6  1189.889
   7  1243.147
   8  1132.008
   9  1189.075
  10  1197.991
  11  1208.876
  12  1162.77
  13  1245.08
  14  1137.535
  15  1104.771
  16  1216.39
  17  1250.04
  18  1248.574
  19  1240.538
  20  1184.881
  21  1184.394
  22  1181.643
  23  1213.442
  24  1223.396
  25  1225.746
  26  1140.751
  27  1152.376
  28  1075.344
  29  1081.566
  30  1155.835
  31  1084.606
  32  1085.492
  33  1197.806
  34  1121.55
  35  1049.078
  36  1093.661
  37  1089.931
  38  1157.232
  39  1230.236
  40  1246.348
  41  1164.714
  42  1182.407
  43  1153.892
  44  1211.452
  45  1193.452
  46  1128.359
  47  1015.888
  48  1170.136
  49  1214.701
  50  1091.723
  51  1097.967
  52  1076.339
  53  1067.957
  54  1091.546
  55  1057.356
  56  977.5942
  57  1075.036
  58  1230.004
  59  1136.42
  60  1072.967
  61  1148.906
  62  1149.07
  63  1120.741
  64  1131.043
  65  1192.814
  66  1077.934
  67  1049.867
  68  1110.01
  69  1142.473
  70  1180.316
  71  1151.048
  72  1105.999
  73  1107.138
  74  1093.272
  75  1153.464
  76  1250.027
  77  1176.939
  78  1111.176
  79  1149.114
  80  1126.143
  81  1207.168
  82  1209.703
  83  1146.881
  84  1172.006
  85  1217.459
  86  1105.466
  87  1129.14
  88  1065.389
  89  1202.379
  90  1205.109
  91  1057.362
  92  1047.984
  93  1182.377
  94  1220.283
  95  1159.858
  96  1137.811
  97  1146.22
  98  1140.986
  99  1096.838
 100  1129.179
 101  1087.284
 102  1082.954
 103  1152.106
 104  1078.902
 105  1036.798
 106  1063.305
 107  1032.119
 108  1073.761
 109  981.0163
 110  961.8427
 111  1033.494
 112  1026.215
 113  1008.599
 114  1046.338
 115  1024.404
 116  1086.238
 117  1093.401
 118  1095.044
 119  1114.047
 120  982.0738
 121  1069.305
 122  1057.89
 123  1095.718
 124  1035.248
 125  963.6469
 126  908.226
 127  864.2795
 128  950.8098
 129  1078.165
 130  1022.283
 131  1019.816
 132  1094.775
 133  1057.969
 134  1053.215
 135  1147.65
 136  1302.666
 137  1444.917
 138  1440.462
 139  1420.269
 140  1376.373
 141  1306.883
 142  1145.734
 143  1082.789
 144  1053.312
 145  965.1799
 146  984.4109
 147  995.4759
 148  1042.726
 149  1098.228
 150  1032.615
 151  1030.925
 152  1086.321
 153  1200.925
 154  1274.406
 155  1203.258
 156  1174.674
 157  1135.393
 158  1086.725
 159  1111.105
 160  1221.353
 161  1206.924
 162  1151.585
 163  1154.822
 164  1115.988
 165  1086.277
 166  1106.448
 167  1160.502
 168  1104.641
 169  1029.885
 170  1137.98
 171  1175.668
 172  1153.186
 173  1081.229
 174  1002.929
 175  1026.339
 176  1078.45
 177  1106.926
 178  1073.163
 179  1069.474
 180  1051.525
 181  1119.806
 182  1063.362
 183  918.3199
 184  1015.846
 185  1031.876
 186  1046.588
 187  1071.366
 188  1076.266
 189  1118.475
 190  936.5407
 191  919.2625
 192  1014.036
 193  1031.902
 194  1024.862
 195  947.8318
 196  1157.771
 197  1134
 198  974.4517
 199  985.2584
 200  908.4821
 201  952.5794
 202  986.067
 203  1126.099
 204  1113.132
 205  994.2548
 206  916.6412
 207  961.1087
 208  1014.775
 209  1073.168
 210  949.9647
 211  948.2645
 212  952.97
 213  1099.716
 214  1185.772
 215  1125.976
 216  1082.564
 217  982.6968
 218  1021.306
 219  1004.072
 220  1055.002
 221  978.062
 222  1068.181
 223  1100.841
 224  1134.362
 225  1060.643
 226  1089.618
 227  969.5728
 228  915.5051
 229  1128.274
 230  1193.246
 231  1226.953
 232  1136.386
 233  1191.583
 234  1270.602
 235  1078.001
 236  1052.952
 237  1201.11
 238  1227.409
 239  1187.801
 240  1220.886
 241  1196.844
 242  1070.461
 243  1139.348
 244  1239.768
 245  1133.57
 246  1205.33
 247  1160.835
 248  1116.452
 249  1074.825
 250  1119.639
 251  1126.096
 252  1164.683
 253  1177.664
 254  1210.843
 255  1180.492
 256  1129.205
 257  1055.497
 258  1013.008
 259  1114.099
 260  1043.258
 261  1050.119
 262  1113.479
 263  1160.89
 264  1117.328
 265  1096.761
 266  1109.844
 267  1054.611
 268  1154.245
 269  1242.161
 270  1094.02
 271  1082.779
 272  1190.75
 273  1139.873
 274  1147.237
 275  1102.762
 276  1136.953
 277  1037.51
 278  1034.209
 279  1212.234
 280  1127.56
 281  1098.923
 282  1127.909
 283  1116.248
 284  1056.244
 285  1018.232
 286  1078.529
 287  1109.957
 288  1081.11
 289  1197.718
 290  1090.882
 291  1008.78
 292  983.1135
 293  993.261
 294  1052.889
 295  1114.468
 296  1061.839
 297  1160.953
 298  1127.478
 299  1125.614
 300  1190.57
 301  1090.202
 302  1031.775
 303  1045.539
 304  1050
 305  1106.851
 306  1080.1
 307  1035.838
 308  1017.921
 309  1000.163
 310  1037.546
 311  989.3602
 312  977.7715
 313  1092.032
 314  1143.818
 315  1140.15
 316  1180.357
 317  1082.578
 318  968.5185
 319  1014.635
 320  1053.113
 321  1134.648
 322  1102.84
 323  999.5112
 324  1048.735
 325  1055.134
 326  1049.831
 327  979.348
 328  1141.364
 329  1164.167
 330  1119.889
 331  1037.463
 332  993.1018
 333  1004.747
 334  1147.617
 335  1105.37
 336  1048.729
 337  1063.472
 338  1097.562
 339  1115.518
 340  1029
 341  978.5218
 342  1118.758
 343  1125.114
 344  1068.093
 345  1124.027
 346  1150.622
 347  1152.923
 348  1156.459
 349  1168.005
 350  1111.696
 351  1164.243
 352  1186.11
 353  1144.632
 354  1157.952
 355  1148.81
 356  1270.423
 357  1326.353
 358  1215.948
 359  1164.752
 360  1067.749
 361  1119.502
 362  1151.688
 363  1115.065
 364  1196.806
 365  1175.224
 366  1167.216
 367  1151.151
 368  1153.276
 369  1195.449
 370  1316.04
 371  1257.379
 372  1243.628
 373  1210.3
 374  1201.659
 375  1245.601
 376  1216.695
 377  1234.833
 378  1290.91
 379  1297.509
 380  1274.226
 381  1273.422
 382  1261.014
 383  1224.2
 384  1300.403
 385  1269.707
 386  1232.502
 387  1253.166
 388  1242.062
 389  1106.557
 390  1179.25
 391  1176.691
 392  1167.721
 393  1254.717
 394  1278.967
 395  1297.475
 396  1282.441
 397  1226.968
 398  1168.575
 399  1216.513
 400  1194.668
 401  1181.368
 402  1314.683
 403  1313.398
 404  1244.285
 405  1296.641
 406  1288.214
 407  1224.549
 408  1123.633
 409  1051.242
 410  1085.051
 411  1120.648
 412  1155.305
 413  1162.651
 414  1193.317
 415  1159.079
 416  1136.19
 417  1137.959
 418  1043.123
 419  1071.851
 420  1083.929
 421  988.8828
 422  1048.089
 423  1035.39
 424  973.496
 425  1064.468
 426  1070.994
 427  1064.235
 428  1128.097
 429  1144.454
 430  1038.503
 431  1057.014
 432  1048.918
 433  1086.796
 434  1107.038
 435  1182.899
 436  1217.059
 437  1065.037
 438  1161.963
 439  1100.131
 440  1051.109
 441  1125.212
 442  1149.157
 443  1134.848
 444  1204.053
 445  1164.695
 446  1095.165
 447  1121.929
 448  1122.345
 449  1102.322
 450  1062.708
 451  1138.107
 452  1181.173
 453  1300.563
 454  1310.67
 455  1216.112
 456  1089.044
 457  1211.252
 458  1140.72
 459  1094.51
 460  1169.2
 461  1138.143
 462  1155.873
 463  1037.336
 464  1170.416
 465  1193.899
 466  1181.61
 467  1064.48
 468  1085.617
 469  1180.827
 470  1172.607
 471  1217.191
 472  1098.01
 473  1039.022
 474  1012.557
 475  1044.897
 476  1010.902
 477  1104.021
 478  1007.543
 479  1072.971
 480  1036.521
 481  1009.845
 482  1019.735
 483  949.8961
 484  1100.721
 485  1141.704
 486  1169.553
 487  1154.976
 488  1057.149
 489  1085.31
 490  1054.085
 491  1094.061
 492  1141.121
 493  1140.066
 494  1115.597
 495  1130.804
 496  1147.483
 497  1175.169
 498  1194.019
 499  1114.921
 500  1088.199
 501  1172.658
 502  1207.279
 503  1277.241
 504  1157.703
 505  1208.257
 506  1125.24
 507  1096.951
 508  1092.641
 509  1092.05
 510  1088.242
 511  1032.696
