# Input file       =  1203611338.104799_cleaned.dat
# Candidate        =  PSR_0332+5434
# Telescope        =  AR
# Epoch_topo       =  58174.687003527768
# Epoch_bary       =  N/A
# T_sample         =  0.002
# Data Folded      =  7340032
# Data Avg         =  0.0553476280502484
# Data StdDev      =  1.00012906774835 
# Profile Bins     =  512
# Profile Avg      =  793.458694438175 
# Profile StdDev   =  119.748490050175 
# Reduced chi-sqr  =  0.776
# Prob(Noise)      <  1   (~0.0 sigma)
# P_topo (ms)      =  714.580916283714  +/- 0.000904
# P'_topo (s/s)    =  -0                +/- 4.77e-10
# P''_topo (s/s^2) =  0                 +/- 2.11e-13
# P_bary (ms)      =  N/A
# P'_bary (s/s)    =  N/A
# P''_bary (s/s^2) =  N/A
# P_orb (s)        =  N/A
# asin(i)/c (s)    =  N/A
# eccentricity     =  N/A
# w (rad)          =  N/A
# T_peri           =  N/A
######################################################
   0  1046.158
   1  1035.484
   2  955.6632
   3  942.7297
   4  845.123
   5  766.6144
   6  804.9644
   7  818.0751
   8  826.8786
   9  836.6365
  10  767.6793
  11  782.1827
  12  786.84
  13  779.3961
  14  798.6863
  15  796.8665
  16  781.4163
  17  790.7237
  18  815.4879
  19  824.9446
  20  816.0961
  21  752.1079
  22  724.0279
  23  646.1644
  24  736.6509
  25  769.0545
  26  736.3751
  27  773.4579
  28  743.9611
  29  724.6492
  30  764.4066
  31  761.3701
  32  686.4174
  33  703.8995
  34  736.3051
  35  784.5669
  36  842.6466
  37  877.1696
  38  814.3123
  39  845.2748
  40  950.3416
  41  889.2964
  42  810.7969
  43  825.8146
  44  804.5144
  45  790.2918
  46  753.7281
  47  890.2619
  48  842.581
  49  902.0803
  50  917.1566
  51  782.1732
  52  729.4295
  53  742.9643
  54  712.7901
  55  735.6343
  56  736.6491
  57  771.7236
  58  759.6521
  59  687.3439
  60  686.1042
  61  772.0316
  62  859.9901
  63  856.5757
  64  798.1159
  65  735.908
  66  733.5427
  67  730.6575
  68  762.1224
  69  798.7429
  70  766.6196
  71  814.4146
  72  791.7574
  73  791.0253
  74  743.1837
  75  707.6406
  76  701.7229
  77  724.1957
  78  666.4501
  79  670.7661
  80  740.7823
  81  707.1794
  82  824.0907
  83  839.8165
  84  769.5811
  85  676.6068
  86  699.9863
  87  631.5456
  88  661.7332
  89  702.6957
  90  705.7011
  91  759.9471
  92  694.9415
  93  725.7985
  94  751.5881
  95  644.9489
  96  557.0186
  97  594.3499
  98  633.6766
  99  757.0884
 100  759.9124
 101  811.5457
 102  778.0009
 103  684.4922
 104  754.0012
 105  761.7109
 106  729.2703
 107  746.349
 108  838.5123
 109  713.8788
 110  646.6589
 111  664.3185
 112  750.6317
 113  731.658
 114  711.9074
 115  765.5532
 116  721.7052
 117  698.2192
 118  748.7783
 119  763.3758
 120  856.5583
 121  903.061
 122  821.6183
 123  835.3811
 124  873.4754
 125  821.02
 126  843.0203
 127  774.7197
 128  819.1394
 129  721.1591
 130  706.8844
 131  832.9036
 132  822.6971
 133  791.0847
 134  708.6345
 135  759.3797
 136  742.4954
 137  748.404
 138  762.4016
 139  742.274
 140  726.0168
 141  698.1165
 142  685.2648
 143  695.665
 144  724.0342
 145  816.3078
 146  795.8435
 147  738.7636
 148  729.4661
 149  770.6809
 150  828.298
 151  748.9789
 152  711.5449
 153  789.756
 154  812.9925
 155  847.4294
 156  793.3952
 157  747.6884
 158  799.3107
 159  810.322
 160  792.1293
 161  792.2053
 162  787.4156
 163  736.1941
 164  800.5109
 165  816.5951
 166  788.8346
 167  708.4119
 168  739.2941
 169  780.2368
 170  805.2466
 171  809.9492
 172  775.1006
 173  662.1848
 174  748.7518
 175  767.75
 176  761.1503
 177  746.5244
 178  726.0787
 179  808.5111
 180  734.1312
 181  715.6987
 182  768.4521
 183  751.3987
 184  864.758
 185  882.4749
 186  748.7158
 187  809.5033
 188  819.1802
 189  695.4387
 190  695.9678
 191  655.6998
 192  712.5702
 193  758.5889
 194  758.6287
 195  750.1647
 196  782.8365
 197  703.4789
 198  772.4568
 199  728.7918
 200  764.7076
 201  772.2355
 202  721.8575
 203  749.7985
 204  807.6327
 205  729.3412
 206  764.5594
 207  727.9234
 208  757.7928
 209  820.1154
 210  762.2408
 211  742.7198
 212  690.7866
 213  775.1906
 214  813.2521
 215  784.584
 216  820.6542
 217  762.4825
 218  745.9866
 219  757.8318
 220  774.7299
 221  838.1574
 222  886.9865
 223  832.6213
 224  904.9457
 225  917.061
 226  818.426
 227  736.2336
 228  752.0963
 229  800.6752
 230  741.7891
 231  691.8473
 232  733.3827
 233  723.3306
 234  669.6249
 235  820.0161
 236  741.6161
 237  751.9971
 238  731.8541
 239  706.409
 240  746.6118
 241  742.3689
 242  811.3524
 243  711.5394
 244  727.8909
 245  753.5634
 246  721.9943
 247  670.7413
 248  673.7662
 249  673.1091
 250  629.7775
 251  605.7831
 252  608.2318
 253  636.9191
 254  661.6265
 255  613.4937
 256  608.3571
 257  676.3087
 258  728.9631
 259  767.2095
 260  783.1146
 261  884.2838
 262  845.2892
 263  752.3564
 264  731.6964
 265  735.6196
 266  834.2878
 267  808.6258
 268  788.3735
 269  749.1808
 270  759.8544
 271  813.8096
 272  772.5739
 273  784.8151
 274  796.2132
 275  783.4225
 276  703.788
 277  740.6082
 278  814.3126
 279  782.2427
 280  760.9848
 281  790.8033
 282  786.7787
 283  732.6227
 284  734.8571
 285  785.8329
 286  812.3243
 287  826.3221
 288  782.4924
 289  856.9869
 290  826.2927
 291  743.5018
 292  715.6998
 293  791.9636
 294  810.4538
 295  799.8628
 296  789.4305
 297  706.0855
 298  759.529
 299  720.419
 300  790.2028
 301  831.0439
 302  745.4231
 303  643.0168
 304  764.2004
 305  804.921
 306  815.662
 307  820.2249
 308  815.6188
 309  704.1404
 310  778.8889
 311  804.6769
 312  788.2593
 313  815.4833
 314  899.5982
 315  963.4863
 316  905.0579
 317  803.8922
 318  807.0806
 319  764.3103
 320  823.4274
 321  790.4044
 322  857.2672
 323  846.4177
 324  758.4631
 325  735.4849
 326  730.576
 327  822.6372
 328  833.0419
 329  821.5245
 330  868.5844
 331  752.9572
 332  798.4663
 333  757.6158
 334  758.2502
 335  786.2717
 336  897.7063
 337  916.886
 338  827.9943
 339  807.1517
 340  852.4635
 341  864.9047
 342  858.5638
 343  840.8493
 344  835.6149
 345  847.8444
 346  877.3459
 347  856.3796
 348  839.8654
 349  877.977
 350  856.8354
 351  835.2224
 352  902.2745
 353  856.8831
 354  859.8748
 355  802.1406
 356  805.6562
 357  835.937
 358  850.9739
 359  905.2694
 360  857.8892
 361  868.0431
 362  873.3396
 363  769.4965
 364  789.5054
 365  838.2634
 366  863.4337
 367  866.5893
 368  814.5196
 369  823.5992
 370  827.4137
 371  836.481
 372  789.9242
 373  779.1761
 374  820.6553
 375  781.9266
 376  779.8586
 377  798.1563
 378  780.3348
 379  688.9023
 380  760.4426
 381  878.4228
 382  853.6757
 383  851.5029
 384  935.684
 385  962.0397
 386  929.4955
 387  886.6542
 388  891.3457
 389  918.1655
 390  970.2687
 391  876.6491
 392  841.1575
 393  846.3374
 394  886.1908
 395  1029.526
 396  1012.573
 397  1011.076
 398  972.702
 399  940.7693
 400  903.9207
 401  910.5767
 402  1026.458
 403  998.3107
 404  895.0128
 405  900.2777
 406  896.8784
 407  862.8134
 408  826.4692
 409  895.9222
 410  918.7668
 411  968.2437
 412  958.9374
 413  905.2056
 414  829.0558
 415  791.2482
 416  849.4235
 417  923.4691
 418  874.7682
 419  845.6494
 420  899.6293
 421  860.5908
 422  877.9222
 423  893.5521
 424  872.2895
 425  941.7809
 426  878.0108
 427  885.0356
 428  807.3506
 429  763.3198
 430  806.3655
 431  875.1229
 432  822.2376
 433  827.0212
 434  869.3154
 435  927.204
 436  854.8335
 437  788.6431
 438  827.6084
 439  873.6415
 440  801.0436
 441  887.776
 442  878.0944
 443  809.173
 444  810.8751
 445  807.884
 446  825.8166
 447  927.7598
 448  814.681
 449  847.9153
 450  813.3174
 451  743.0748
 452  763.762
 453  800.2558
 454  866.4997
 455  765.6942
 456  774.3505
 457  730.0287
 458  708.6671
 459  711.9497
 460  738.8016
 461  828.2518
 462  803.9943
 463  858.6181
 464  792.5816
 465  763.9013
 466  811.8527
 467  754.2852
 468  741.2595
 469  835.8337
 470  758.9901
 471  782.674
 472  749.5515
 473  695.098
 474  727.3411
 475  776.5583
 476  805.2792
 477  783.1489
 478  828.7245
 479  892.8264
 480  888.0102
 481  846.4896
 482  704.9445
 483  713.2673
 484  786.9117
 485  728.7667
 486  698.2963
 487  751.0563
 488  795.4217
 489  808.373
 490  856.6721
 491  844.2573
 492  787.6862
 493  787.4538
 494  791.6408
 495  825.2973
 496  890.117
 497  944.1126
 498  840.4193
 499  759.2195
 500  720.8347
 501  683.9415
 502  716.6277
 503  726.0999
 504  766.3375
 505  773.9211
 506  829.4349
 507  832.3817
 508  870.4221
 509  947.7763
 510  1048.485
 511  1034.904
