# Input file       =  1203525206.118787_cleaned.dat
# Candidate        =  PSR_0332+5434
# Telescope        =  AR
# Epoch_topo       =  58173.690105541515
# Epoch_bary       =  N/A
# T_sample         =  0.002
# Data Folded      =  7340032
# Data Avg         =  0.520909686641451
# Data StdDev      =  8.88271756368994 
# Profile Bins     =  512
# Profile Avg      =  7467.71339410548 
# Profile StdDev   =  1063.55474517783 
# Reduced chi-sqr  =  0.560
# Prob(Noise)      <  1   (~0.0 sigma)
# P_topo (ms)      =  714.580942634589  +/- 0.000498
# P'_topo (s/s)    =  -0                +/- 2.63e-10
# P''_topo (s/s^2) =  0                 +/- 1.16e-13
# P_bary (ms)      =  N/A
# P'_bary (s/s)    =  N/A
# P''_bary (s/s^2) =  N/A
# P_orb (s)        =  N/A
# asin(i)/c (s)    =  N/A
# eccentricity     =  N/A
# w (rad)          =  N/A
# T_peri           =  N/A
######################################################
   0  6553.732
   1  6480.79
   2  6824.158
   3  6708.174
   4  6750.729
   5  6804.771
   6  6718.901
   7  6740.303
   8  6797.858
   9  6745.535
  10  6884.07
  11  6727.136
  12  6678.265
  13  6735.026
  14  6825.692
  15  6325.077
  16  6363.157
  17  6409.138
  18  6526.312
  19  6494.264
  20  6985.451
  21  7123.494
  22  7213.611
  23  6900.565
  24  6725.054
  25  6854.825
  26  6780.469
  27  6460.361
  28  6758.068
  29  7017.437
  30  7093.911
  31  7217.578
  32  7076.974
  33  7393.72
  34  7376.314
  35  7330.611
  36  7373.814
  37  7687.086
  38  7843.186
  39  7740.847
  40  7659.743
  41  7872.838
  42  7956.059
  43  8032.494
  44  7822.519
  45  8049.48
  46  8086.62
  47  7538.954
  48  7402.733
  49  7131.237
  50  7557.005
  51  7240.63
  52  7305.641
  53  7168.607
  54  7273.728
  55  7354.506
  56  8025.838
  57  7878.832
  58  8102.26
  59  7530.638
  60  7110.955
  61  6691.53
  62  6769.884
  63  6855.59
  64  6837.135
  65  6951.961
  66  6674.537
  67  6652.674
  68  6337.229
  69  6484.984
  70  6591.798
  71  6794.736
  72  6904.124
  73  6863.752
  74  6970.466
  75  7158.887
  76  7287.395
  77  6709.267
  78  6753.326
  79  6991.606
  80  7158.839
  81  7002.458
  82  7111.667
  83  6827.827
  84  6489.57
  85  6626.544
  86  6570.106
  87  6922.977
  88  6920.35
  89  7327.712
  90  7181.679
  91  7061.444
  92  7370.137
  93  7355.956
  94  7109.198
  95  7325.866
  96  7661.5
  97  7496.44
  98  7717.637
  99  7885.939
 100  7995.623
 101  7594.977
 102  7704.096
 103  7710.632
 104  7783.131
 105  8178.843
 106  7957.545
 107  7908.278
 108  8247.37
 109  8492.764
 110  8648.938
 111  8510.386
 112  7947.269
 113  7509.924
 114  7997.859
 115  8336.861
 116  8292.64
 117  7935.942
 118  7873.638
 119  7819.983
 120  7609.965
 121  7612.25
 122  7833.93
 123  7789.168
 124  7866.275
 125  8303.215
 126  8387.174
 127  8128.79
 128  8084.33
 129  7828.08
 130  7624.133
 131  7528.611
 132  8183.855
 133  8190.075
 134  8124.439
 135  8067.14
 136  8101.329
 137  7754.51
 138  7930.279
 139  8165.121
 140  8111.342
 141  8170.46
 142  7665.035
 143  7397.394
 144  7654.435
 145  8158.862
 146  8099.21
 147  8424.197
 148  8179.467
 149  8228.039
 150  7850.552
 151  7672.308
 152  7899.398
 153  7593.973
 154  7751.19
 155  7628.054
 156  7576.038
 157  7696.517
 158  7449.641
 159  7305.119
 160  7050.259
 161  6826.754
 162  7118.189
 163  7151.392
 164  7053.225
 165  7020.727
 166  7275.658
 167  7105.933
 168  7319.279
 169  7489.641
 170  7575.332
 171  7234.753
 172  6889.041
 173  6959.263
 174  7118.602
 175  7251.814
 176  6814.274
 177  6881.382
 178  6589.278
 179  6992.525
 180  6947.806
 181  7039.391
 182  7079.113
 183  7226.614
 184  7266.489
 185  7263.854
 186  7190.757
 187  7482.622
 188  7788.788
 189  7850.003
 190  7588.06
 191  7687.922
 192  7392.881
 193  7401.666
 194  7288.777
 195  7029.044
 196  7375.721
 197  7426.586
 198  7350.568
 199  7266.396
 200  7410.033
 201  7029.082
 202  7313.162
 203  7404.432
 204  6877.266
 205  7051.032
 206  7330.372
 207  7462.74
 208  7354.433
 209  7382.494
 210  7436.445
 211  7231.367
 212  6851.767
 213  6687.358
 214  6899.278
 215  7490.976
 216  7371.769
 217  7582.513
 218  7619.688
 219  8191.014
 220  8109.674
 221  8373.629
 222  8801.453
 223  8652.306
 224  8861.389
 225  9269.241
 226  8685.34
 227  7980.935
 228  8242.658
 229  8643.717
 230  8392.439
 231  8310.592
 232  8074.109
 233  8344.195
 234  8218.848
 235  8078.161
 236  7819.535
 237  7833.265
 238  7749.03
 239  8178.175
 240  8269.994
 241  8090.754
 242  7769.424
 243  7608.534
 244  8131.202
 245  8347.475
 246  7906.258
 247  7898.833
 248  7756.388
 249  7739.315
 250  8062.798
 251  8188.199
 252  8472.437
 253  7937.033
 254  8157.138
 255  8417.809
 256  8690.564
 257  8599.44
 258  8508.082
 259  8340.798
 260  8472.464
 261  8580.377
 262  8319.098
 263  8279.571
 264  8646.314
 265  8421.875
 266  8216.924
 267  7943.07
 268  8341.247
 269  8653.865
 270  8450.649
 271  8313.216
 272  7664.394
 273  7436.047
 274  7929.198
 275  7759.355
 276  7575.65
 277  7663.529
 278  7529.263
 279  7688.061
 280  7731.322
 281  7407.676
 282  7268.844
 283  7455.258
 284  7502.515
 285  7334.695
 286  7541.432
 287  7565.851
 288  7842.372
 289  7912.259
 290  8215.299
 291  8602.939
 292  8282.085
 293  8212.312
 294  8277.501
 295  8347.781
 296  8323.355
 297  8284.305
 298  8348.944
 299  8674.035
 300  8690.956
 301  8501.574
 302  8158.695
 303  8404.258
 304  9104.769
 305  9105.128
 306  9694.681
 307  9127.217
 308  8116.936
 309  7608.635
 310  7419.968
 311  7499.928
 312  7821.2
 313  7557.559
 314  7501.98
 315  7057.483
 316  6810.766
 317  6823.495
 318  7465.747
 319  7387.542
 320  6851.32
 321  6942.846
 322  6825.137
 323  6533.549
 324  6720.19
 325  6799.662
 326  6894.575
 327  7056.004
 328  7522.542
 329  7750.617
 330  7233.42
 331  7608.779
 332  7759.438
 333  7359.756
 334  7457.293
 335  7850.331
 336  7878.13
 337  7793.554
 338  7577.729
 339  7546.276
 340  7735.316
 341  7491.432
 342  7230.312
 343  7097.6
 344  6918.875
 345  6643.49
 346  6489.431
 347  6658.06
 348  6490.337
 349  6317.608
 350  6202.208
 351  6478.405
 352  6211.75
 353  6151.442
 354  6672.644
 355  7186.583
 356  7185.622
 357  6422.206
 358  6747.529
 359  7295.676
 360  7075.204
 361  7096.17
 362  7667.35
 363  7618.017
 364  7143.07
 365  6883.009
 366  6918.837
 367  7220.654
 368  7430.447
 369  7230.481
 370  7170.216
 371  6888.384
 372  7206.17
 373  7747.208
 374  7725.579
 375  7804.5
 376  7843.392
 377  7860.509
 378  7362.034
 379  7060.217
 380  7224.041
 381  7267.518
 382  7350.429
 383  6945.159
 384  6972.222
 385  7003.724
 386  6904.877
 387  7059.02
 388  7414.157
 389  7234.854
 390  6779.104
 391  6882.427
 392  7027.458
 393  7033.79
 394  6916.839
 395  7067.598
 396  7104.951
 397  7053.615
 398  7254.045
 399  7196.65
 400  7470.026
 401  7183.471
 402  7297.099
 403  7301.654
 404  7605.393
 405  7656.932
 406  7468.64
 407  7706.119
 408  7232.032
 409  7689.49
 410  7431.841
 411  7266.64
 412  7878.002
 413  7940.663
 414  8055.925
 415  7668.686
 416  7402.748
 417  7250.306
 418  7144.75
 419  7574.469
 420  7307.904
 421  7133.33
 422  7173.488
 423  6836.842
 424  6717.555
 425  7178.208
 426  6997.539
 427  6926.29
 428  7301.235
 429  7502.068
 430  7580.609
 431  7075.715
 432  7199.327
 433  7666.992
 434  7563.317
 435  7577.437
 436  7545.742
 437  7303.787
 438  7420.834
 439  7022.617
 440  6913.254
 441  6655.788
 442  6802.695
 443  7303.565
 444  7341.374
 445  7768.029
 446  7590.24
 447  7542.285
 448  7662.604
 449  7586.609
 450  7411.696
 451  7747.689
 452  7791.943
 453  7703.841
 454  7490.068
 455  7266.518
 456  7230.653
 457  7254.042
 458  7227.132
 459  7499.344
 460  7088.096
 461  7047.93
 462  7465.998
 463  6988.841
 464  6989.995
 465  6826.332
 466  6995.661
 467  7084.52
 468  7549.974
 469  7855.796
 470  7602.993
 471  7870.179
 472  7899.906
 473  7777.57
 474  7869.077
 475  8269.707
 476  8144.648
 477  8296.867
 478  8282.862
 479  8184.394
 480  7958.236
 481  7881.401
 482  7603.663
 483  7646.853
 484  7877.841
 485  7711.239
 486  7557.183
 487  7345.032
 488  7057.365
 489  6908.408
 490  7031.065
 491  7305.786
 492  7145.371
 493  7005.403
 494  7321.825
 495  6791.414
 496  6819.365
 497  7103.693
 498  6814.638
 499  6600.478
 500  6995.787
 501  6921.24
 502  6874.289
 503  7184.784
 504  7053.375
 505  6429.626
 506  6454.027
 507  6700.623
 508  6918.404
 509  7202.763
 510  7283.53
 511  6951.181
