# Input file       =  1203525206.118787_cleaned.dat
# Candidate        =  PSR_0332+5434
# Telescope        =  AR
# Epoch_topo       =  58173.690105541515
# Epoch_bary       =  N/A
# T_sample         =  0.002
# Data Folded      =  7340032
# Data Avg         =  0.0541244572162027
# Data StdDev      =  1.0001370105885  
# Profile Bins     =  512
# Profile Avg      =  775.911491814153 
# Profile StdDev   =  119.749441070543 
# Reduced chi-sqr  =  0.749
# Prob(Noise)      <  1   (~0.0 sigma)
# P_topo (ms)      =  714.5809415847    +/- 0.00062
# P'_topo (s/s)    =  -0                +/- 3.27e-10
# P''_topo (s/s^2) =  0                 +/- 1.45e-13
# P_bary (ms)      =  N/A
# P'_bary (s/s)    =  N/A
# P''_bary (s/s^2) =  N/A
# P_orb (s)        =  N/A
# asin(i)/c (s)    =  N/A
# eccentricity     =  N/A
# w (rad)          =  N/A
# T_peri           =  N/A
######################################################
   0  1182.718
   1  1151.824
   2  982.5803
   3  853.5869
   4  733.95
   5  770.2285
   6  800.2922
   7  734.5172
   8  751.4402
   9  748.8589
  10  652.4355
  11  685.1166
  12  796.4785
  13  874.1142
  14  770.1834
  15  695.7992
  16  715.7738
  17  667.0621
  18  633.3766
  19  652.4596
  20  734.7305
  21  782.6378
  22  817.3893
  23  850.9219
  24  760.7294
  25  706.9176
  26  788.9171
  27  732.5278
  28  729.538
  29  832.6269
  30  860.8651
  31  899.4712
  32  786.21
  33  720.6962
  34  847.7208
  35  837.109
  36  803.7741
  37  782.2258
  38  766.8923
  39  683.32
  40  599.085
  41  650.6981
  42  670.634
  43  655.0451
  44  647.6324
  45  684.9714
  46  610.9052
  47  549.8232
  48  652.7007
  49  786.8879
  50  807.1226
  51  691.6325
  52  665.275
  53  759.2284
  54  782.9305
  55  656.0937
  56  782.3921
  57  867.9868
  58  729.0631
  59  681.5119
  60  657.5099
  61  707.1162
  62  712.5538
  63  647.1526
  64  695.444
  65  705.8734
  66  662.4299
  67  752.2307
  68  723.7626
  69  738.1384
  70  750.4809
  71  796.2232
  72  750.5388
  73  731.4155
  74  756.9397
  75  723.6943
  76  770.3572
  77  737.1804
  78  728.7108
  79  745.4109
  80  742.748
  81  758.0822
  82  855.6205
  83  877.7899
  84  754.5093
  85  718.9546
  86  849.6303
  87  762.1753
  88  699.9314
  89  728.3537
  90  781.9484
  91  737.4841
  92  822.4283
  93  786.8801
  94  767.4772
  95  761.0422
  96  775.4585
  97  751.0424
  98  772.0843
  99  826.2621
 100  733.8589
 101  776.3632
 102  739.8865
 103  830.6075
 104  816.9923
 105  793.7487
 106  820.67
 107  894.151
 108  912.6657
 109  853.4749
 110  741.4629
 111  744.2407
 112  795.7543
 113  876.6387
 114  835.4936
 115  793.2636
 116  791.8185
 117  740.3192
 118  661.4089
 119  675.7478
 120  699.7012
 121  661.2218
 122  787.2726
 123  790.0634
 124  835.3265
 125  756.5609
 126  748.9079
 127  840.5804
 128  785.3874
 129  765.061
 130  767.0074
 131  759.1934
 132  762.8969
 133  744.1397
 134  760.3455
 135  726.7127
 136  630.7269
 137  659.8223
 138  729.423
 139  793.3516
 140  822.6804
 141  771.2073
 142  793.8012
 143  800.1526
 144  757.2486
 145  823.5851
 146  829.768
 147  875.9432
 148  803.8916
 149  801.6102
 150  798.0567
 151  765.7113
 152  746.201
 153  803.4103
 154  820.5157
 155  801.9472
 156  837.942
 157  759.4058
 158  798.403
 159  760.4161
 160  777.0217
 161  772.5391
 162  829.8661
 163  954.3309
 164  809.7916
 165  817.7472
 166  840.5153
 167  821.7616
 168  800.7144
 169  838.3168
 170  879.0101
 171  887.5496
 172  821.8745
 173  809.6154
 174  792.5267
 175  815.0046
 176  715.9127
 177  757.6487
 178  807.8065
 179  810.2658
 180  732.5039
 181  768.1323
 182  681.1579
 183  711.0293
 184  691.3484
 185  770.7145
 186  728.7366
 187  745.2296
 188  813.7414
 189  752.174
 190  700.3393
 191  774.2243
 192  811.2408
 193  725.4774
 194  720.6289
 195  733.6096
 196  733.2084
 197  784.3355
 198  843.0042
 199  723.3477
 200  673.5205
 201  773.9672
 202  792.1883
 203  766.1517
 204  725.9446
 205  758.4049
 206  692.3177
 207  686.897
 208  773.7208
 209  731.0234
 210  709.3788
 211  730.6204
 212  688.3322
 213  717.2205
 214  733.6049
 215  693.5928
 216  694.8585
 217  696.6222
 218  671.3939
 219  626.6566
 220  763.1425
 221  690.2703
 222  699.5815
 223  672.7274
 224  701.1943
 225  672.7673
 226  781.0588
 227  835.4703
 228  811.2627
 229  751.8016
 230  715.2056
 231  745.4495
 232  735.3355
 233  672.7405
 234  709.4581
 235  772.5507
 236  774.2834
 237  838.6575
 238  780.649
 239  810.0713
 240  835.0488
 241  872.0446
 242  789.9001
 243  803.2887
 244  840.6771
 245  852.9777
 246  797.7918
 247  827.9795
 248  868.543
 249  925.3422
 250  830.9633
 251  814.2123
 252  863.1893
 253  776.048
 254  781.9428
 255  690.549
 256  779.0736
 257  749.8974
 258  731.0712
 259  757.7955
 260  765.8965
 261  773.1741
 262  839.9208
 263  865.382
 264  890.1045
 265  877.123
 266  786.2365
 267  680.0802
 268  688.9449
 269  742.9305
 270  764.3954
 271  692.798
 272  708.6268
 273  696.7888
 274  689.4019
 275  678.5469
 276  727.9644
 277  737.1673
 278  764.0161
 279  734.5889
 280  731.7347
 281  755.3925
 282  836.0422
 283  695.8821
 284  700.2722
 285  767.6804
 286  775.7448
 287  712.6477
 288  707.4814
 289  673.8638
 290  638.1814
 291  645.1521
 292  663.9972
 293  700.6783
 294  685.127
 295  734.6014
 296  706.4858
 297  676.8865
 298  726.8262
 299  760.7007
 300  744.6435
 301  794.5072
 302  795.9489
 303  716.4547
 304  740.0744
 305  770.9922
 306  821.3237
 307  808.7547
 308  775.0354
 309  771.5516
 310  809.2509
 311  854.6252
 312  808.1549
 313  739.5676
 314  761.0245
 315  781.3254
 316  822.4097
 317  877.1022
 318  849.3511
 319  795.1011
 320  787.4337
 321  873.2273
 322  903.4993
 323  810.9147
 324  836.081
 325  787.8793
 326  743.2886
 327  732.2468
 328  755.4454
 329  733.6411
 330  737.1643
 331  840.1537
 332  863.7614
 333  795.3765
 334  783.9794
 335  765.5057
 336  731.4763
 337  700.9596
 338  776.6492
 339  778.2191
 340  716.8502
 341  750.8446
 342  829.8438
 343  811.96
 344  781.0985
 345  851.7804
 346  895.5057
 347  868.2795
 348  784.1428
 349  788.3712
 350  804.2891
 351  847.7351
 352  838.2881
 353  885.7944
 354  862.394
 355  852.8751
 356  835.0204
 357  761.1877
 358  801.4373
 359  856.0306
 360  907.4421
 361  833.276
 362  747.4459
 363  802.4713
 364  771.6382
 365  793.0665
 366  761.9193
 367  715.9133
 368  708.5571
 369  676.7079
 370  713.6477
 371  723.3084
 372  788.6972
 373  730.2357
 374  738.9839
 375  732.196
 376  791.3378
 377  737.7558
 378  654.9202
 379  640.9978
 380  666.6319
 381  766.5458
 382  720.0791
 383  671.4932
 384  626.1083
 385  667.9253
 386  721.3221
 387  705.2082
 388  684.3066
 389  725.5162
 390  730.449
 391  723.6946
 392  754.7843
 393  748.4731
 394  813.9157
 395  799.4628
 396  743.6945
 397  783.1224
 398  765.7333
 399  768.2935
 400  792.9656
 401  700.716
 402  631.0305
 403  679.6171
 404  751.9561
 405  797.9319
 406  790.07
 407  760.2919
 408  697.987
 409  709.4898
 410  677.5776
 411  679.6978
 412  735.6662
 413  758.9338
 414  731.1069
 415  711.2518
 416  747.4315
 417  766.0492
 418  757.5265
 419  699.9761
 420  699.6074
 421  775.8829
 422  767.731
 423  759.976
 424  770.4276
 425  834.8467
 426  819.306
 427  837.1215
 428  891.2761
 429  912.9678
 430  858.4305
 431  1016.504
 432  876.9892
 433  748.3054
 434  782.3438
 435  892.7322
 436  936.9673
 437  930.7537
 438  850.4243
 439  851.4231
 440  879.7979
 441  866.0278
 442  871.1009
 443  851.0747
 444  855.1094
 445  907.8285
 446  898.3112
 447  891.4258
 448  821.5885
 449  805.9284
 450  834.6159
 451  934.3099
 452  869.9814
 453  822.4168
 454  819.7578
 455  797.4049
 456  802.1973
 457  867.831
 458  921.6766
 459  818.3214
 460  838.1055
 461  891.2242
 462  873.6221
 463  838.7535
 464  893.1473
 465  911.4949
 466  888.5838
 467  877.3378
 468  808.5323
 469  757.6223
 470  811.4019
 471  794.8838
 472  801.8392
 473  723.582
 474  751.713
 475  831.3744
 476  820.8352
 477  859.3367
 478  734.0601
 479  698.3496
 480  751.3599
 481  775.2114
 482  705.5002
 483  738.0385
 484  778.3862
 485  751.1052
 486  770.2745
 487  737.0158
 488  711.7247
 489  739.9722
 490  751.2136
 491  743.7742
 492  756.9333
 493  758.2483
 494  793.7964
 495  808.0049
 496  868.6589
 497  924.7964
 498  863.6184
 499  794.1411
 500  799.3676
 501  812.3743
 502  820.8519
 503  831.6978
 504  859.5317
 505  887.4417
 506  871.4636
 507  913.7354
 508  890.5388
 509  917.7733
 510  1046.198
 511  1106.264
