# Input file       =  1203090916.122294_cleaned.dat
# Candidate        =  PSR_0332+5434
# Telescope        =  AR
# Epoch_topo       =  58168.663600952474
# Epoch_bary       =  N/A
# T_sample         =  0.002
# Data Folded      =  7340032
# Data Avg         =  0.0523240827746529
# Data StdDev      =  1.00009552835795 
# Profile Bins     =  512
# Profile Avg      =  750.256206160536 
# Profile StdDev   =  119.744474277124 
# Reduced chi-sqr  =  1.148
# Prob(Noise)      <  0.0113   (~2.3 sigma)
# P_topo (ms)      =  714.580704560946  +/- 0.000556
# P'_topo (s/s)    =  -0                +/- 2.93e-10
# P''_topo (s/s^2) =  0                 +/- 1.3e-13
# P_bary (ms)      =  N/A
# P'_bary (s/s)    =  N/A
# P''_bary (s/s^2) =  N/A
# P_orb (s)        =  N/A
# asin(i)/c (s)    =  N/A
# eccentricity     =  N/A
# w (rad)          =  N/A
# T_peri           =  N/A
######################################################
   0  1223.443
   1  1135.321
   2  993.7477
   3  840.4205
   4  763.9531
   5  784.4716
   6  783.2966
   7  749.7618
   8  811.9622
   9  817.2631
  10  827.4354
  11  784.7827
  12  823.7049
  13  864.2841
  14  890.9923
  15  842.9927
  16  832.7049
  17  877.2065
  18  729.3007
  19  662.6613
  20  736.0658
  21  755.4865
  22  750.6217
  23  843.1249
  24  862.829
  25  776.5452
  26  769.7451
  27  741.0231
  28  740.5092
  29  776.6371
  30  741.9642
  31  851.1227
  32  830.9777
  33  846.1667
  34  832.4971
  35  813.202
  36  901.734
  37  911.4689
  38  990.4291
  39  933.7335
  40  862.9321
  41  856.9524
  42  848.4666
  43  854.2258
  44  935.4477
  45  943.8298
  46  834.9859
  47  834.167
  48  858.2903
  49  916.5245
  50  913.4174
  51  893.0872
  52  899.4697
  53  905.7925
  54  854.1149
  55  874.8221
  56  920.2959
  57  866.2181
  58  879.5381
  59  896.1542
  60  888.1884
  61  984.0181
  62  873.6246
  63  813.8872
  64  812.38
  65  838.5037
  66  786.4159
  67  793.8496
  68  902.1127
  69  914.4652
  70  907.8563
  71  727.6626
  72  672.8065
  73  728.3821
  74  796.5728
  75  874.8314
  76  766.4145
  77  655.2573
  78  650.1646
  79  666.7267
  80  699.1237
  81  727.0699
  82  817.3506
  83  711.3526
  84  681.9816
  85  772.756
  86  706.3759
  87  664.119
  88  731.844
  89  806.2784
  90  742.3991
  91  731.3356
  92  670.0491
  93  672.5614
  94  765.9839
  95  733.5504
  96  715.6613
  97  770.54
  98  666.9538
  99  635.6647
 100  681.1639
 101  678.2185
 102  686.1241
 103  683.4634
 104  667.2957
 105  577.2222
 106  611.3322
 107  716.4576
 108  715.3503
 109  677.2952
 110  696.7899
 111  708.5458
 112  695.455
 113  695.1928
 114  693.0076
 115  704.0613
 116  745.4031
 117  815.4975
 118  811.2215
 119  710.6672
 120  767.8425
 121  812.9941
 122  742.7819
 123  821.0839
 124  789.5352
 125  776.6011
 126  685.9315
 127  644.0478
 128  754.9193
 129  771.7672
 130  780.8751
 131  743.6246
 132  720.4749
 133  759.2608
 134  697.3387
 135  558.0726
 136  565.7738
 137  682.1155
 138  728.9807
 139  569.8625
 140  569.2783
 141  584.8089
 142  592.4587
 143  633.7388
 144  645.4973
 145  713.7821
 146  662.862
 147  696.6345
 148  602.943
 149  682.6074
 150  691.3172
 151  672.0834
 152  686.1874
 153  644.7462
 154  579.7786
 155  613.7502
 156  729.5355
 157  705.7896
 158  628.2915
 159  768.2382
 160  779.739
 161  757.168
 162  691.5706
 163  605.9722
 164  652.748
 165  668.0297
 166  712.8283
 167  724.1259
 168  677.4119
 169  638.7551
 170  640.695
 171  760.4172
 172  728.1016
 173  786.3104
 174  792.2515
 175  761.9775
 176  727.2771
 177  717.4598
 178  676.5539
 179  718.0161
 180  695.5933
 181  782.6644
 182  745.6189
 183  739.227
 184  730.304
 185  763.4771
 186  706.4835
 187  664.5707
 188  691.2377
 189  749.0127
 190  712.6824
 191  762.9409
 192  771.1795
 193  709.2394
 194  680.214
 195  666.4966
 196  644.6936
 197  671.2402
 198  790.4266
 199  759.147
 200  650.0988
 201  723.9969
 202  736.0649
 203  732.5327
 204  639.5247
 205  736.6663
 206  828.4623
 207  805.7082
 208  660.5984
 209  713.0975
 210  792.5826
 211  752.0527
 212  774.856
 213  777.3134
 214  710.8238
 215  830.403
 216  875.4525
 217  796.1078
 218  670.8906
 219  703.3787
 220  736.4255
 221  618.3639
 222  773.7017
 223  844.2045
 224  876.5886
 225  839.6088
 226  832.9203
 227  877.8469
 228  876.8697
 229  780.0095
 230  757.4121
 231  853.8511
 232  882.2888
 233  851.7568
 234  898.796
 235  868.2732
 236  865.0225
 237  842.6489
 238  832.2745
 239  822.796
 240  811.0819
 241  779.7006
 242  765.7802
 243  658.8604
 244  766.6879
 245  710.4046
 246  649.6722
 247  795.0806
 248  841.4344
 249  886.1528
 250  853.7477
 251  825.7919
 252  728.6594
 253  793.4152
 254  758.3986
 255  694.9031
 256  649.8213
 257  687.115
 258  677.9465
 259  686.7206
 260  735.9696
 261  674.8627
 262  792.7303
 263  774.0309
 264  698.8866
 265  685.0961
 266  744.7348
 267  742.5065
 268  791.171
 269  745.771
 270  755.3161
 271  758.9495
 272  791.321
 273  701.5347
 274  758.2175
 275  776.7986
 276  799.2219
 277  789.3351
 278  664.6564
 279  786.4422
 280  668.1887
 281  653.8849
 282  773.4644
 283  775.0279
 284  778.4985
 285  799.3356
 286  807.3616
 287  724.2325
 288  795.5952
 289  726.461
 290  691.0314
 291  693.0383
 292  679.6448
 293  720.5319
 294  635.1251
 295  688.7672
 296  808.9806
 297  759.5029
 298  717.3944
 299  635.2006
 300  730.8235
 301  824.4857
 302  729.9213
 303  702.8976
 304  666.9125
 305  606.2125
 306  551.5544
 307  515.1292
 308  605.6884
 309  608.9341
 310  689.5621
 311  663.5327
 312  471.7079
 313  524.5168
 314  624.5571
 315  631.5761
 316  675.519
 317  737.6533
 318  624.3057
 319  561.9644
 320  684.9812
 321  768.0832
 322  728.519
 323  634.0322
 324  644.4055
 325  644.9741
 326  674.1951
 327  668.4047
 328  728.542
 329  675.9485
 330  691.5574
 331  598.2031
 332  714.591
 333  764.3323
 334  736.1097
 335  735.9005
 336  748.092
 337  702.1906
 338  790.6624
 339  804.7181
 340  746.1738
 341  738.7946
 342  716.2249
 343  754.7799
 344  681.4529
 345  660.1695
 346  651.4515
 347  705.4533
 348  779.9891
 349  769.9926
 350  712.5265
 351  718.231
 352  813.9894
 353  719.695
 354  646.8061
 355  661.5723
 356  756.9152
 357  829.0487
 358  867.6201
 359  878.9078
 360  860.3639
 361  790.549
 362  763.4047
 363  696.657
 364  669.9462
 365  700.1623
 366  726.3687
 367  815.2432
 368  788.7308
 369  751.2125
 370  753.1708
 371  582.1797
 372  662.3532
 373  734.4119
 374  701.8582
 375  733.9852
 376  784.8433
 377  849.0098
 378  848.7787
 379  641.1526
 380  641.1256
 381  751.65
 382  710.3261
 383  736.8456
 384  759.6671
 385  721.784
 386  717.3073
 387  727.9791
 388  806.5531
 389  788.96
 390  896.2745
 391  917.5519
 392  775.5637
 393  705.353
 394  797.9413
 395  705.4614
 396  738.0937
 397  837.1222
 398  836.7988
 399  750.7624
 400  712.5383
 401  669.6891
 402  688.8715
 403  709.7614
 404  679.7492
 405  684.5416
 406  741.8488
 407  782.2488
 408  691.0921
 409  684.196
 410  782.568
 411  746.6239
 412  713.4249
 413  732.7139
 414  794.7239
 415  791.8384
 416  780.5372
 417  710.2559
 418  801.9332
 419  724.925
 420  655.0702
 421  673.2311
 422  702.7673
 423  834.092
 424  678.97
 425  594.7617
 426  630.7076
 427  689.701
 428  722.6446
 429  588.1586
 430  630.9402
 431  593.1856
 432  712.7504
 433  656.2008
 434  602.8893
 435  603.8414
 436  668.6799
 437  739.6176
 438  753.6454
 439  691.0247
 440  715.8913
 441  690.7866
 442  711.8536
 443  753.963
 444  789.0097
 445  776.0716
 446  768.4001
 447  820.5272
 448  751.9048
 449  732.1345
 450  728.3116
 451  744.8275
 452  786.3846
 453  667.7556
 454  686.9817
 455  868.6418
 456  847.0143
 457  631.102
 458  631.4135
 459  680.7542
 460  677.1189
 461  553.1431
 462  621.3182
 463  801.8842
 464  829.4883
 465  813.5782
 466  720.1317
 467  751.5331
 468  793.1945
 469  788.771
 470  802.7507
 471  891.9139
 472  869.9355
 473  841.7139
 474  840.7595
 475  774.0669
 476  772.8473
 477  879.0299
 478  820.9579
 479  752.142
 480  745.5363
 481  676.9911
 482  747.2883
 483  685.7203
 484  673.0376
 485  701.7892
 486  637.2522
 487  703.1753
 488  703.0596
 489  760.7604
 490  769.758
 491  761.4277
 492  753.9744
 493  741.8329
 494  790.9827
 495  796.5063
 496  772.903
 497  827.0941
 498  858.8052
 499  777.748
 500  767.1055
 501  800.0626
 502  871.778
 503  885.7024
 504  813.819
 505  871.7595
 506  922.3321
 507  1029.393
 508  1018.44
 509  1027.843
 510  1118.22
 511  1183.224
