# Input file       =  1203611338.104799_cleaned.dat
# Candidate        =  PSR_0332+5434
# Telescope        =  AR
# Epoch_topo       =  58174.687003527768
# Epoch_bary       =  N/A
# T_sample         =  0.002
# Data Folded      =  7340032
# Data Avg         =  0.0553476280502484
# Data StdDev      =  1.00012906774835 
# Profile Bins     =  512
# Profile Avg      =  793.458687776225 
# Profile StdDev   =  119.748490050175 
# Reduced chi-sqr  =  0.776
# Prob(Noise)      <  1   (~0.0 sigma)
# P_topo (ms)      =  714.58091737581   +/- 0.000906
# P'_topo (s/s)    =  -0                +/- 4.78e-10
# P''_topo (s/s^2) =  0                 +/- 2.11e-13
# P_bary (ms)      =  N/A
# P'_bary (s/s)    =  N/A
# P''_bary (s/s^2) =  N/A
# P_orb (s)        =  N/A
# asin(i)/c (s)    =  N/A
# eccentricity     =  N/A
# w (rad)          =  N/A
# T_peri           =  N/A
######################################################
   0  864.0314
   1  924.1209
   2  902.2537
   3  883.0388
   4  832.1066
   5  781.3828
   6  773.4849
   7  872.8496
   8  850.8629
   9  815.6885
  10  841.9036
  11  913.3633
  12  901.5925
  13  796.1965
  14  806.6251
  15  867.0198
  16  834.6398
  17  829.1787
  18  905.7705
  19  828.6896
  20  802.7619
  21  820.3215
  22  795.6347
  23  907.6664
  24  861.0377
  25  830.7278
  26  838.1775
  27  768.0691
  28  745.8768
  29  782.3038
  30  841.1906
  31  821.5458
  32  762.8018
  33  759.2653
  34  714.8254
  35  708.0955
  36  705.5974
  37  803.4957
  38  806.1937
  39  852.6605
  40  827.2569
  41  752.3981
  42  797.8224
  43  782.8984
  44  732.8316
  45  804.1971
  46  798.6169
  47  753.1307
  48  793.4653
  49  700.2511
  50  716.6484
  51  757.2764
  52  796.2843
  53  787.2051
  54  801.2178
  55  874.2725
  56  887.4323
  57  887.3691
  58  749.4777
  59  706.8737
  60  748.6521
  61  781.8329
  62  676.6977
  63  739.5049
  64  774.3256
  65  812.312
  66  829.1625
  67  861.3903
  68  801.5947
  69  785.1223
  70  795.5787
  71  794.6353
  72  870.9331
  73  920.314
  74  921.0737
  75  758.9652
  76  747.3712
  77  677.1816
  78  709.6317
  79  716.3251
  80  770.0776
  81  754.2941
  82  816.0389
  83  822.5656
  84  871.46
  85  893.8049
  86  1022.636
  87  1036.396
  88  1038.625
  89  1050.646
  90  983.5847
  91  947.4763
  92  894.4648
  93  780.2839
  94  793.8939
  95  806.1243
  96  835.4771
  97  834.3766
  98  798.5155
  99  760.7111
 100  799.4287
 101  775.3881
 102  796.7809
 103  801.1298
 104  789.5668
 105  771.0923
 106  813.8522
 107  820.5259
 108  823.5569
 109  774.6227
 110  740.2031
 111  673.2744
 112  681.6091
 113  775.6683
 114  746.9643
 115  757.6935
 116  770.804
 117  720.2084
 118  744.8072
 119  780.1075
 120  702.6492
 121  694.2915
 122  710.1631
 123  776.1166
 124  806.3282
 125  885.0556
 126  833.8421
 127  829.8736
 128  905.5035
 129  947.5198
 130  808.4488
 131  817.6193
 132  816.2271
 133  814.1331
 134  738.3406
 135  851.6359
 136  857.2413
 137  871.8793
 138  923.1528
 139  852.1469
 140  715.168
 141  754.5324
 142  727.9531
 143  735.7433
 144  722.5571
 145  762.2369
 146  764.9183
 147  723.9855
 148  663.8228
 149  734.8791
 150  825.2653
 151  871.2018
 152  833.9761
 153  747.1625
 154  733.6525
 155  728.1892
 156  747.5952
 157  795.239
 158  781.7639
 159  788.7137
 160  808.4929
 161  781.2224
 162  794.1271
 163  694.5552
 164  707.9646
 165  708.0319
 166  703.125
 167  655.2787
 168  721.6086
 169  713.4851
 170  760.4935
 171  861.5238
 172  803.861
 173  703.9333
 174  688.563
 175  667.6106
 176  623.8668
 177  697.2104
 178  698.8533
 179  750.5835
 180  717.7585
 181  701.6422
 182  755.3503
 183  704.974
 184  570.2379
 185  584.8811
 186  602.4673
 187  712.1931
 188  765.0632
 189  783.9477
 190  813.6494
 191  714.6844
 192  715.2803
 193  770.6523
 194  734.582
 195  718.1243
 196  825.9926
 197  770.3826
 198  682.3705
 199  623.6363
 200  731.2534
 201  745.7972
 202  703.3525
 203  744.6677
 204  752.542
 205  705.3374
 206  722.7131
 207  761.881
 208  798.96
 209  909.9075
 210  860.8971
 211  807.8385
 212  870.4896
 213  833.8066
 214  839.5167
 215  802.2634
 216  792.0619
 217  789.7993
 218  679.1268
 219  795.2486
 220  836.7001
 221  799.9294
 222  742.0254
 223  721.1367
 224  774.7842
 225  728.3416
 226  758.5362
 227  760.5108
 228  726.8038
 229  720.812
 230  673.9038
 231  702.9239
 232  686.6302
 233  785.3601
 234  821.6467
 235  764.3047
 236  723.3782
 237  745.0825
 238  814.3445
 239  792.1782
 240  709.7925
 241  754.5376
 242  805.009
 243  839.3154
 244  824.4503
 245  753.2663
 246  767.9446
 247  829.4232
 248  788.934
 249  805.1416
 250  786.6378
 251  757.2273
 252  757.7122
 253  826.8834
 254  802.7795
 255  738.6049
 256  720.8389
 257  761.3547
 258  794.0104
 259  798.165
 260  823.5812
 261  675.807
 262  708.2037
 263  768.7579
 264  769.0554
 265  761.6284
 266  724.9701
 267  766.2748
 268  790.8712
 269  694.6182
 270  766.6641
 271  746.9814
 272  797.5958
 273  918.8468
 274  784.4005
 275  771.137
 276  841.297
 277  732.715
 278  690.5798
 279  679.0071
 280  673.1192
 281  763.7805
 282  751.8983
 283  750.9037
 284  777.4561
 285  722.4032
 286  754.5597
 287  740.9582
 288  742.9062
 289  789.7415
 290  732.6057
 291  726.5129
 292  794.6074
 293  767.0784
 294  732.8547
 295  762.8492
 296  713.2764
 297  825.3685
 298  778.1273
 299  763.0186
 300  699.804
 301  722.2105
 302  824.4826
 303  783.6032
 304  808.5079
 305  802.6028
 306  725.7851
 307  776.4257
 308  746.8864
 309  815.7192
 310  878.5549
 311  849.105
 312  864.5283
 313  925.4219
 314  868.514
 315  761.3622
 316  736.9146
 317  784.4758
 318  789.9062
 319  688.835
 320  722.4595
 321  735.3301
 322  671.2687
 323  756.5737
 324  793.1338
 325  730.5617
 326  749.6627
 327  709.9685
 328  729.7885
 329  744.6008
 330  782.4196
 331  764.5946
 332  693.6774
 333  756.3658
 334  750.7159
 335  692.8586
 336  671.7427
 337  659.3499
 338  665.2427
 339  595.7072
 340  602.61
 341  618.5975
 342  674.4474
 343  640.2836
 344  597.8906
 345  646.897
 346  694.0455
 347  776.0073
 348  748.1367
 349  862.2447
 350  874.0328
 351  785.6971
 352  742.7737
 353  712.5801
 354  811.155
 355  820.1562
 356  804.6005
 357  755.3988
 358  746.6041
 359  791.2227
 360  797.4814
 361  772.3744
 362  788.4609
 363  802.0056
 364  743.1637
 365  700.7686
 366  800.2913
 367  791.2064
 368  768.1811
 369  770.48
 370  812.0917
 371  733.2729
 372  737.4988
 373  753.5466
 374  815.7388
 375  819.3969
 376  799.3464
 377  820.3082
 378  864.157
 379  769.4063
 380  714.3632
 381  752.7982
 382  820.9343
 383  790.1361
 384  821.4186
 385  711.9733
 386  745.2461
 387  745.405
 388  744.9221
 389  831.3818
 390  781.5413
 391  674.4342
 392  693.1566
 393  815.6084
 394  802.8505
 395  821.1738
 396  832.8457
 397  740.9673
 398  737.5898
 399  811.8234
 400  785.1829
 401  799.0073
 402  848.8118
 403  964.877
 404  936.1322
 405  833.1079
 406  809.4005
 407  776.1038
 408  793.9155
 409  800.0226
 410  825.6289
 411  867.0829
 412  798.6423
 413  739.5551
 414  727.2358
 415  779.5416
 416  849.9202
 417  806.6595
 418  860.6059
 419  805.1693
 420  757.4648
 421  791.7847
 422  754.6104
 423  761.3303
 424  862.3038
 425  908.5822
 426  877.4801
 427  784.3738
 428  852.7708
 429  857.382
 430  869.772
 431  840.3038
 432  842.9381
 433  838.7165
 434  865.9642
 435  861.6191
 436  849.6294
 437  862.0316
 438  879.7411
 439  824.8904
 440  883.9048
 441  885.5627
 442  860.4892
 443  826.3045
 444  776.6892
 445  842.6615
 446  830.351
 447  895.7975
 448  883.9507
 449  845.8823
 450  886.5314
 451  809.1226
 452  765.5703
 453  825.7176
 454  853.3785
 455  871.3264
 456  837.1784
 457  808.0493
 458  831.9887
 459  828.3299
 460  818.7727
 461  772.2858
 462  810.6317
 463  802.1345
 464  777.7613
 465  780.5837
 466  810.5281
 467  708.3027
 468  717.2098
 469  841.774
 470  873.4454
 471  837.1219
 472  902.6861
 473  972.2331
 474  933.0525
 475  918.5844
 476  862.5935
 477  920.8704
 478  944.0757
 479  944.3051
 480  816.8483
 481  864.5649
 482  837.5732
 483  982.9466
 484  1033.046
 485  1007.808
 486  993.3451
 487  948.2488
 488  931.3425
 489  885.723
 490  978.8946
 491  1037.834
 492  923.4604
 493  892.402
 494  900.3115
 495  888.6674
 496  832.4687
 497  859.4799
 498  920.3091
 499  939.5723
 500  975.5796
 501  931.3795
 502  859.9936
 503  800.1172
 504  803.5762
 505  913.2678
 506  885.1884
 507  863.6459
 508  866.9519
 509  886.6202
 510  862.0188
 511  904.6979
