# Input file       =  1204979731.107805_cleaned.dat
# Candidate        =  PSR_0332+5434
# Telescope        =  AR
# Epoch_topo       =  58190.524885507002
# Epoch_bary       =  N/A
# T_sample         =  0.002
# Data Folded      =  7340032
# Data Avg         =  0.103658661206802
# Data StdDev      =  6.9193395579163  
# Profile Bins     =  512
# Profile Avg      =  1486.10890416229 
# Profile StdDev   =  828.473534991189 
# Reduced chi-sqr  =  0.530
# Prob(Noise)      <  1   (~0.0 sigma)
# P_topo (ms)      =  714.578065162688  +/- 0.00197
# P'_topo (s/s)    =  -0                +/- 1.04e-09
# P''_topo (s/s^2) =  0                 +/- 4.6e-13
# P_bary (ms)      =  N/A
# P'_bary (s/s)    =  N/A
# P''_bary (s/s^2) =  N/A
# P_orb (s)        =  N/A
# asin(i)/c (s)    =  N/A
# eccentricity     =  N/A
# w (rad)          =  N/A
# T_peri           =  N/A
######################################################
   0  1275.758
   1  888.291
   2  813.6044
   3  659.7686
   4  926.2761
   5  1434.08
   6  1762.379
   7  1390.031
   8  923.4318
   9  1012.219
  10  1074.199
  11  1015.335
  12  870.7269
  13  979.4954
  14  881.6307
  15  1055.173
  16  1354.355
  17  1628.72
  18  1775.164
  19  1696.226
  20  1624.153
  21  1393.401
  22  1392.603
  23  1422.618
  24  1479.108
  25  1502.465
  26  1444.409
  27  2101.302
  28  2317.959
  29  2531.033
  30  2508.429
  31  2099.217
  32  1729.707
  33  1450.609
  34  1422.452
  35  1491.978
  36  907.6716
  37  931.6079
  38  1243.931
  39  1156.573
  40  1220.002
  41  1181.711
  42  1489.003
  43  1452.184
  44  1077.504
  45  953.5101
  46  1080.428
  47  886.0228
  48  1062.448
  49  1354.763
  50  1478.309
  51  1052.865
  52  1184.984
  53  1601.736
  54  1302.734
  55  1069.058
  56  1097.094
  57  1051.251
  58  1223.489
  59  1637.327
  60  1991.258
  61  1845.113
  62  1738.192
  63  1509.666
  64  1409.39
  65  1274.247
  66  1005.195
  67  1070.516
  68  1279.787
  69  1072.883
  70  975.9832
  71  908.7122
  72  712.5133
  73  806.5132
  74  996.4575
  75  961.2276
  76  847.5275
  77  1048.772
  78  1472.524
  79  1255.255
  80  878.3751
  81  918.5179
  82  659.2064
  83  1371.575
  84  1531.102
  85  1388.007
  86  1105.576
  87  1258.396
  88  1092.116
  89  1236.515
  90  1361.902
  91  1678.634
  92  1591.963
  93  1192.903
  94  1151.322
  95  1339.318
  96  1122.323
  97  1388.902
  98  1492.181
  99  1243.313
 100  1084.983
 101  1273.152
 102  1229.618
 103  1210.552
 104  1280.159
 105  1504.672
 106  1423.618
 107  1457.048
 108  1330.763
 109  1682.468
 110  814.2742
 111  724.1367
 112  508.5977
 113  779.0121
 114  995.5002
 115  1078.125
 116  1106.149
 117  1234.924
 118  929.9449
 119  1062.811
 120  862.8915
 121  1040.157
 122  1519.649
 123  1368.965
 124  1348.081
 125  1106.683
 126  1197.815
 127  1327.58
 128  1256.464
 129  1315.098
 130  1344.368
 131  1337.492
 132  1149.831
 133  1201.823
 134  1247.976
 135  1447.903
 136  1552.276
 137  1549.056
 138  1538.166
 139  1516.928
 140  1914.318
 141  1484.198
 142  1456.235
 143  1513.855
 144  1629.883
 145  1605.374
 146  1782.672
 147  1623.07
 148  1095.806
 149  287.7118
 150  742.4678
 151  1128.019
 152  1177.244
 153  1177.974
 154  1474.57
 155  1622.575
 156  1284.246
 157  1416.227
 158  1613.14
 159  1752.431
 160  1615.61
 161  1145.056
 162  1247.391
 163  967.0415
 164  1122.073
 165  1127.386
 166  1537.916
 167  1551.062
 168  1478.25
 169  1151.096
 170  1502.047
 171  1640.832
 172  1454.966
 173  1509.541
 174  1549.475
 175  1806.372
 176  1692.874
 177  1278.516
 178  1770.446
 179  1975.896
 180  1655.895
 181  1340.853
 182  1896.75
 183  1472.361
 184  1257.871
 185  1549.689
 186  1913.617
 187  1563.148
 188  1441.299
 189  1788.004
 190  2028.124
 191  1705.839
 192  1499.07
 193  2251.337
 194  2269.65
 195  2244.722
 196  2354.582
 197  2157.565
 198  2392.092
 199  2416.052
 200  1924.437
 201  2334.922
 202  2426.59
 203  2104.063
 204  1907.323
 205  1639.77
 206  1895.415
 207  1848.916
 208  1950.492
 209  2005.447
 210  2062.095
 211  1966.654
 212  2088.42
 213  1855.042
 214  1693.217
 215  1691.2
 216  1826.524
 217  1962.018
 218  1807.375
 219  2021.363
 220  1675.755
 221  1553.43
 222  1703.934
 223  1559.161
 224  1178.893
 225  1485.363
 226  1689.217
 227  1750.802
 228  1623.064
 229  1669.716
 230  1539.6
 231  2017.507
 232  2089.698
 233  2164.45
 234  2263.944
 235  2079.372
 236  2001.113
 237  2036.289
 238  2064.568
 239  1919.088
 240  2008.46
 241  2138.69
 242  1947.44
 243  1429.13
 244  1407.151
 245  1740.955
 246  2111.05
 247  2050.331
 248  1844.654
 249  1758.409
 250  1634.89
 251  1450.499
 252  1366.923
 253  1551.935
 254  1446.193
 255  1647.874
 256  1217.019
 257  1199.923
 258  1322.304
 259  976.1446
 260  919.7578
 261  887.2962
 262  1051.365
 263  985.2649
 264  677.1252
 265  1028.39
 266  842.8743
 267  1117.303
 268  1294.529
 269  1286.922
 270  1479.439
 271  1316.545
 272  1553.472
 273  1590.952
 274  1509.032
 275  1263.083
 276  1138.493
 277  853.5543
 278  1106.437
 279  1450.813
 280  1486.65
 281  1501.428
 282  1569.581
 283  1684.479
 284  1748.059
 285  1803.34
 286  1634.384
 287  1797.309
 288  2239.538
 289  2524.836
 290  1793.784
 291  1392.862
 292  1405.514
 293  1640.512
 294  1997.907
 295  1923.259
 296  1755.739
 297  1764.51
 298  1589.515
 299  1358.11
 300  1235.959
 301  1806.623
 302  2011.269
 303  2125.628
 304  2159.923
 305  2015.428
 306  2046.849
 307  2324.601
 308  2693.074
 309  2441.425
 310  1972.598
 311  2081.197
 312  1954.342
 313  2283.308
 314  2642.41
 315  2495.914
 316  2463.752
 317  2565.175
 318  2194.15
 319  2022.134
 320  2153.719
 321  2027.465
 322  1926.384
 323  1990.354
 324  1856.502
 325  2050.716
 326  2164.7
 327  2240.062
 328  2117.685
 329  2219.507
 330  2443.044
 331  2209.933
 332  1716.139
 333  1756.766
 334  2154.903
 335  2125.972
 336  2146.801
 337  2047.915
 338  2083.883
 339  2060.472
 340  2043.307
 341  2060.141
 342  1994.562
 343  2247.287
 344  2005.333
 345  2138.512
 346  2102.815
 347  2080.877
 348  1946.925
 349  2263.801
 350  2153.448
 351  1450.727
 352  1443.83
 353  1422.36
 354  1394.056
 355  1589.695
 356  1956.136
 357  1413.564
 358  1382.646
 359  1894.429
 360  1940.775
 361  1708.116
 362  1975.505
 363  2160.789
 364  1512.04
 365  1727.645
 366  1607.362
 367  1521.28
 368  1983.766
 369  1811.062
 370  1944.068
 371  1738.594
 372  1876.214
 373  1770.693
 374  2318.425
 375  2273.043
 376  2300.969
 377  2022.088
 378  2001.452
 379  1969.184
 380  1731.947
 381  1702.837
 382  1643.854
 383  1573.679
 384  1615.554
 385  1484.388
 386  1286.832
 387  1171.084
 388  1198.224
 389  1401.739
 390  1318.716
 391  1357.971
 392  1700.714
 393  1652.943
 394  1352.638
 395  1312.929
 396  835.5667
 397  1002.41
 398  1308.481
 399  894.3386
 400  976.412
 401  780.3886
 402  1033.346
 403  1147.901
 404  1412.203
 405  898.8729
 406  1171.581
 407  1390.583
 408  959.7388
 409  866.258
 410  989.5063
 411  1243.53
 412  1311.176
 413  1833.69
 414  1619.762
 415  861.3969
 416  1039.774
 417  1238.972
 418  1344.47
 419  1178.775
 420  1108.75
 421  1098.892
 422  1367.249
 423  1528.957
 424  1484.268
 425  1626.77
 426  1365.068
 427  1486.858
 428  1567.229
 429  1515.412
 430  1542.613
 431  1768.724
 432  1610.739
 433  1416.33
 434  1527.74
 435  1555.879
 436  1308.566
 437  1431.629
 438  2014.727
 439  1331.287
 440  1323.589
 441  1525.013
 442  1207.848
 443  1000.524
 444  1000.346
 445  1401.976
 446  1284.884
 447  1074.775
 448  972.9003
 449  803.5142
 450  886.4071
 451  933.2448
 452  1133.309
 453  1089.274
 454  833.1794
 455  635.2552
 456  391.787
 457  676.5512
 458  772.7493
 459  830.9845
 460  785.6854
 461  897.4161
 462  1026.404
 463  1230.678
 464  1501.038
 465  1053.576
 466  932.0236
 467  1082.827
 468  1068.566
 469  1156.761
 470  1484.794
 471  1585.163
 472  908.1547
 473  1011.855
 474  1307.844
 475  1192.13
 476  1520.927
 477  1799.334
 478  1615.978
 479  1048.37
 480  965.0513
 481  854.7357
 482  897.5532
 483  918.9541
 484  1037.381
 485  1165.97
 486  622.079
 487  922.7495
 488  1309.154
 489  1159.851
 490  763.8909
 491  602.8843
 492  893.09
 493  1296.076
 494  1193.165
 495  1589.434
 496  1648.625
 497  1332.563
 498  1544.456
 499  1594.522
 500  1414.52
 501  1123.148
 502  1278.792
 503  1416.557
 504  1745.962
 505  1587.807
 506  1268.794
 507  1152.582
 508  1653.049
 509  1516.036
 510  1064.78
 511  1144.158
