# Input file       =  1204994642.105844_cleaned.dat
# Candidate        =  PSR_0332+5434
# Telescope        =  AR
# Epoch_topo       =  58190.697466502825
# Epoch_bary       =  N/A
# T_sample         =  0.002
# Data Folded      =  7340032
# Data Avg         =  0.107435889918374
# Data StdDev      =  4.71599012230514 
# Profile Bins     =  1024
# Profile Avg      =  770.042060246015 
# Profile StdDev   =  399.274785569807 
# Reduced chi-sqr  =  0.825
# Prob(Noise)      <  1   (~0.0 sigma)
# P_topo (ms)      =  714.578345747214  +/- 0.000385
# P'_topo (s/s)    =  -0                +/- 2.03e-10
# P''_topo (s/s^2) =  0                 +/- 8.97e-14
# P_bary (ms)      =  N/A
# P'_bary (s/s)    =  N/A
# P''_bary (s/s^2) =  N/A
# P_orb (s)        =  N/A
# asin(i)/c (s)    =  N/A
# eccentricity     =  N/A
# w (rad)          =  N/A
# T_peri           =  N/A
######################################################
   0  823.0003
   1  757.975
   2  944.9941
   3  993.9051
   4  1037.937
   5  834.2537
   6  826.6396
   7  876.5769
   8  949.4752
   9  928.097
  10  850.9338
  11  820.3393
  12  957.2779
  13  902.5779
  14  991.6423
  15  928.1484
  16  903.8323
  17  838.1752
  18  754.7528
  19  774.9072
  20  576.304
  21  814.0788
  22  962.1296
  23  992.2198
  24  840.0942
  25  810.4822
  26  876.9809
  27  925.9064
  28  813.2646
  29  670.97
  30  687.2272
  31  816.8221
  32  931.0681
  33  993.6533
  34  1003.364
  35  1081.049
  36  1104.517
  37  1000.286
  38  754.4491
  39  627.1462
  40  786.9592
  41  945.1423
  42  946.6769
  43  903.0928
  44  997.332
  45  995.1894
  46  1128.741
  47  1111.824
  48  1082.06
  49  973.1719
  50  905.0026
  51  878.5449
  52  776.0927
  53  779.959
  54  765.9227
  55  709.2679
  56  607.5648
  57  523.812
  58  607.8434
  59  670.5624
  60  701.4271
  61  685.4976
  62  742.0325
  63  854.0473
  64  909.1693
  65  795.6933
  66  718.3889
  67  661.6531
  68  720.45
  69  938.9955
  70  1035.606
  71  967.0964
  72  769.3243
  73  726.9529
  74  721.8508
  75  858.9075
  76  946.1478
  77  922.0554
  78  767.8822
  79  725.5516
  80  662.723
  81  749.8967
  82  899.8845
  83  922.7254
  84  954.2084
  85  960.5706
  86  903.153
  87  849.6863
  88  806.0009
  89  930.0667
  90  1094.439
  91  1101.604
  92  1063.787
  93  909.8539
  94  724.8417
  95  634.6618
  96  618.5339
  97  772.314
  98  877.0223
  99  1031.481
 100  1072.666
 101  1006.953
 102  861.2919
 103  925.7146
 104  1019.999
 105  952.5765
 106  844.1904
 107  697.6968
 108  675.0228
 109  673.8769
 110  766.4802
 111  748.2611
 112  757.922
 113  754.4486
 114  906.2291
 115  937.6423
 116  923.6437
 117  794.6257
 118  601.7177
 119  537.1592
 120  631.0677
 121  654.8851
 122  662.1489
 123  680.6808
 124  701.2857
 125  654.0224
 126  559.0995
 127  616.4773
 128  693.8427
 129  703.8745
 130  568.7914
 131  679.5803
 132  813.9885
 133  1017.798
 134  983.211
 135  903.8827
 136  848.7277
 137  797.6465
 138  821.4966
 139  681.9298
 140  551.6294
 141  456.1353
 142  523.3065
 143  555.7645
 144  631.4213
 145  692.5333
 146  791.4362
 147  743.8438
 148  735.6165
 149  756.0314
 150  916.2015
 151  857.1529
 152  689.2689
 153  641.9415
 154  707.856
 155  699.4559
 156  711.5251
 157  827.0244
 158  800.465
 159  739.3017
 160  646.235
 161  662.3348
 162  696.2495
 163  846.3394
 164  832.0093
 165  899.7957
 166  825.7542
 167  718.2143
 168  631.4928
 169  773.473
 170  1002.404
 171  1191.736
 172  1230.81
 173  1191.74
 174  1027.337
 175  953.8165
 176  987.0453
 177  984.448
 178  892.2763
 179  810.1101
 180  813.0886
 181  798.9807
 182  785.436
 183  702.5901
 184  669.4034
 185  711.8069
 186  901.5743
 187  1086.241
 188  985.9166
 189  707.8341
 190  723.234
 191  872.0356
 192  957.512
 193  884.4843
 194  778.617
 195  876.2774
 196  906.7574
 197  890.3501
 198  805.7318
 199  696.9972
 200  649.8221
 201  652.4081
 202  827.7974
 203  958.2183
 204  1097.341
 205  1047.194
 206  957.6542
 207  936.1315
 208  995.5771
 209  963.1436
 210  982.8078
 211  1030.118
 212  975.0743
 213  882.1227
 214  870.0887
 215  839.1806
 216  798.3812
 217  691.0501
 218  766.2092
 219  862.4053
 220  963.2945
 221  949.2063
 222  914.6953
 223  815.3307
 224  812.6938
 225  868.732
 226  983.9932
 227  1001.346
 228  1027.718
 229  903.9518
 230  920.1271
 231  796.7964
 232  720.7286
 233  604.6008
 234  621.2035
 235  641.4556
 236  658.3227
 237  661.7316
 238  634.7641
 239  667.4435
 240  723.2659
 241  726.5436
 242  627.3055
 243  621.9117
 244  623.1721
 245  657.6895
 246  734.437
 247  730.1813
 248  638.9592
 249  486.923
 250  467.3638
 251  501.7447
 252  682.508
 253  770.4515
 254  883.2705
 255  890.9467
 256  888.0688
 257  798.1973
 258  630.0188
 259  507.8552
 260  434.7462
 261  483.3338
 262  499.3173
 263  610.0203
 264  728.1107
 265  756.6742
 266  700.717
 267  677.0428
 268  685.8359
 269  614.9017
 270  619.5748
 271  584.3516
 272  625.3135
 273  691.5203
 274  607.5439
 275  596.5432
 276  601.8081
 277  656.1143
 278  657.2266
 279  607.3044
 280  677.3982
 281  630.7635
 282  602.6844
 283  539.7975
 284  542.2587
 285  526.4207
 286  571.4497
 287  462.5563
 288  385.9578
 289  191.3751
 290  358.85
 291  501.1521
 292  635.4078
 293  579.379
 294  624.4897
 295  720.1503
 296  650.8801
 297  573.8547
 298  504.8392
 299  554.3607
 300  652.4049
 301  751.5125
 302  779.8802
 303  734.7696
 304  788.7411
 305  796.2717
 306  748.4558
 307  744.0613
 308  708.827
 309  730.8824
 310  683.3439
 311  674.6683
 312  758.7712
 313  668.9849
 314  717.1964
 315  725.494
 316  840.7522
 317  913.3154
 318  1040.961
 319  1246.968
 320  1237.889
 321  1289.01
 322  1204.726
 323  1002.331
 324  831.8431
 325  778.1925
 326  900.573
 327  904.476
 328  957.9562
 329  883.027
 330  883.1796
 331  791.0615
 332  870.8674
 333  1024.484
 334  1073.64
 335  1094.877
 336  989.0972
 337  994.084
 338  910.8231
 339  842.0173
 340  847.4183
 341  802.2942
 342  728.1081
 343  702.6166
 344  807.9565
 345  821.7834
 346  816.9724
 347  621.9294
 348  632.1827
 349  622.0334
 350  759.6505
 351  775.0108
 352  733.356
 353  637.0544
 354  639.1723
 355  712.7783
 356  691.5949
 357  641.8826
 358  488.2818
 359  543.1495
 360  566.311
 361  584.8098
 362  734.3453
 363  899.062
 364  946.1394
 365  749.5359
 366  640.775
 367  633.3391
 368  524.8932
 369  545.3334
 370  541.8263
 371  553.3149
 372  477.4675
 373  366.5499
 374  391.6053
 375  422.3607
 376  498.4042
 377  497.46
 378  618.9724
 379  681.7434
 380  711.5494
 381  536.8044
 382  539.6686
 383  464.6253
 384  513.1454
 385  560.9014
 386  570.7526
 387  608.8446
 388  617.8713
 389  748.0184
 390  727.4681
 391  866.6255
 392  909.1587
 393  895.5299
 394  689.4893
 395  693.7593
 396  713.3503
 397  780.9493
 398  664.2551
 399  589.7191
 400  504.7542
 401  437.3788
 402  282.2155
 403  364.1208
 404  618.6035
 405  709.2015
 406  710.1249
 407  692.1342
 408  787.5525
 409  840.3356
 410  717.822
 411  528.4766
 412  514.4197
 413  610.1902
 414  708.601
 415  822.6796
 416  917.7722
 417  840.5939
 418  839.3019
 419  744.2724
 420  718.308
 421  543.5433
 422  479.0019
 423  453.5531
 424  479.8327
 425  377.2946
 426  371.7449
 427  438.271
 428  647.5432
 429  708.4874
 430  730.9417
 431  718.041
 432  761.5082
 433  755.5153
 434  731.3509
 435  638.3158
 436  599.6797
 437  556.3795
 438  600.7657
 439  630.3516
 440  700.6254
 441  705.1875
 442  715.3414
 443  728.699
 444  694.2932
 445  679.3604
 446  777.7379
 447  810.5178
 448  884.9155
 449  869.1426
 450  939.717
 451  957.3283
 452  941.3959
 453  839.0124
 454  845.4543
 455  746.5399
 456  807.6761
 457  863.1202
 458  1024.011
 459  1006.471
 460  837.5711
 461  694.1793
 462  641.905
 463  630.4437
 464  581.849
 465  667.5036
 466  860.8226
 467  870.3453
 468  868.3043
 469  637.7139
 470  656.9177
 471  624.0968
 472  680
 473  629.8217
 474  537.6786
 475  631.7664
 476  777.2814
 477  865.4747
 478  820.1016
 479  806.5002
 480  911.6154
 481  757.304
 482  735.3637
 483  819.6436
 484  1059.174
 485  1107.123
 486  1043.599
 487  986.3133
 488  886.4626
 489  789.2798
 490  794.5369
 491  772.8233
 492  769.6522
 493  770.029
 494  960.3635
 495  1060.089
 496  1026.39
 497  967.581
 498  852.6107
 499  853.6505
 500  834.0129
 501  974.9141
 502  1042.09
 503  1012.785
 504  869.5408
 505  841.8292
 506  789.7762
 507  694.8409
 508  592.6848
 509  538.1008
 510  677.4634
 511  809.9056
 512  778.6363
 513  706.793
 514  691.6661
 515  820.507
 516  843.998
 517  873.78
 518  760.8434
 519  686.0921
 520  770.1579
 521  809.8234
 522  806.924
 523  709.3366
 524  727.7227
 525  768.11
 526  825.1586
 527  750.4816
 528  622.2123
 529  462.6681
 530  351.9868
 531  383.3053
 532  492.2966
 533  772.6978
 534  712.4086
 535  716.0436
 536  611.609
 537  658.5827
 538  630.5665
 539  459.2965
 540  382.4441
 541  427.5746
 542  632.1202
 543  662.2034
 544  796.9852
 545  601.5691
 546  500.5643
 547  542.4305
 548  571.2938
 549  568.3261
 550  526.8587
 551  616.614
 552  571.7547
 553  490.5981
 554  492.8442
 555  639.2586
 556  720.0912
 557  683.0143
 558  577.291
 559  557.0673
 560  528.7872
 561  551.0141
 562  513.7147
 563  579.7948
 564  515.0466
 565  573.7142
 566  539.2497
 567  515.5842
 568  585.2956
 569  573.0291
 570  531.114
 571  503.9504
 572  506.9412
 573  650.5511
 574  705.7277
 575  719.9845
 576  703.1107
 577  731.784
 578  789.8382
 579  821.919
 580  814.2842
 581  723.5219
 582  717.1937
 583  680.4477
 584  627.8481
 585  528.6998
 586  586.0046
 587  668.1456
 588  701.1974
 589  714.5947
 590  830.2289
 591  877.0118
 592  773.4896
 593  746.4445
 594  938.2446
 595  1070.451
 596  944.0392
 597  779.8248
 598  762.9541
 599  923.4606
 600  1050.294
 601  1103.867
 602  1072.498
 603  1084.665
 604  1277.071
 605  1539.624
 606  1850.337
 607  1949.106
 608  1996.273
 609  1990.498
 610  1948.278
 611  1700.529
 612  1444.668
 613  1185.03
 614  1100.369
 615  1150.123
 616  1261.843
 617  1148.882
 618  1061.843
 619  945.2809
 620  944.4875
 621  916.7344
 622  873.5601
 623  815.7045
 624  847.6932
 625  972.5258
 626  1079.644
 627  1158.663
 628  1090.573
 629  998.6308
 630  1049.608
 631  1253.137
 632  1270.303
 633  1159.029
 634  995.8513
 635  975.2437
 636  982.8026
 637  1040.436
 638  1126.771
 639  1063.101
 640  1046.783
 641  929.5551
 642  962.3947
 643  893.1246
 644  890.263
 645  803.1853
 646  828.2606
 647  803.8183
 648  693.6931
 649  681.4945
 650  681.1362
 651  817.8286
 652  846.6573
 653  875.67
 654  800.3553
 655  798.5811
 656  582.5662
 657  518.2386
 658  463.5833
 659  486.4917
 660  445.3765
 661  452.3302
 662  534.0002
 663  535.894
 664  627.8497
 665  662.2363
 666  811.9113
 667  889.8229
 668  880.5835
 669  823.4608
 670  890.4851
 671  747.9438
 672  540.0162
 673  506.9594
 674  620.868
 675  591.2037
 676  526.7073
 677  627.2898
 678  716.6354
 679  509.2711
 680  291.035
 681  349.7904
 682  475.798
 683  494.1301
 684  506.1848
 685  499.1499
 686  468.9479
 687  389.6927
 688  552.8761
 689  480.2288
 690  533.2023
 691  567.1284
 692  735.2686
 693  602.8508
 694  517.1035
 695  523.3704
 696  640.9115
 697  645.6746
 698  670.848
 699  549.4185
 700  439.9242
 701  370.7201
 702  473.5399
 703  576.0612
 704  598.7366
 705  600.2004
 706  534.3626
 707  447.748
 708  484.2358
 709  610.0287
 710  614.3085
 711  553.2201
 712  475.8168
 713  510.438
 714  446.0245
 715  468.1846
 716  485.5569
 717  599.0501
 718  596.8577
 719  565.058
 720  514.4149
 721  557.9442
 722  677.7155
 723  653.4193
 724  685.8687
 725  631.1246
 726  617.7891
 727  621.5937
 728  538.0312
 729  634.6687
 730  550.0316
 731  470.6235
 732  407.1536
 733  541.075
 734  719.2534
 735  841.6931
 736  984.6458
 737  934.4679
 738  811.7275
 739  735.4802
 740  809.5858
 741  853.4944
 742  897.7951
 743  801.504
 744  761.0292
 745  668.3793
 746  775.8089
 747  784.3304
 748  757.788
 749  623.093
 750  620.2291
 751  768.2964
 752  789.3819
 753  912.1418
 754  865.2086
 755  689.938
 756  637.7043
 757  685.7578
 758  871.0096
 759  910.3214
 760  953.3265
 761  969.1375
 762  875.9072
 763  830.9871
 764  820.675
 765  863.4364
 766  926.9501
 767  995.7999
 768  967.5906
 769  990.1072
 770  1035.283
 771  1042.441
 772  968.584
 773  921.3872
 774  864.6718
 775  832.0203
 776  924.3623
 777  1078.528
 778  1079.917
 779  842.2939
 780  759.7643
 781  700.3399
 782  714.191
 783  793.0909
 784  948.1155
 785  1004.406
 786  1009.38
 787  1012.983
 788  973.1694
 789  909.3185
 790  883.7302
 791  892.8293
 792  836.8633
 793  914.66
 794  898.72
 795  846.6653
 796  711.9944
 797  751.231
 798  704.4671
 799  664.4789
 800  616.9607
 801  569.3509
 802  654.235
 803  537.0391
 804  488.8546
 805  449.5197
 806  449.1647
 807  459.2516
 808  506.963
 809  468.7455
 810  482.5443
 811  328.8311
 812  299.0728
 813  275.0381
 814  369.1035
 815  384.9373
 816  420.6155
 817  536.7168
 818  753.1238
 819  672.0737
 820  577.0682
 821  594.0642
 822  791.9719
 823  764.1471
 824  744.5263
 825  692.9863
 826  699.251
 827  637.3692
 828  675.5931
 829  548.9115
 830  404.4424
 831  309.1348
 832  496.9044
 833  626.0617
 834  691.4362
 835  687.1131
 836  642.389
 837  683.8567
 838  694.6232
 839  642.9493
 840  651.2795
 841  674.2958
 842  735.2017
 843  772.7958
 844  785.6073
 845  751.1728
 846  638.2264
 847  734.8284
 848  832.9219
 849  992.3149
 850  834.905
 851  669.8561
 852  753.2396
 853  834.501
 854  959.1277
 855  864.7961
 856  871.7366
 857  921.6899
 858  951.3013
 859  915.9658
 860  897.9052
 861  848.108
 862  807.6745
 863  757.1636
 864  752.3975
 865  696.2878
 866  635.1197
 867  722.8006
 868  671.3934
 869  668.0371
 870  611.4722
 871  544.122
 872  551.1465
 873  531.4064
 874  656.3624
 875  633.5949
 876  721.899
 877  733.144
 878  882.2485
 879  880.1391
 880  801.8646
 881  765.0693
 882  713.6958
 883  703.4393
 884  571.2316
 885  617.8061
 886  592.1382
 887  641.7661
 888  782.7035
 889  891.4465
 890  839.2755
 891  871.692
 892  1005.148
 893  1025.579
 894  975.5942
 895  1004.379
 896  1008.175
 897  880.5846
 898  857.8798
 899  922.679
 900  1001.99
 901  900.4751
 902  732.5615
 903  681.4777
 904  695.7981
 905  833.8423
 906  968.5881
 907  968.9059
 908  913.0909
 909  966.5836
 910  891.9449
 911  843.3865
 912  811.6157
 913  887.8002
 914  902.8558
 915  840.4633
 916  904.9747
 917  1030.918
 918  962.5151
 919  825.4274
 920  748.7227
 921  907.9885
 922  999.9479
 923  950.7186
 924  944.0995
 925  846.035
 926  905.1861
 927  825.6073
 928  916.3882
 929  923.4724
 930  924.7125
 931  944.3522
 932  873.9132
 933  901.8168
 934  826.2497
 935  851.4606
 936  854.5623
 937  895.9177
 938  904.7264
 939  999.4479
 940  1010.672
 941  889.3043
 942  702.5287
 943  730.6758
 944  787.4058
 945  814.3234
 946  868.4663
 947  795.091
 948  833.3402
 949  808.2952
 950  925.3438
 951  763.1694
 952  813.4791
 953  771.5508
 954  649.8872
 955  531.6393
 956  622.8148
 957  789.6757
 958  1043.335
 959  951.4398
 960  965.1137
 961  865.0323
 962  883.5881
 963  855.3596
 964  796.8661
 965  845.2791
 966  903.7717
 967  895.9784
 968  797.0457
 969  746.6144
 970  785.2042
 971  879.5997
 972  951.2644
 973  923.0652
 974  779.6642
 975  718.1068
 976  751.0425
 977  712.7357
 978  672.8707
 979  651.2092
 980  729.0377
 981  637.6603
 982  663.8702
 983  724.3646
 984  880.67
 985  950.1713
 986  1023.261
 987  1074.598
 988  1077.781
 989  989.461
 990  819.7125
 991  706.9738
 992  653.6431
 993  655.5135
 994  684.1921
 995  811.6522
 996  925.3143
 997  1015.81
 998  943.8958
 999  876.1619
1000  994.297
1001  990.8192
1002  901.2328
1003  843.1598
1004  833.4052
1005  953.3325
1006  789.2678
1007  767.2078
1008  733.9537
1009  764.329
1010  753.7959
1011  739.3499
1012  915.268
1013  1115.243
1014  1092.231
1015  1033.969
1016  930.8209
1017  832.7438
1018  726.9541
1019  621.3406
1020  622.887
1021  626.5929
1022  761.9744
1023  690.7448
