# Input file       =  1204965093.116856_cleaned.dat
# Candidate        =  PSR_0332+5434
# Telescope        =  AR
# Epoch_topo       =  58190.355464315464
# Epoch_bary       =  N/A
# T_sample         =  0.002
# Data Folded      =  7208960
# Data Avg         =  0.304724718420766
# Data StdDev      =  5.68221262181584 
# Profile Bins     =  1024
# Profile Avg      =  2145.27169879421 
# Profile StdDev   =  476.764389995566 
# Reduced chi-sqr  =  3.850
# Prob(Noise)      <  0   (~0.0 sigma)
# P_topo (ms)      =  714.578106210492  +/- 1.1e-05
# P'_topo (s/s)    =  -0                +/- 5.9e-12
# P''_topo (s/s^2) =  0                 +/- 2.65e-15
# P_bary (ms)      =  N/A
# P'_bary (s/s)    =  N/A
# P''_bary (s/s^2) =  N/A
# P_orb (s)        =  N/A
# asin(i)/c (s)    =  N/A
# eccentricity     =  N/A
# w (rad)          =  N/A
# T_peri           =  N/A
######################################################
   0  1154.109
   1  977.2898
   2  1010.874
   3  1197.987
   4  1351.767
   5  1641.807
   6  1934.392
   7  2317.464
   8  2568.555
   9  2722.094
  10  2843.587
  11  2714.625
  12  2365.345
  13  2044.005
  14  1891.771
  15  1890.028
  16  1693.257
  17  1538.548
  18  1522.212
  19  1556.96
  20  1786.305
  21  1799.469
  22  2057.719
  23  1953.217
  24  2169.303
  25  2315.686
  26  2551.722
  27  2501.316
  28  2327.712
  29  2090.419
  30  1855.709
  31  1452.204
  32  1294.036
  33  1179.958
  34  1287.396
  35  1361.59
  36  1431.158
  37  1510.34
  38  1692.628
  39  2132.472
  40  2626.157
  41  2813.168
  42  2914.81
  43  2724.248
  44  2690.949
  45  2447.292
  46  2401.674
  47  2214.079
  48  2086.042
  49  1874.537
  50  1794.151
  51  1819.567
  52  1869.535
  53  1982.554
  54  2067.562
  55  2305.148
  56  2368.678
  57  2673.698
  58  2778.634
  59  2886.724
  60  2783.618
  61  2743.504
  62  2476.929
  63  2231.256
  64  1917.877
  65  1732.185
  66  1494.998
  67  1482.578
  68  1656.612
  69  1736.165
  70  2003.076
  71  2199.631
  72  2618.928
  73  2704.336
  74  2894.067
  75  2935.534
  76  3034.42
  77  3049.792
  78  2931.689
  79  2735.888
  80  2376.128
  81  2290.032
  82  2157.627
  83  2079.283
  84  1979.476
  85  1980.506
  86  2032.269
  87  2220.827
  88  2483.379
  89  2813.343
  90  2958.516
  91  2949.845
  92  2940.976
  93  2889.947
  94  2861.271
  95  2648.884
  96  2448.253
  97  2020.489
  98  1741.735
  99  1506.929
 100  1525.546
 101  1512.816
 102  1529.061
 103  1786.49
 104  2056.52
 105  2369.302
 106  2491.979
 107  2741.935
 108  2928.694
 109  3157.926
 110  3236.301
 111  3097.909
 112  2796.211
 113  2568.092
 114  2224.71
 115  1924.597
 116  1822.3
 117  1876.24
 118  1931.805
 119  1984.041
 120  2196.592
 121  2237.987
 122  2358.545
 123  2684.919
 124  2900.943
 125  2994.63
 126  2881.997
 127  2905.446
 128  2787.85
 129  2579.248
 130  2245.437
 131  2087.086
 132  1795.854
 133  1694.539
 134  1529.431
 135  1643.312
 136  1657.69
 137  1863.665
 138  2244.628
 139  2640.682
 140  2997.812
 141  3059.017
 142  3188.955
 143  3120.386
 144  2962.677
 145  2899.584
 146  2704.117
 147  2511.393
 148  2410.416
 149  2289.123
 150  2142.41
 151  1970.42
 152  2058.198
 153  2182.854
 154  2163.86
 155  2376.639
 156  2578.111
 157  2906.063
 158  3091.177
 159  3245.775
 160  3188.037
 161  2938.471
 162  2534.439
 163  2230.412
 164  1931.664
 165  1797.913
 166  1924.71
 167  2033.818
 168  2089.325
 169  2129.535
 170  2313.441
 171  2502.73
 172  2603.656
 173  2915.585
 174  3106.204
 175  3093.278
 176  2791.7
 177  2689.282
 178  2591.799
 179  2486.707
 180  2294.419
 181  2142.055
 182  2039.339
 183  2085.021
 184  2214.47
 185  2313.429
 186  2477.778
 187  2665.585
 188  2866.605
 189  2879.333
 190  3031.693
 191  2936.319
 192  2940.598
 193  2757.373
 194  2583.998
 195  2238.937
 196  2018.708
 197  1984.206
 198  1980.602
 199  1968.706
 200  2016.04
 201  2162.877
 202  2308.802
 203  2527.893
 204  2780.563
 205  3079.304
 206  3207.453
 207  3347.206
 208  3344.766
 209  3210.372
 210  2983.995
 211  2854.906
 212  2670.866
 213  2505.294
 214  2359.974
 215  2326.673
 216  2303.917
 217  2373.67
 218  2404.068
 219  2591.617
 220  2784.995
 221  2965.074
 222  2973.253
 223  2919.458
 224  2973.038
 225  2985.267
 226  2810.1
 227  2541.367
 228  2316.257
 229  2187.6
 230  2061.273
 231  1983.491
 232  1968.501
 233  2015.035
 234  2023.876
 235  2153.187
 236  2421.147
 237  2867.611
 238  3070.057
 239  3053.689
 240  3076.124
 241  3083.713
 242  3118.538
 243  2923.14
 244  2668.828
 245  2415.567
 246  2276.741
 247  2255.208
 248  2148.32
 249  1986.813
 250  2049.571
 251  2249.008
 252  2513.315
 253  2611.96
 254  2764.56
 255  2902.861
 256  2995.086
 257  3122.967
 258  2950.465
 259  2762.511
 260  2563.853
 261  2445.096
 262  2099.935
 263  1784.881
 264  1783.024
 265  1872.198
 266  1781.657
 267  1656.375
 268  1711.812
 269  1903.757
 270  2219.546
 271  2630.101
 272  3039.853
 273  3177.144
 274  3136.256
 275  3176.213
 276  3067.67
 277  2830.106
 278  2516.774
 279  2286.978
 280  1958.661
 281  1811.694
 282  1629.608
 283  1772.038
 284  1862.048
 285  2119.375
 286  2317.109
 287  2456.079
 288  2644.268
 289  2724.415
 290  2836.278
 291  2821.144
 292  2814.38
 293  2671.454
 294  2354.236
 295  2038.393
 296  1867.615
 297  1813.646
 298  1894.582
 299  1917.639
 300  1908.138
 301  1849.23
 302  2065.28
 303  2373.822
 304  2480.513
 305  2690.643
 306  2882.896
 307  3122.719
 308  3195.433
 309  3129.414
 310  2834.109
 311  2494.814
 312  2293.923
 313  2189.835
 314  1953.029
 315  1793.209
 316  2011.409
 317  2245.513
 318  2320.482
 319  2203.311
 320  2414.796
 321  2711.475
 322  2912.352
 323  3015.401
 324  2952.021
 325  2917.718
 326  2761.137
 327  2498.598
 328  2151.41
 329  1721.212
 330  1587.96
 331  1613.213
 332  1717.818
 333  1833.104
 334  2040.481
 335  2274.45
 336  2448.484
 337  2556.361
 338  2784.462
 339  2921.073
 340  3042.278
 341  2954.736
 342  2764.952
 343  2606.893
 344  2580.342
 345  2394.424
 346  2108.18
 347  1857.527
 348  1899.681
 349  2006.347
 350  2090.441
 351  2307.285
 352  2435.686
 353  2642.351
 354  2742.115
 355  2901.897
 356  2838.603
 357  2688.375
 358  2522.721
 359  2450.829
 360  2234.967
 361  2018.629
 362  1827.256
 363  1672.521
 364  1680.023
 365  1748.978
 366  1767.125
 367  1899.093
 368  2017.259
 369  2238.827
 370  2584.107
 371  2774.833
 372  3060.61
 373  3028.399
 374  3042.309
 375  2903.563
 376  2766.706
 377  2465.146
 378  2093.075
 379  1897.06
 380  1784.973
 381  1700.282
 382  1749.856
 383  1798.241
 384  1934.063
 385  2118.345
 386  2364.116
 387  2587.362
 388  2690.794
 389  2779.364
 390  2924.491
 391  2754.808
 392  2504.303
 393  2125.155
 394  1904.367
 395  1599.966
 396  1503.223
 397  1374.968
 398  1406.947
 399  1456.635
 400  1686.718
 401  1997.995
 402  2326.715
 403  2691.237
 404  2970.13
 405  3101.614
 406  2989.427
 407  2762.894
 408  2541.872
 409  2484.793
 410  2146.982
 411  1840.338
 412  1487.49
 413  1348.694
 414  1418.999
 415  1541.971
 416  1816.24
 417  1929.228
 418  2373.082
 419  2627.56
 420  2809.525
 421  2697.935
 422  2701.093
 423  2634.043
 424  2494.653
 425  2209.913
 426  2025.604
 427  1747.836
 428  1511.857
 429  1370.115
 430  1383.657
 431  1458.521
 432  1645.655
 433  1849.203
 434  2050.686
 435  2152.828
 436  2395.552
 437  2570.276
 438  2766.417
 439  2784.378
 440  2935.399
 441  2712.564
 442  2553.4
 443  2245.167
 444  2007.809
 445  1758.935
 446  1783.388
 447  1756.337
 448  1803.44
 449  1726.842
 450  1965.832
 451  2086.344
 452  2283.009
 453  2426.422
 454  2692.616
 455  2867.756
 456  2841.567
 457  2625.635
 458  2312.678
 459  1966.068
 460  1815.781
 461  1726.384
 462  1628.908
 463  1530.605
 464  1629.693
 465  1574.357
 466  1506.971
 467  1510.931
 468  2032.503
 469  2399.334
 470  2716.532
 471  2908.369
 472  2922.623
 473  2931.082
 474  2798.59
 475  2644.951
 476  2456.276
 477  2256.984
 478  2014.83
 479  1710.979
 480  1462.957
 481  1663.024
 482  1849.86
 483  2045.046
 484  2050.214
 485  2248.553
 486  2504.227
 487  2760.854
 488  2822.542
 489  2736.043
 490  2469.419
 491  2250.859
 492  2155.325
 493  1936.729
 494  1624.717
 495  1332.776
 496  1333.378
 497  1432.506
 498  1406.381
 499  1623.993
 500  1869.806
 501  2069.457
 502  2241.562
 503  2507.872
 504  2764.269
 505  2970.568
 506  2910.232
 507  2870.933
 508  2461.216
 509  2252.034
 510  2044.323
 511  1964.104
 512  1704.146
 513  1694.586
 514  1973.977
 515  2152.448
 516  2132.038
 517  2225.953
 518  2408.112
 519  2559.183
 520  2665.965
 521  2740.373
 522  2793.13
 523  2640.154
 524  2431.568
 525  2082.824
 526  1671.223
 527  1560.131
 528  1550.379
 529  1634.765
 530  1525.157
 531  1531.107
 532  1686.66
 533  1865.353
 534  2046.405
 535  2237.614
 536  2442.184
 537  2675.179
 538  2887.346
 539  2867.973
 540  2622.801
 541  2353.899
 542  2287.157
 543  1976.388
 544  1839.385
 545  1729.925
 546  1740.36
 547  1656.812
 548  1666.806
 549  1851.003
 550  1969.834
 551  2054.225
 552  2222.482
 553  2322.354
 554  2376.124
 555  2409.691
 556  2317.262
 557  2204.989
 558  1794.392
 559  1742.158
 560  1482.248
 561  1328.783
 562  1209.609
 563  1113.868
 564  1299.424
 565  1359.476
 566  1643.479
 567  1945.144
 568  2408.355
 569  2647.3
 570  2883.375
 571  2840.065
 572  2842.332
 573  2675.816
 574  2480.126
 575  2163.369
 576  1829.238
 577  1565.481
 578  1447.495
 579  1481.857
 580  1539.458
 581  1682.533
 582  1695.648
 583  1929.635
 584  1975.643
 585  2204.735
 586  2453.803
 587  2579.078
 588  2639.969
 589  2497.555
 590  2215.107
 591  1953.793
 592  1685.123
 593  1423.465
 594  1281.672
 595  1239.637
 596  1301.465
 597  1229.067
 598  1491.609
 599  1714.923
 600  1910.122
 601  2163.377
 602  2575.732
 603  3079.479
 604  3161.382
 605  3157.314
 606  3129.64
 607  3042.131
 608  2748.412
 609  2508.008
 610  2327.053
 611  2215.844
 612  2059.877
 613  2039.575
 614  1981.249
 615  1833.644
 616  1849.186
 617  1842.309
 618  2093.853
 619  2407.069
 620  2610.331
 621  2552.527
 622  2393.202
 623  2361.122
 624  2118.274
 625  1667.005
 626  1300.078
 627  1291.986
 628  1324.135
 629  1459.237
 630  1431.827
 631  1489.899
 632  1591.568
 633  1815.798
 634  2129.86
 635  2328.294
 636  2461.449
 637  2496.742
 638  2555.397
 639  2485.353
 640  2405.247
 641  2121.476
 642  1953.119
 643  1761.608
 644  1723.049
 645  1608.625
 646  1660.467
 647  1784.128
 648  1802.279
 649  1791.728
 650  1962.453
 651  2264.088
 652  2526.89
 653  2644.964
 654  2617.063
 655  2475.397
 656  2266.243
 657  2073.888
 658  1772.027
 659  1424.908
 660  1189.567
 661  1041.253
 662  1028.386
 663  1160.901
 664  1408.289
 665  1524.875
 666  1832.889
 667  2061.617
 668  2281.836
 669  2341.347
 670  2506.302
 671  2602.712
 672  2483.317
 673  2306.081
 674  2105.623
 675  1940.766
 676  1630.469
 677  1617.977
 678  1475.018
 679  1577.918
 680  1651.506
 681  1996.53
 682  2087.012
 683  2101.833
 684  2092.969
 685  2278.873
 686  2342.256
 687  2488.742
 688  2446.232
 689  2227.037
 690  1856.396
 691  1537.884
 692  1380.578
 693  1090.038
 694  1091.65
 695  1074.887
 696  1318.533
 697  1372.819
 698  1541.369
 699  1689.412
 700  1941.66
 701  2208.389
 702  2483.304
 703  2622.479
 704  2511.052
 705  2493.43
 706  2417.18
 707  2282.821
 708  1947.675
 709  1666.976
 710  1499.458
 711  1372.946
 712  1480.06
 713  1672.921
 714  1726.232
 715  1836.001
 716  2030.151
 717  2225
 718  2437.455
 719  2559.024
 720  2706.138
 721  2482.766
 722  2175.204
 723  1800.912
 724  1550.289
 725  1362.448
 726  1195.981
 727  1135.258
 728  987.2422
 729  1141.56
 730  1388.238
 731  1780.109
 732  1875.086
 733  2079.481
 734  2303.611
 735  2506.279
 736  2656.541
 737  2594.75
 738  2498.967
 739  2217.959
 740  2064.973
 741  1924.391
 742  1699.278
 743  1397.365
 744  1306.714
 745  1204.543
 746  1266.56
 747  1438.312
 748  1735.753
 749  1890.425
 750  1961
 751  2257.741
 752  2335.462
 753  2463.554
 754  2378.485
 755  2280.842
 756  1912.851
 757  1546.935
 758  1367.394
 759  1334.454
 760  1164.596
 761  1076.387
 762  1196.547
 763  1445.637
 764  1614.661
 765  1637.789
 766  1931.753
 767  2240.021
 768  2617.836
 769  2799.865
 770  2821.279
 771  2775.829
 772  2503.499
 773  2283.807
 774  1935.573
 775  1641.378
 776  1294.949
 777  1158.522
 778  1142.701
 779  1339.626
 780  1536.589
 781  1765.148
 782  1806.271
 783  2042.364
 784  2212.017
 785  2297.167
 786  2381.165
 787  2436.635
 788  2334.823
 789  2120.856
 790  1958.833
 791  1679.947
 792  1451.543
 793  1286.941
 794  1437.116
 795  1410.172
 796  1495.338
 797  1632.44
 798  1842.921
 799  1901.465
 800  2148.388
 801  2408.906
 802  2631.532
 803  2601.08
 804  2674.35
 805  2662.896
 806  2475.055
 807  2204.622
 808  1947.291
 809  1750.964
 810  1576.948
 811  1684.228
 812  1898.602
 813  1823.636
 814  1873.103
 815  1937.814
 816  2252.021
 817  2273.21
 818  2425.357
 819  2400.116
 820  2384.088
 821  2176.133
 822  1963.724
 823  1682.554
 824  1478.129
 825  1364.16
 826  1345.998
 827  1430.305
 828  1455.108
 829  1521.608
 830  1639.996
 831  1896.267
 832  2154.302
 833  2301.352
 834  2324.406
 835  2306.565
 836  2414.855
 837  2327.331
 838  2187.427
 839  2053.765
 840  2001.976
 841  1693.548
 842  1547.309
 843  1460.373
 844  1597.857
 845  1694.763
 846  1934.468
 847  1992.341
 848  2055.981
 849  2145.834
 850  2378.388
 851  2542.259
 852  2583.844
 853  2441.356
 854  2104.772
 855  1810
 856  1583.792
 857  1502.915
 858  1176.762
 859  1066.361
 860  1159.183
 861  1456.345
 862  1495.52
 863  1654.229
 864  1836.468
 865  2135.665
 866  2377.302
 867  2689.562
 868  2968.313
 869  2844.019
 870  2720.317
 871  2523.89
 872  2258.211
 873  1958.381
 874  1805.032
 875  1726.127
 876  1566.013
 877  1640.081
 878  1766.173
 879  1950.751
 880  2045.71
 881  2260.15
 882  2484.731
 883  2591.941
 884  2667.202
 885  2631.317
 886  2583.156
 887  2304.083
 888  1981.151
 889  1745.42
 890  1552.558
 891  1304.499
 892  1194.082
 893  1289.304
 894  1469.292
 895  1603.522
 896  1829.408
 897  2162.746
 898  2285.702
 899  2462.939
 900  2626.811
 901  2800.073
 902  2766.214
 903  2716.649
 904  2593.599
 905  2328.708
 906  2009.564
 907  1790.263
 908  1610.225
 909  1505.753
 910  1589.547
 911  1752.761
 912  1657.048
 913  1732.075
 914  1939.517
 915  2187.887
 916  2367.001
 917  2520.201
 918  2690.012
 919  2579.752
 920  2422.74
 921  2209.539
 922  1877.898
 923  1560.643
 924  1471.753
 925  1414.199
 926  1396.089
 927  1435.571
 928  1538.701
 929  1545.732
 930  1654.572
 931  1979.203
 932  2297.339
 933  2630.314
 934  2755.658
 935  2885.325
 936  2740.449
 937  2505.362
 938  2373.594
 939  2084.773
 940  1900.153
 941  1700.869
 942  1676.054
 943  1622.852
 944  1682.91
 945  1763.085
 946  1892.729
 947  1956.035
 948  2236.078
 949  2407.154
 950  2566.508
 951  2705.843
 952  2569.178
 953  2310.841
 954  1980.774
 955  1849.91
 956  1650.983
 957  1430.993
 958  1398.031
 959  1321.318
 960  1361.96
 961  1287.916
 962  1375.027
 963  1438.003
 964  1774.748
 965  2054.154
 966  2374.389
 967  2552.428
 968  2767.174
 969  2812.448
 970  2686.207
 971  2468.282
 972  2238.594
 973  1934.195
 974  1632.541
 975  1484.923
 976  1505.195
 977  1477.631
 978  1685.935
 979  1866.96
 980  2032.033
 981  1992.425
 982  1997.641
 983  2192.148
 984  2284.281
 985  2393.116
 986  2255.065
 987  2201.546
 988  1907.582
 989  1579.697
 990  1485.857
 991  1371.861
 992  1333.884
 993  1182.282
 994  1222.984
 995  1284.869
 996  1384.61
 997  1706.73
 998  2238.406
 999  2591.032
1000  2631.338
1001  2564.723
1002  2356.343
1003  2321.86
1004  2227.861
1005  2142.758
1006  1705.777
1007  1460.539
1008  1326.925
1009  1415.467
1010  1488.687
1011  1635.595
1012  1732.85
1013  1738.568
1014  1855.8
1015  1995.944
1016  2370.107
1017  2523.644
1018  2620.501
1019  2451.962
1020  2058.498
1021  1601.556
1022  1435.17
1023  1282.85
