# Input file       =  1204275953.111562_cleaned.dat
# Candidate        =  PSR_0332+5434
# Telescope        =  AR
# Epoch_topo       =  58182.379306846786
# Epoch_bary       =  N/A
# T_sample         =  0.002
# Data Folded      =  7143424
# Data Avg         =  0.201339132510288
# Data StdDev      =  4.03604084908196 
# Profile Bins     =  1024
# Profile Avg      =  1404.48672125696 
# Profile StdDev   =  337.100028375194 
# Reduced chi-sqr  =  1.359
# Prob(Noise)      <  1.24e-13   (~7.3 sigma)
# P_topo (ms)      =  714.57994360458   +/- 3.48e-05
# P'_topo (s/s)    =  -0                +/- 1.88e-11
# P''_topo (s/s^2) =  0                 +/- 8.55e-15
# P_bary (ms)      =  N/A
# P'_bary (s/s)    =  N/A
# P''_bary (s/s^2) =  N/A
# P_orb (s)        =  N/A
# asin(i)/c (s)    =  N/A
# eccentricity     =  N/A
# w (rad)          =  N/A
# T_peri           =  N/A
######################################################
   0  1406.579
   1  1455.821
   2  1509.498
   3  1514.205
   4  1573.836
   5  1628.129
   6  1656.565
   7  1702.418
   8  1595.078
   9  1474.976
  10  1377.694
  11  1298.378
  12  1236.422
  13  1209.172
  14  1202.01
  15  1266.879
  16  1248.655
  17  1302.461
  18  1299.235
  19  1362.076
  20  1506.713
  21  1549.379
  22  1625.173
  23  1609.274
  24  1452.726
  25  1385.386
  26  1321.98
  27  1391.678
  28  1422.584
  29  1415.27
  30  1388.409
  31  1375.45
  32  1398.831
  33  1373.028
  34  1324.255
  35  1570.154
  36  1686.133
  37  1851.163
  38  1853.553
  39  1811.036
  40  1798.764
  41  1792.797
  42  1721.948
  43  1673.937
  44  1582.495
  45  1657.368
  46  1590.111
  47  1519.278
  48  1473.734
  49  1390.825
  50  1405.483
  51  1380.356
  52  1447.157
  53  1491.954
  54  1485.055
  55  1563.875
  56  1473.196
  57  1418.828
  58  1374.887
  59  1358.566
  60  1438.159
  61  1338.158
  62  1379.941
  63  1399.564
  64  1396.566
  65  1521.24
  66  1613.672
  67  1723.098
  68  1651.007
  69  1524.633
  70  1580.248
  71  1653.434
  72  1766.946
  73  1658.639
  74  1503.901
  75  1383.337
  76  1350.519
  77  1338.958
  78  1346.662
  79  1299.869
  80  1320.155
  81  1299.261
  82  1392.859
  83  1344.016
  84  1377.08
  85  1511.211
  86  1564.892
  87  1675.782
  88  1636.073
  89  1483.189
  90  1387.9
  91  1085.153
  92  1043.576
  93  1051.658
  94  1229.45
  95  1382.506
  96  1330.428
  97  1529.951
  98  1580.254
  99  1642.355
 100  1577.218
 101  1608.881
 102  1822.656
 103  1912.129
 104  1778.305
 105  1742.918
 106  1536.459
 107  1512.336
 108  1468.565
 109  1404.383
 110  1364.268
 111  1262.206
 112  1310.967
 113  1343.519
 114  1440.176
 115  1428.408
 116  1342.856
 117  1419.753
 118  1464.919
 119  1496.986
 120  1555.345
 121  1608.021
 122  1549.009
 123  1382.419
 124  1187.906
 125  1150.591
 126  1085.562
 127  1241.772
 128  1184.037
 129  994.646
 130  944.374
 131  1123.121
 132  1384.932
 133  1447.921
 134  1500.678
 135  1767.277
 136  1851.142
 137  1899.893
 138  1866.885
 139  1776.167
 140  1695.882
 141  1598.109
 142  1454.015
 143  1339.233
 144  1199.002
 145  1210.777
 146  1238.806
 147  1359.682
 148  1435.981
 149  1436.751
 150  1458.883
 151  1453.866
 152  1525.8
 153  1501.109
 154  1385.626
 155  1362.125
 156  1291.786
 157  1339.209
 158  1352.335
 159  1328.082
 160  1188.477
 161  1019.2
 162  1056.163
 163  1146.674
 164  1176.197
 165  1196.895
 166  1281.468
 167  1536.453
 168  1719.964
 169  1633.688
 170  1641.344
 171  1662.579
 172  1711.3
 173  1813.283
 174  1743.406
 175  1555.051
 176  1321.057
 177  1277.89
 178  1407.09
 179  1383.516
 180  1308.44
 181  1163.545
 182  1012.786
 183  1048.788
 184  1148.542
 185  1298.641
 186  1334.794
 187  1484.561
 188  1596.87
 189  1547.965
 190  1389.851
 191  1294.5
 192  1281.266
 193  1218.837
 194  1129.774
 195  1157.898
 196  1199.635
 197  1144.128
 198  1204.017
 199  1192.113
 200  1278.31
 201  1305.264
 202  1434.706
 203  1490.749
 204  1424.256
 205  1426.676
 206  1564.521
 207  1550.924
 208  1583.482
 209  1463.172
 210  1466.421
 211  1444.474
 212  1402.598
 213  1423.214
 214  1345.937
 215  1384.072
 216  1409.396
 217  1431.584
 218  1473.638
 219  1512.742
 220  1555.985
 221  1435.452
 222  1260.169
 223  1229.501
 224  1227.772
 225  1364.247
 226  1374.544
 227  1387.075
 228  1300.328
 229  1228.173
 230  1331.792
 231  1305.839
 232  1430.11
 233  1564.359
 234  1676.75
 235  1701.097
 236  1638.407
 237  1656.412
 238  1647.662
 239  1527.074
 240  1499.246
 241  1551.621
 242  1500.83
 243  1438.908
 244  1361.088
 245  1366.76
 246  1247.777
 247  1213.678
 248  1313.943
 249  1478.416
 250  1468.953
 251  1487.302
 252  1471.059
 253  1449.648
 254  1246.159
 255  1236.717
 256  1302.489
 257  1240.841
 258  1197.511
 259  1119.006
 260  1176.784
 261  1119.013
 262  1147.076
 263  1222.348
 264  1329.867
 265  1594.386
 266  1810.784
 267  1908.642
 268  1887.998
 269  1730.144
 270  1581.123
 271  1449.04
 272  1447.062
 273  1491.888
 274  1379.288
 275  1386.338
 276  1394.693
 277  1373.985
 278  1420.377
 279  1425.257
 280  1541.224
 281  1476.415
 282  1444.823
 283  1506.266
 284  1537.742
 285  1552.039
 286  1629.105
 287  1528.507
 288  1433.344
 289  1206.767
 290  1260.796
 291  1222.698
 292  1140.98
 293  1135.602
 294  1169.67
 295  1268.067
 296  1218.644
 297  1252.793
 298  1397.875
 299  1558.798
 300  1713.246
 301  1762.659
 302  1728.333
 303  1639.756
 304  1571.325
 305  1531.712
 306  1459.254
 307  1352.62
 308  1306.533
 309  1346.613
 310  1438.969
 311  1378.209
 312  1405.181
 313  1476.149
 314  1485.977
 315  1378.615
 316  1329.181
 317  1502.288
 318  1646.165
 319  1638.704
 320  1571.669
 321  1486.585
 322  1393.002
 323  1306.773
 324  1217.999
 325  1272.556
 326  1209.225
 327  1148.654
 328  1162.549
 329  1193.025
 330  1260.695
 331  1266.963
 332  1410.748
 333  1545.137
 334  1608.48
 335  1732.394
 336  1810.099
 337  1776.259
 338  1833.969
 339  1870.953
 340  1788.683
 341  1602.938
 342  1322.044
 343  1169.84
 344  1081.369
 345  1140.749
 346  1192.889
 347  1197.607
 348  1300.195
 349  1307.743
 350  1392.016
 351  1462.597
 352  1535.676
 353  1614.062
 354  1528.567
 355  1560.733
 356  1471.12
 357  1352.481
 358  1354.777
 359  1261.27
 360  1323.908
 361  1198.769
 362  1082.787
 363  1099.484
 364  1126.433
 365  1406.698
 366  1524.723
 367  1555.624
 368  1640.273
 369  1679.488
 370  1738.451
 371  1583.952
 372  1427.889
 373  1461.919
 374  1409.067
 375  1366.085
 376  1318.52
 377  1279.884
 378  1252.272
 379  1229.314
 380  1315.785
 381  1262.238
 382  1101.123
 383  1153.913
 384  1275.445
 385  1412.637
 386  1464.604
 387  1485.607
 388  1479.831
 389  1246.849
 390  1133.319
 391  1145.708
 392  1172.544
 393  1225.084
 394  1182.868
 395  1218.04
 396  1400.687
 397  1502.271
 398  1604.5
 399  1382.321
 400  1481.145
 401  1542.68
 402  1629.17
 403  1583.779
 404  1580.597
 405  1635.257
 406  1658.729
 407  1608.3
 408  1466.158
 409  1365.354
 410  1305.5
 411  1267.996
 412  1233.584
 413  1210.133
 414  1242.245
 415  1392.287
 416  1584.851
 417  1588.173
 418  1575.227
 419  1348.552
 420  1274.105
 421  1152.959
 422  1080.276
 423  1162.562
 424  1084.043
 425  1130.085
 426  1138.774
 427  1248.465
 428  1406.645
 429  1388.741
 430  1579.873
 431  1632.256
 432  1685.226
 433  1663.034
 434  1583.926
 435  1576.529
 436  1504.788
 437  1449.747
 438  1425.162
 439  1315.14
 440  1314.697
 441  1263.913
 442  1257.675
 443  1231.177
 444  1264.626
 445  1369.037
 446  1420.052
 447  1401.989
 448  1493.782
 449  1476.912
 450  1538.006
 451  1477.291
 452  1361.898
 453  1156.649
 454  1070.866
 455  1141.074
 456  1228.274
 457  1114.179
 458  1142.783
 459  1096.022
 460  1255.377
 461  1295.228
 462  1355.747
 463  1443.963
 464  1535.512
 465  1693.815
 466  1724.059
 467  1741.491
 468  1674.681
 469  1528.13
 470  1319.248
 471  1395.421
 472  1358.302
 473  1375.866
 474  1352.457
 475  1321.019
 476  1286.519
 477  1223.016
 478  1417.17
 479  1457.731
 480  1422.656
 481  1436.964
 482  1552.583
 483  1670.372
 484  1600.33
 485  1626.852
 486  1627.835
 487  1488.387
 488  1290.924
 489  1159.016
 490  1001.32
 491  1012.001
 492  1088.465
 493  1317.737
 494  1109.748
 495  1008.285
 496  1168.531
 497  1289.468
 498  1503.061
 499  1521.116
 500  1741.551
 501  1774.849
 502  1700.183
 503  1703.139
 504  1712.832
 505  1629.289
 506  1673.526
 507  1625.47
 508  1514.422
 509  1247.951
 510  1067.297
 511  1057.893
 512  1044.811
 513  1294.512
 514  1267.845
 515  1335.458
 516  1528.536
 517  1805.345
 518  1874.713
 519  1649.955
 520  1565.784
 521  1625.636
 522  1563.496
 523  1627.463
 524  1419.755
 525  1263.431
 526  1173.345
 527  1219.729
 528  1404.192
 529  1323.957
 530  1385.027
 531  1511.875
 532  1633.121
 533  1717.729
 534  1772.423
 535  1899.255
 536  1910.178
 537  1700.454
 538  1638.513
 539  1643.619
 540  1510.117
 541  1480.366
 542  1404.63
 543  1433.133
 544  1316.683
 545  1185.472
 546  1295.991
 547  1354.328
 548  1358.58
 549  1362.846
 550  1356.597
 551  1455.617
 552  1390.264
 553  1433.439
 554  1414.799
 555  1339.974
 556  1317.149
 557  1253.851
 558  1274.203
 559  1261.399
 560  1283.637
 561  1238.055
 562  1120.119
 563  1214.296
 564  1426.548
 565  1450.987
 566  1511.385
 567  1571.546
 568  1694.751
 569  1620.635
 570  1501.235
 571  1612.474
 572  1658.102
 573  1628.589
 574  1465.457
 575  1385.928
 576  1359.444
 577  1347.248
 578  1475.811
 579  1458.94
 580  1556.302
 581  1465.933
 582  1508.514
 583  1532.544
 584  1589.376
 585  1456.418
 586  1302.291
 587  1209.169
 588  1318.103
 589  1387.962
 590  1345.529
 591  1427.606
 592  1325.338
 593  1418.511
 594  1379.251
 595  1514.151
 596  1638.917
 597  1756.034
 598  1913.567
 599  1896.271
 600  1888.654
 601  1858.97
 602  1829.059
 603  1894.684
 604  1966.257
 605  1981.186
 606  2050.299
 607  2081.225
 608  2241.785
 609  2275.533
 610  2243.562
 611  2164.202
 612  2071.396
 613  2002.41
 614  1907.808
 615  1821.104
 616  1766.933
 617  1500.515
 618  1266.039
 619  1139.365
 620  1022.225
 621  1019.083
 622  1057.183
 623  1228.627
 624  1238.239
 625  1248.856
 626  1332.725
 627  1424.32
 628  1448.949
 629  1466.02
 630  1649.29
 631  1763.27
 632  1702.438
 633  1727.025
 634  1771.523
 635  1751.552
 636  1726.227
 637  1696.629
 638  1596.541
 639  1422.058
 640  1353.616
 641  1348.202
 642  1297.821
 643  1301.542
 644  1357.346
 645  1376.77
 646  1519.141
 647  1599.147
 648  1790.622
 649  1736.781
 650  1622.142
 651  1493.905
 652  1365.672
 653  1302.085
 654  1262.179
 655  1092.976
 656  1106.574
 657  1057.357
 658  1156.994
 659  1192.217
 660  1186.929
 661  1379.691
 662  1354.369
 663  1562.307
 664  1702.596
 665  1839.726
 666  1881.044
 667  1743.643
 668  1713.456
 669  1747.013
 670  1594.597
 671  1484.072
 672  1226.1
 673  1099.609
 674  1039.184
 675  1048.732
 676  1167.778
 677  1072.295
 678  1099.959
 679  1158.382
 680  1233.632
 681  1402.462
 682  1509.042
 683  1598.144
 684  1608.856
 685  1359.871
 686  1333.75
 687  1159.97
 688  1076.979
 689  1125.49
 690  1008.491
 691  1086.316
 692  925.6756
 693  1014.982
 694  990.4218
 695  1044.694
 696  1297.291
 697  1452.354
 698  1677.459
 699  1712.134
 700  1729.901
 701  1725.149
 702  1703.919
 703  1552.463
 704  1340.739
 705  1116.589
 706  1114.587
 707  1114.772
 708  1157.659
 709  1148.732
 710  1218.433
 711  1293.652
 712  1295.768
 713  1288.203
 714  1309.5
 715  1322.329
 716  1335.058
 717  1278.048
 718  1344.5
 719  1295.376
 720  1157.042
 721  1157.693
 722  1170.59
 723  1217.227
 724  1200.536
 725  1241.619
 726  1237.703
 727  1186.441
 728  1282.437
 729  1462.173
 730  1501.147
 731  1484.27
 732  1351.862
 733  1246.366
 734  1218.349
 735  1297.943
 736  1468.181
 737  1474.582
 738  1382.099
 739  1267.153
 740  1154.769
 741  1156.576
 742  1190.736
 743  1192.708
 744  1214.552
 745  1170.876
 746  1247.675
 747  1241.712
 748  1306.716
 749  1234.043
 750  1176.433
 751  1191.283
 752  1162.286
 753  1022.415
 754  1028.169
 755  1058.707
 756  1230.842
 757  1184.074
 758  1234.065
 759  1186.792
 760  1253.123
 761  1298.95
 762  1306.141
 763  1383.531
 764  1559.654
 765  1660.224
 766  1584.224
 767  1446.291
 768  1404.937
 769  1474.763
 770  1338.091
 771  1284.869
 772  1145.57
 773  1244.919
 774  1308.24
 775  1373.09
 776  1344.121
 777  1305.733
 778  1302.291
 779  1222.738
 780  1095.455
 781  1227.975
 782  1276.205
 783  1381.134
 784  1151.179
 785  1034.149
 786  1034.507
 787  1108.248
 788  1112.443
 789  1145.698
 790  1137.374
 791  1268.689
 792  1217.245
 793  1248.019
 794  1280.479
 795  1358.87
 796  1568.906
 797  1638.527
 798  1638.775
 799  1480.787
 800  1340.159
 801  1380.98
 802  1297.271
 803  1110.265
 804  1053.146
 805  1093.128
 806  1219.261
 807  1188.906
 808  1143.652
 809  1192.108
 810  1127.794
 811  1264.243
 812  1388.182
 813  1514.027
 814  1584.139
 815  1479.531
 816  1399.9
 817  1182.003
 818  1106.806
 819  1108.836
 820  970.0617
 821  913.1016
 822  804.0941
 823  856.395
 824  847.1482
 825  947.3043
 826  1192.45
 827  1273.535
 828  1381.399
 829  1542.826
 830  1664.902
 831  1722.834
 832  1655.681
 833  1539.842
 834  1454.415
 835  1326.45
 836  1304.187
 837  1280.749
 838  1163.744
 839  1141.311
 840  1037.425
 841  1007.812
 842  929.3671
 843  1061.129
 844  1233.335
 845  1301.418
 846  1295.087
 847  1264.649
 848  1196.425
 849  1305.062
 850  1150.838
 851  1096.873
 852  835.7323
 853  850.1568
 854  931.331
 855  997.3123
 856  1032.426
 857  1010.683
 858  1164.873
 859  1278.041
 860  1340.821
 861  1437.814
 862  1443.185
 863  1503.422
 864  1557.099
 865  1600.191
 866  1498.06
 867  1521.776
 868  1468.456
 869  1450.864
 870  1346.274
 871  1338.741
 872  1350.847
 873  1223.223
 874  1322.47
 875  1275.083
 876  1222.585
 877  1094.834
 878  1207.793
 879  1424.732
 880  1458.716
 881  1506.257
 882  1427.674
 883  1338.26
 884  1312.382
 885  1277.568
 886  1366.504
 887  1276.204
 888  1195.731
 889  1215.379
 890  1250.826
 891  1402.851
 892  1366.565
 893  1388.92
 894  1415.365
 895  1447.771
 896  1464.213
 897  1553.09
 898  1593.261
 899  1684.086
 900  1620.639
 901  1463.795
 902  1415.793
 903  1297.606
 904  1421.86
 905  1427.62
 906  1488.561
 907  1477.415
 908  1511.415
 909  1524.819
 910  1465.104
 911  1350.584
 912  1379.216
 913  1455.003
 914  1625.768
 915  1467.155
 916  1468.652
 917  1327.576
 918  1340.903
 919  1420.589
 920  1490.578
 921  1557.823
 922  1516.703
 923  1485.557
 924  1524.298
 925  1487.451
 926  1528.091
 927  1480.316
 928  1560.528
 929  1609.832
 930  1675.874
 931  1711.869
 932  1643.895
 933  1424.278
 934  1371.408
 935  1513.817
 936  1576.836
 937  1643.815
 938  1589.595
 939  1608.118
 940  1470.52
 941  1484.317
 942  1356.561
 943  1245.43
 944  1258.51
 945  1386.351
 946  1565.471
 947  1552.787
 948  1415.695
 949  1351.666
 950  1191.02
 951  1165.276
 952  1090.657
 953  1168.607
 954  1178.189
 955  1102.122
 956  1143.012
 957  1220.122
 958  1401.881
 959  1651.921
 960  1694.324
 961  1789.636
 962  1811.852
 963  1807.187
 964  1613.879
 965  1470.669
 966  1452.364
 967  1501.003
 968  1223.113
 969  1241.5
 970  1200.42
 971  1341.465
 972  1319.332
 973  1384.695
 974  1380.005
 975  1312.33
 976  1227.207
 977  1251.436
 978  1336.391
 979  1632.943
 980  1792.843
 981  1850.847
 982  1655.069
 983  1432.287
 984  1343.384
 985  1234.518
 986  1267.179
 987  1105.905
 988  1110.191
 989  1138.878
 990  1178.652
 991  1271.441
 992  1296.998
 993  1450.4
 994  1722.292
 995  1908.482
 996  1946.39
 997  1781.178
 998  1634.943
 999  1628.732
1000  1526.846
1001  1524.255
1002  1473.525
1003  1324.777
1004  1240.319
1005  1219.041
1006  1226.304
1007  1188.336
1008  1246.905
1009  1403.669
1010  1434.921
1011  1477.015
1012  1567.546
1013  1629.381
1014  1736.229
1015  1584.701
1016  1455.463
1017  1312.406
1018  1283.513
1019  1322.826
1020  1205.453
1021  1157.641
1022  1141.648
1023  1233.696
