# Input file       =  1204032628.106903_cleaned.dat
# Candidate        =  PSR_0332+5434
# Telescope        =  AR
# Epoch_topo       =  58179.563045218783
# Epoch_bary       =  N/A
# T_sample         =  0.002
# Data Folded      =  7340032
# Data Avg         =  0.0456113259293825
# Data StdDev      =  0.999973484115207
# Profile Bins     =  512
# Profile Avg      =  652.995133812358 
# Profile StdDev   =  119.729861549368 
# Reduced chi-sqr  =  1.303
# Prob(Noise)      <  4.39e-06   (~4.4 sigma)
# P_topo (ms)      =  714.580354205268  +/- 0.000448
# P'_topo (s/s)    =  -0                +/- 2.37e-10
# P''_topo (s/s^2) =  0                 +/- 1.04e-13
# P_bary (ms)      =  N/A
# P'_bary (s/s)    =  N/A
# P''_bary (s/s^2) =  N/A
# P_orb (s)        =  N/A
# asin(i)/c (s)    =  N/A
# eccentricity     =  N/A
# w (rad)          =  N/A
# T_peri           =  N/A
######################################################
   0  584.1942
   1  590.9523
   2  601.9878
   3  622.8654
   4  636.0504
   5  595.3431
   6  624.6934
   7  559.8586
   8  501.0328
   9  538.8463
  10  516.9092
  11  547.1459
  12  552.4095
  13  687.1554
  14  694.2882
  15  577.9418
  16  698.9165
  17  729.2281
  18  742.1542
  19  752.9428
  20  712.3354
  21  675.8278
  22  678.1834
  23  731.328
  24  741.0183
  25  761.4795
  26  767.1219
  27  745.2506
  28  772.694
  29  673.1459
  30  662.5898
  31  708.4968
  32  710.136
  33  611.8961
  34  689.5707
  35  713.1017
  36  724.6472
  37  720.825
  38  779.5836
  39  804.5782
  40  794.0596
  41  789.7054
  42  722.6254
  43  668.9578
  44  691.7881
  45  715.6182
  46  694.3092
  47  722.8942
  48  748.4703
  49  735.801
  50  722.9186
  51  682.5225
  52  734.0966
  53  791.2763
  54  780.0927
  55  747.3448
  56  791.3835
  57  748.1691
  58  750.7009
  59  758.6283
  60  621.9525
  61  698.1968
  62  741.5416
  63  739.8192
  64  744.8604
  65  752.3622
  66  713.7536
  67  676.5865
  68  691.606
  69  632.1773
  70  639.1161
  71  699.6934
  72  708.8525
  73  706.3022
  74  745.6761
  75  706.4136
  76  596.8179
  77  660.4832
  78  670.5228
  79  634.0108
  80  625.1403
  81  501.0164
  82  533.2046
  83  618.5512
  84  588.5875
  85  567.3444
  86  630.7515
  87  574.1347
  88  575.1922
  89  587.3447
  90  615.3796
  91  644.8243
  92  588.5228
  93  613.7714
  94  562.8733
  95  685.5662
  96  680.6934
  97  598.4678
  98  558.7335
  99  654.63
 100  627.1555
 101  660.6317
 102  667.6759
 103  712.8099
 104  724.9884
 105  685.5276
 106  606.7576
 107  657.8381
 108  617.1395
 109  600.9204
 110  638.54
 111  707.2411
 112  723.1201
 113  776.416
 114  753.7625
 115  739.9044
 116  787.6411
 117  804.1338
 118  766.4011
 119  678.8903
 120  777.5823
 121  784.6254
 122  789.9017
 123  703.8572
 124  631.5749
 125  670.4883
 126  678.601
 127  719.7898
 128  762.8318
 129  680.8283
 130  612.7676
 131  642.6043
 132  614.9687
 133  568.7058
 134  558.4429
 135  537.7083
 136  614.0771
 137  606.7633
 138  558.2226
 139  544.6844
 140  517.4924
 141  475.7432
 142  446.0919
 143  424.8674
 144  473.8324
 145  527.6263
 146  487.7697
 147  470.8477
 148  407.7946
 149  406.6297
 150  429.0481
 151  432.3122
 152  463.2408
 153  458.2221
 154  420.3028
 155  499.9661
 156  560.3813
 157  578.4532
 158  485.0897
 159  471.0078
 160  526.9603
 161  518.4936
 162  505.829
 163  516.0255
 164  559.952
 165  548.0095
 166  470.493
 167  595.4786
 168  675.0236
 169  629.2568
 170  672.9639
 171  748.7996
 172  729.8015
 173  664.0074
 174  642.1584
 175  707.4412
 176  611.7452
 177  545.816
 178  569.0546
 179  682.1736
 180  568.5151
 181  550.2346
 182  629.0015
 183  610.4276
 184  581.8582
 185  600.2711
 186  642.5691
 187  557.5767
 188  532.335
 189  594.3846
 190  600.1091
 191  607.9939
 192  622.5697
 193  610.8766
 194  599.4279
 195  654.3783
 196  619.9812
 197  607.4701
 198  548.5609
 199  583.3718
 200  628.8832
 201  570.1119
 202  617.6557
 203  651.7608
 204  622.2317
 205  668.8036
 206  652.0479
 207  738.1957
 208  739.0001
 209  682.9171
 210  705.0588
 211  678.3818
 212  677.2524
 213  635.3893
 214  627.1145
 215  613.7344
 216  541.3172
 217  536.2237
 218  566.5944
 219  482.1174
 220  553.7024
 221  597.2328
 222  569.3973
 223  523.209
 224  538.3859
 225  560.8365
 226  475.0633
 227  483.8062
 228  548.5234
 229  545.7623
 230  564.0933
 231  539.3192
 232  562.3027
 233  532.6412
 234  447.4174
 235  421.5137
 236  514.9891
 237  538.884
 238  507.7654
 239  546.2666
 240  596.5625
 241  563.9814
 242  554.6667
 243  554.1494
 244  589.0924
 245  596.8268
 246  561.0006
 247  602.1058
 248  557.6967
 249  532.0969
 250  583.7773
 251  518.4615
 252  619.8588
 253  705.0049
 254  664.4334
 255  637.6136
 256  603.2333
 257  609.9245
 258  611.6577
 259  666.2767
 260  673.8398
 261  665.6567
 262  658.4165
 263  690.8005
 264  621.3011
 265  599.9861
 266  669.2301
 267  716.1447
 268  733.8323
 269  671.8225
 270  620.9947
 271  627.5969
 272  625.9907
 273  647.7573
 274  619.5143
 275  618.4532
 276  630.2288
 277  636.3708
 278  690.3259
 279  705.3467
 280  681.8392
 281  718.0909
 282  720.6578
 283  658.4603
 284  636.1484
 285  695.2025
 286  645.6113
 287  602.7966
 288  599.4289
 289  634.3929
 290  599.338
 291  551.5956
 292  600.9225
 293  589.7764
 294  581.7446
 295  617.3775
 296  577.6818
 297  485.905
 298  547.4921
 299  548.402
 300  538.2173
 301  476.8737
 302  529.7544
 303  525.183
 304  506.1469
 305  581.3507
 306  654.4791
 307  633.3975
 308  654.1602
 309  697.02
 310  677.3051
 311  606.9152
 312  534.2775
 313  540.0441
 314  628.4207
 315  614.1888
 316  669.9355
 317  665.8589
 318  693.4078
 319  674.1458
 320  668.7028
 321  614.8927
 322  634.2631
 323  637.4191
 324  616.6287
 325  648.1039
 326  652.3712
 327  643.9097
 328  568.7318
 329  545.3499
 330  602.8904
 331  564.5411
 332  591.7228
 333  608.9785
 334  606.7208
 335  608.4566
 336  592.4469
 337  670.2255
 338  715.9275
 339  708.1135
 340  648.5084
 341  641.8275
 342  698.996
 343  677.7744
 344  673.7057
 345  648.8192
 346  624.6244
 347  617.1653
 348  555.3806
 349  604.1171
 350  569.1125
 351  609.4869
 352  535.5896
 353  434.2718
 354  501.5653
 355  529.212
 356  568.6949
 357  519.7122
 358  481.4884
 359  547.8472
 360  523.7526
 361  507.6978
 362  619.9097
 363  607.2311
 364  622.6221
 365  542.1094
 366  565.8727
 367  601.6179
 368  631.6804
 369  685.7533
 370  732.561
 371  684.1649
 372  651.7196
 373  620.0294
 374  586.0725
 375  660.1595
 376  727.6028
 377  772.2991
 378  715.3613
 379  737.2433
 380  773.1971
 381  813.006
 382  782.7508
 383  788.4542
 384  770.2757
 385  783.5129
 386  772.9915
 387  760.4097
 388  755.4877
 389  751.6039
 390  814.7006
 391  761.6428
 392  787.5587
 393  766.3391
 394  804.6072
 395  891.3422
 396  826.1665
 397  756.0414
 398  823.9932
 399  913.8649
 400  1023.495
 401  1124.929
 402  1084.41
 403  1045.874
 404  995.4633
 405  836.568
 406  791.601
 407  770.0116
 408  865.3139
 409  839.209
 410  791.7947
 411  788.3918
 412  737.4619
 413  810.5998
 414  834.8818
 415  827.3934
 416  798.6613
 417  816.2266
 418  777.5667
 419  783.5399
 420  748.6562
 421  803.6459
 422  792.6972
 423  778.2709
 424  741.2632
 425  658.1837
 426  728.5933
 427  742.1129
 428  722.2347
 429  792.3225
 430  819.173
 431  749.2617
 432  709.6293
 433  726.4421
 434  765.7707
 435  760.0516
 436  687.1918
 437  714.8742
 438  732.2884
 439  611.6512
 440  562.5164
 441  585.4095
 442  584.5027
 443  578.8134
 444  603.719
 445  649.1255
 446  662.597
 447  648.3196
 448  625.0438
 449  685.4194
 450  713.3083
 451  741.0814
 452  715.6274
 453  633.2294
 454  697.2592
 455  749.362
 456  692.5822
 457  640.8228
 458  633.4441
 459  665.5287
 460  652.1155
 461  587.0643
 462  605.7501
 463  666.7948
 464  674.2052
 465  600.7143
 466  574.3131
 467  675.295
 468  692.4915
 469  688.5868
 470  730.517
 471  716.8781
 472  654.6242
 473  647.501
 474  669.1127
 475  674.2616
 476  656.1768
 477  631.7536
 478  689.6492
 479  676.5252
 480  757.832
 481  766.7896
 482  714.7629
 483  759.7668
 484  762.6244
 485  736.6754
 486  723.7915
 487  682.5115
 488  713.8688
 489  743.2722
 490  730.4652
 491  766.0676
 492  774.038
 493  714.9326
 494  749.4055
 495  740.3425
 496  710.299
 497  797.2882
 498  762.4515
 499  723.3708
 500  700.699
 501  687.8529
 502  681.4429
 503  655.0422
 504  688.918
 505  650.1817
 506  604.6134
 507  605.8757
 508  687.5173
 509  707.2155
 510  594.1283
 511  555.9367
