# Input file       =  1204549517.10465_cleaned.dat
# Candidate        =  PSR_0332+5434
# Telescope        =  AR
# Epoch_topo       =  58185.545556766781
# Epoch_bary       =  N/A
# T_sample         =  0.002
# Data Folded      =  7340032
# Data Avg         =  0.335298785551068
# Data StdDev      =  6.25636156354562 
# Profile Bins     =  1024
# Profile Avg      =  2403.54006798085 
# Profile StdDev   =  529.688857895838 
# Reduced chi-sqr  =  1.224
# Prob(Noise)      <  1e-06   (~4.8 sigma)
# P_topo (ms)      =  714.579367240103  +/- 0.000254
# P'_topo (s/s)    =  -0                +/- 1.34e-10
# P''_topo (s/s^2) =  0                 +/- 5.91e-14
# P_bary (ms)      =  N/A
# P'_bary (s/s)    =  N/A
# P''_bary (s/s^2) =  N/A
# P_orb (s)        =  N/A
# asin(i)/c (s)    =  N/A
# eccentricity     =  N/A
# w (rad)          =  N/A
# T_peri           =  N/A
######################################################
   0  3030.259
   1  3085.063
   2  2942.809
   3  2808.264
   4  2690.601
   5  2817.181
   6  2826.456
   7  2773.812
   8  2797.671
   9  2921.904
  10  3072.314
  11  3054.273
  12  3043.478
  13  3030.241
  14  3066.077
  15  2955.758
  16  2932.608
  17  2931.795
  18  2876.499
  19  2958.895
  20  2848.367
  21  2758.596
  22  2726.298
  23  2779.319
  24  2984.566
  25  3000.211
  26  2958.787
  27  2877.193
  28  2922.597
  29  2729.167
  30  2642.167
  31  2557.767
  32  2539.863
  33  2535.446
  34  2610.326
  35  2556.592
  36  2399.388
  37  2350.2
  38  2335.325
  39  2221.599
  40  2225.321
  41  2293.835
  42  2363.501
  43  2329.557
  44  2315.719
  45  2277.417
  46  2388.189
  47  2503.403
  48  2550.177
  49  2334.796
  50  2226.426
  51  2004.345
  52  1950.236
  53  1936.087
  54  2119.485
  55  2361.702
  56  2332.398
  57  2353.182
  58  2400.276
  59  2207.645
  60  1966.365
  61  1815.614
  62  2013.082
  63  2115.437
  64  2224.736
  65  2195.815
  66  2230.625
  67  2239.613
  68  2280.705
  69  2279.857
  70  2315.867
  71  2165.371
  72  1962.491
  73  2017.229
  74  2067.132
  75  2206.31
  76  2141.972
  77  2105.288
  78  2107.445
  79  2189.386
  80  2235.183
  81  2131.758
  82  2249.066
  83  2342.177
  84  2389.779
  85  2361.164
  86  2197.851
  87  2140.734
  88  2222.852
  89  2339.278
  90  2394.718
  91  2445.919
  92  2424.389
  93  2367.543
  94  2375.262
  95  2412.957
  96  2397.387
  97  2402.917
  98  2405.775
  99  2416.194
 100  2375.367
 101  2433.584
 102  2323.978
 103  2422.573
 104  2412.167
 105  2440.865
 106  2523.118
 107  2502.303
 108  2394.451
 109  2259.672
 110  2252.271
 111  2234.916
 112  2143.823
 113  2123.703
 114  1864.047
 115  1903.422
 116  1870.228
 117  2009.672
 118  2135.972
 119  2172.622
 120  2322.493
 121  2392.481
 122  2334.323
 123  2319.668
 124  2207.084
 125  2231.91
 126  2158.179
 127  2227.546
 128  2206.361
 129  1983.553
 130  1932.119
 131  1983.032
 132  1986.119
 133  2067.167
 134  2135.031
 135  2243.669
 136  2170.219
 137  2237.082
 138  2174.186
 139  2020.903
 140  1921.353
 141  2088.874
 142  2263.242
 143  2211.018
 144  2211.336
 145  2275.697
 146  2323.021
 147  2274.982
 148  2284.336
 149  2479.444
 150  2508.984
 151  2474.201
 152  2585.81
 153  2505.583
 154  2525.769
 155  2463.795
 156  2538.582
 157  2586.636
 158  2567.484
 159  2346.023
 160  2396.41
 161  2457.411
 162  2605.304
 163  2670.762
 164  2613.044
 165  2608.916
 166  2660.659
 167  2561.677
 168  2431.501
 169  2345.699
 170  2480.267
 171  2571.479
 172  2321.822
 173  2322.984
 174  2349.898
 175  2416.632
 176  2499.452
 177  2479.622
 178  2511.906
 179  2339.949
 180  2246.15
 181  2216.513
 182  2164.094
 183  2083.344
 184  2109.509
 185  2107.644
 186  2093.088
 187  2035.965
 188  2031.214
 189  2016.927
 190  1938.094
 191  2069.449
 192  2035.311
 193  1994.247
 194  1824.884
 195  1852.918
 196  1881.145
 197  1842.234
 198  1833.995
 199  1728.72
 200  1731.082
 201  1671.144
 202  1627.081
 203  1636.735
 204  1548.471
 205  1661.318
 206  1913.473
 207  1961.254
 208  1848.729
 209  1779.829
 210  1875.61
 211  1921.056
 212  1878.227
 213  1935.319
 214  2004.412
 215  2016.31
 216  1933.313
 217  1979.085
 218  2010.024
 219  2139.885
 220  2149.507
 221  2128.203
 222  2034.869
 223  2064.314
 224  2189.747
 225  2313.29
 226  2272.605
 227  2336.649
 228  2376.115
 229  2303.561
 230  2353.051
 231  2496.368
 232  2428.323
 233  2354.179
 234  2269.392
 235  2314.397
 236  2232.696
 237  2186.557
 238  2191.495
 239  2362.365
 240  2438.106
 241  2448.814
 242  2419.126
 243  2467.564
 244  2416.163
 245  2369.509
 246  2391.441
 247  2574.841
 248  2656.743
 249  2758.003
 250  2638.537
 251  2419.23
 252  2334.733
 253  2255.834
 254  2263.115
 255  2333.593
 256  2406.421
 257  2288.932
 258  2202.054
 259  2338.082
 260  2410.827
 261  2510.362
 262  2457.321
 263  2590.417
 264  2577.42
 265  2544.208
 266  2416.041
 267  2319.746
 268  2171.479
 269  2085.257
 270  2211.738
 271  2285.375
 272  2388.288
 273  2502.158
 274  2569.563
 275  2466.059
 276  2432.058
 277  2616.371
 278  2516.814
 279  2508.524
 280  2331.943
 281  2320.187
 282  2256.638
 283  2298.576
 284  2341.07
 285  2347.494
 286  2355.733
 287  2409.21
 288  2611.5
 289  2666.928
 290  2772.03
 291  2841.296
 292  2916.725
 293  2828.685
 294  2678.894
 295  2619.467
 296  2620.542
 297  2863.812
 298  3088.738
 299  3316.366
 300  3322.89
 301  3040.583
 302  2700.137
 303  2592.937
 304  2604.429
 305  2683.588
 306  2689.547
 307  2685.065
 308  2750.472
 309  2963.311
 310  3042.902
 311  2954.194
 312  2909.513
 313  3027.975
 314  2947.056
 315  2779.156
 316  2686.352
 317  2600.994
 318  2636.973
 319  2534.482
 320  2553.077
 321  2456.004
 322  2492.49
 323  2539.898
 324  2533.825
 325  2507.034
 326  2461.858
 327  2674.765
 328  2752.572
 329  2503.373
 330  2365.621
 331  2281.805
 332  2276.387
 333  2168.924
 334  2194.226
 335  2144.839
 336  1977.097
 337  1946.58
 338  2076.787
 339  2233
 340  2221.846
 341  2256.733
 342  2323.488
 343  2291.265
 344  2244.035
 345  2242.126
 346  2166.664
 347  2104.653
 348  2101.845
 349  2382.538
 350  2375.873
 351  2365.759
 352  2216.671
 353  2384.862
 354  2383.155
 355  2425.427
 356  2373.371
 357  2340.882
 358  2410.018
 359  2308.748
 360  2200.459
 361  2184.32
 362  2178.7
 363  2260.098
 364  2315.061
 365  2376.973
 366  2372.524
 367  2362.97
 368  2255.943
 369  2263.331
 370  2293.44
 371  2228.107
 372  2173.769
 373  2255.476
 374  2273.906
 375  2385.729
 376  2387.431
 377  2422.614
 378  2236.631
 379  2296.481
 380  2304.727
 381  2278.404
 382  2168.131
 383  2161.146
 384  2155.939
 385  2200.794
 386  2248.01
 387  2244.253
 388  2404.361
 389  2592.646
 390  2543.188
 391  2565.138
 392  2521.508
 393  2570.855
 394  2510.521
 395  2492.911
 396  2435.265
 397  2345.911
 398  2287.03
 399  2366.854
 400  2438.124
 401  2370.685
 402  2302.487
 403  2303.901
 404  2337.604
 405  2231.865
 406  2220.311
 407  2280.161
 408  2314.416
 409  2301.397
 410  2517.86
 411  2503.18
 412  2542.434
 413  2491.136
 414  2496.522
 415  2524.916
 416  2455.121
 417  2357.928
 418  2398.444
 419  2465.333
 420  2472.747
 421  2455.023
 422  2400.871
 423  2375.278
 424  2482.655
 425  2520.957
 426  2483.238
 427  2397.37
 428  2440.792
 429  2449.299
 430  2547.366
 431  2503.056
 432  2400.024
 433  2370.538
 434  2446.095
 435  2515.596
 436  2509.358
 437  2550.74
 438  2690.981
 439  2747.278
 440  2700.48
 441  2756.892
 442  2811.524
 443  2949.774
 444  2896.152
 445  2906.068
 446  2962.179
 447  3035.168
 448  3073.619
 449  3008.205
 450  2917.84
 451  3051.153
 452  3159.24
 453  3108.47
 454  3073.083
 455  3015.501
 456  3027.267
 457  2937.533
 458  2917.452
 459  2750.038
 460  2690.199
 461  2769.962
 462  2900.857
 463  2964.364
 464  2968.308
 465  2816.332
 466  2745.145
 467  2570.705
 468  2615.894
 469  2561.388
 470  2786.713
 471  2935.029
 472  2921.772
 473  2825.103
 474  2648.537
 475  2641.058
 476  2630.477
 477  2697.926
 478  2712.134
 479  2616.656
 480  2578.142
 481  2573.505
 482  2646.024
 483  2631.69
 484  2593.659
 485  2513.637
 486  2270.706
 487  2081.978
 488  2074.212
 489  2140.048
 490  2091.635
 491  2294.798
 492  2381.861
 493  2393.647
 494  2282.927
 495  2244.523
 496  2344.785
 497  2453.777
 498  2516.27
 499  2468.505
 500  2355.308
 501  2297.092
 502  2298.426
 503  2241.949
 504  2292.038
 505  2388.568
 506  2628.197
 507  2643.689
 508  2597.729
 509  2494.306
 510  2551.094
 511  2577.099
 512  2651.177
 513  2740.796
 514  2713.51
 515  2676.796
 516  2696.965
 517  2686.526
 518  2617.021
 519  2506.838
 520  2596.34
 521  2857.839
 522  2867.259
 523  2766.211
 524  2672.351
 525  2748.219
 526  2855.798
 527  2779.533
 528  2893.355
 529  2756.865
 530  2691.575
 531  2604.628
 532  2666.244
 533  2739.981
 534  2758.906
 535  2746.837
 536  2682.491
 537  2670.041
 538  2656.817
 539  2639.744
 540  2535.585
 541  2563.106
 542  2769.094
 543  2818.429
 544  2747.434
 545  2746.137
 546  2787.598
 547  2670.172
 548  2579.191
 549  2653.131
 550  2776.801
 551  2637.41
 552  2568.667
 553  2572.792
 554  2613.313
 555  2635.459
 556  2631.171
 557  2696.16
 558  2512.386
 559  2519.8
 560  2555.103
 561  2670.669
 562  2585.556
 563  2522.572
 564  2539.416
 565  2624.271
 566  2742.626
 567  2674.006
 568  2684.719
 569  2819.365
 570  2874.401
 571  2791.194
 572  2437.731
 573  2375.33
 574  2447.038
 575  2522.329
 576  2575.843
 577  2446.785
 578  2482.646
 579  2489.564
 580  2448.662
 581  2597.459
 582  2647.544
 583  2739.44
 584  2753.933
 585  2932.273
 586  2983.037
 587  2885.299
 588  2864.309
 589  2846.512
 590  3003.596
 591  3179.939
 592  3301.475
 593  3216.44
 594  3195.976
 595  3103.859
 596  3164.899
 597  3053.659
 598  3131.535
 599  3029.946
 600  3231.637
 601  3213.809
 602  3295.979
 603  3488.26
 604  3648.243
 605  3679.856
 606  3647.859
 607  3725.375
 608  3633.476
 609  3594.278
 610  3578.07
 611  3523.841
 612  3501.806
 613  3315.092
 614  3131.5
 615  2836.95
 616  2609.809
 617  2541.241
 618  2629.096
 619  2589.619
 620  2406.87
 621  2461.796
 622  2495.963
 623  2372.035
 624  2337.51
 625  2371.108
 626  2272.676
 627  2219.723
 628  2229.48
 629  2399.783
 630  2358.039
 631  2202.123
 632  2041.063
 633  2114.005
 634  2217.164
 635  2287.958
 636  2192.656
 637  2201.548
 638  2159.805
 639  2121.882
 640  2026.556
 641  2051.308
 642  2116.041
 643  2320.804
 644  2232.022
 645  2246.218
 646  2065.094
 647  2059.049
 648  1999.965
 649  2103.602
 650  2113.79
 651  2180.121
 652  2165.349
 653  2097.002
 654  2019.63
 655  2211.225
 656  2364.831
 657  2431.053
 658  2406.969
 659  2381.901
 660  2408.85
 661  2485.528
 662  2411.812
 663  2338.845
 664  2461.007
 665  2666.62
 666  2505.071
 667  2211.525
 668  2056.429
 669  2210.225
 670  2459.891
 671  2515.077
 672  2352.498
 673  2187.013
 674  2296.406
 675  2457.01
 676  2560.695
 677  2501.619
 678  2511.51
 679  2410.345
 680  2278.888
 681  2160.245
 682  2262.081
 683  2188.733
 684  2088.572
 685  2102.108
 686  2377.296
 687  2441.048
 688  2222.346
 689  2139.164
 690  2166.417
 691  2331.31
 692  2488.623
 693  2519.748
 694  2551.991
 695  2423.889
 696  2365.622
 697  2240.541
 698  2040.9
 699  2104.578
 700  2303.18
 701  2505.285
 702  2461.565
 703  2372.154
 704  2345.3
 705  2266.694
 706  2225.496
 707  2291.103
 708  2425.238
 709  2546.55
 710  2517.331
 711  2480.986
 712  2528.063
 713  2501.059
 714  2495.314
 715  2391.827
 716  2273.208
 717  2197.612
 718  2261.606
 719  2388.204
 720  2442.193
 721  2682.881
 722  2664.808
 723  2623.143
 724  2437.653
 725  2506.072
 726  2566.109
 727  2456.64
 728  2375.311
 729  2305.313
 730  2288.898
 731  2224.741
 732  2360.278
 733  2438.419
 734  2497.361
 735  2392.979
 736  2403.358
 737  2286.646
 738  2268.442
 739  2356.306
 740  2522.655
 741  2575.054
 742  2632.321
 743  2688.641
 744  2755.525
 745  2764.385
 746  2844.943
 747  2836.665
 748  2791.813
 749  2705.826
 750  2650.726
 751  2463.661
 752  2280.168
 753  2202.042
 754  2185.592
 755  2238.903
 756  2183.096
 757  2263.189
 758  2430.006
 759  2281.613
 760  2232.817
 761  2125.143
 762  2178.214
 763  2154.3
 764  2185.771
 765  2178.913
 766  2039.736
 767  2047.913
 768  2080.881
 769  2070.676
 770  2019.138
 771  2016.122
 772  2193.443
 773  2062.865
 774  1958.279
 775  1800.574
 776  1964.737
 777  2107.102
 778  2128.493
 779  2098.506
 780  2150.351
 781  2176.62
 782  2116.053
 783  2040.529
 784  1944.061
 785  1917.985
 786  1909.504
 787  1986.838
 788  1961.792
 789  1936.082
 790  1915.63
 791  2080.994
 792  2155.633
 793  2046.695
 794  1899.363
 795  1905.195
 796  1956.287
 797  2042.361
 798  2002.59
 799  2010.61
 800  2024.191
 801  2055.569
 802  1985.585
 803  1993.305
 804  1889.197
 805  2016.029
 806  2060.448
 807  2189.682
 808  2078.711
 809  1960.279
 810  1846.636
 811  1894.208
 812  1864.795
 813  1779.687
 814  1789.011
 815  2001.982
 816  2211.193
 817  2118.738
 818  1880.233
 819  1705.642
 820  1624.717
 821  1662.752
 822  1716.259
 823  1714.789
 824  1692.78
 825  1881.539
 826  1981.749
 827  2071.42
 828  1991.316
 829  2070.914
 830  2036.329
 831  2064.909
 832  1972.976
 833  2128.037
 834  2238.041
 835  2084.052
 836  1995.977
 837  1994.758
 838  2052.78
 839  2046.381
 840  2081.755
 841  2160.21
 842  2211.282
 843  2240.279
 844  2271.83
 845  2165.25
 846  2023.461
 847  1809.663
 848  1844.266
 849  2043.356
 850  2147.42
 851  2273.868
 852  2115.353
 853  2117.627
 854  2111.908
 855  2122.206
 856  2037.021
 857  1907.15
 858  1848.021
 859  1800.213
 860  1931.63
 861  2111.17
 862  2157.655
 863  2089.976
 864  2107.784
 865  2097.453
 866  2007.983
 867  1997.5
 868  2114.198
 869  2226.992
 870  2341.583
 871  2343.258
 872  2431.424
 873  2347.979
 874  2365.526
 875  2422.192
 876  2400.656
 877  2294.781
 878  2230.631
 879  2322.325
 880  2317.118
 881  2353.958
 882  2497.881
 883  2582.281
 884  2573.472
 885  2596.738
 886  2698.995
 887  2628.675
 888  2635.564
 889  2722.742
 890  2698.701
 891  2642.461
 892  2624.543
 893  2862.034
 894  2832.594
 895  2670.352
 896  2618.37
 897  2692.164
 898  2636.982
 899  2499.531
 900  2313.418
 901  2226.455
 902  2179.975
 903  2177.363
 904  2100.112
 905  2020.533
 906  1987.855
 907  2002.025
 908  2008.608
 909  2163.958
 910  2353.787
 911  2462.508
 912  2366.067
 913  2301.406
 914  2156.601
 915  2203.302
 916  2027.838
 917  1892.437
 918  1811.797
 919  1869.73
 920  1821.017
 921  1744.203
 922  1841.685
 923  1950.276
 924  2078.357
 925  2258.081
 926  2452.572
 927  2447.041
 928  2465.304
 929  2248.639
 930  2209.471
 931  2075.458
 932  2115.939
 933  2204.264
 934  2312.774
 935  2353.104
 936  2538.881
 937  2653.872
 938  2586.706
 939  2399.914
 940  2267.432
 941  2314.039
 942  2247.604
 943  2235.331
 944  2079.551
 945  2150.864
 946  2230.719
 947  2293.734
 948  2339.196
 949  2304.596
 950  2271.21
 951  2370.656
 952  2342.998
 953  2281.656
 954  2075.869
 955  2274.757
 956  2321.759
 957  2420.585
 958  2323.355
 959  2334.523
 960  2328.272
 961  2250.383
 962  2186.747
 963  2125.043
 964  2316.635
 965  2303.64
 966  2243.311
 967  2090.656
 968  2072.699
 969  2162.183
 970  2370.306
 971  2476.259
 972  2482.348
 973  2467.499
 974  2444.119
 975  2421.781
 976  2450.541
 977  2508.558
 978  2600.272
 979  2522.778
 980  2402.914
 981  2248.865
 982  2254.44
 983  2327.831
 984  2389.677
 985  2468.715
 986  2526.52
 987  2600.333
 988  2593.503
 989  2592.165
 990  2608.082
 991  2656.402
 992  2551.802
 993  2595.41
 994  2541.537
 995  2594.49
 996  2440.154
 997  2459.218
 998  2558.48
 999  2518.423
1000  2489.806
1001  2564.99
1002  2489.802
1003  2435.907
1004  2371.307
1005  2329.323
1006  2605.214
1007  2691.811
1008  2691.123
1009  2497.441
1010  2620.105
1011  2805.237
1012  2830.276
1013  2744.815
1014  2597.462
1015  2657.795
1016  2737.181
1017  2795.334
1018  2815.756
1019  2792.367
1020  2791.875
1021  2751.368
1022  2903.27
1023  2913.498
