# Input file       =  1204650021.107856_cleaned.dat
# Candidate        =  PSR_0332+5434
# Telescope        =  AR
# Epoch_topo       =  58186.708797544627
# Epoch_bary       =  N/A
# T_sample         =  0.002
# Data Folded      =  7340032
# Data Avg         =  0.121659196599337
# Data StdDev      =  4.1222183502383  
# Profile Bins     =  1024
# Profile Avg      =  872.062228088756 
# Profile StdDev   =  349.0036673484   
# Reduced chi-sqr  =  0.680
# Prob(Noise)      <  1   (~0.0 sigma)
# P_topo (ms)      =  714.579429521024  +/- 0.000514
# P'_topo (s/s)    =  -0                +/- 2.71e-10
# P''_topo (s/s^2) =  0                 +/- 1.2e-13
# P_bary (ms)      =  N/A
# P'_bary (s/s)    =  N/A
# P''_bary (s/s^2) =  N/A
# P_orb (s)        =  N/A
# asin(i)/c (s)    =  N/A
# eccentricity     =  N/A
# w (rad)          =  N/A
# T_peri           =  N/A
######################################################
   0  848.3002
   1  815.5349
   2  933.7953
   3  1114.281
   4  1124.638
   5  1056.16
   6  959.3245
   7  979.4577
   8  970.9792
   9  894.1015
  10  932.8517
  11  922.0819
  12  1016.755
  13  992.0105
  14  1052.414
  15  1051.78
  16  1033.974
  17  942.6545
  18  891.8748
  19  904.0696
  20  901.4496
  21  789.4567
  22  732.5958
  23  702.5212
  24  729.4574
  25  657.778
  26  656.2463
  27  672.2319
  28  713.8617
  29  766.4479
  30  754.1871
  31  875.1464
  32  958.1724
  33  971.2782
  34  917.5511
  35  873.4474
  36  1007.285
  37  1070.465
  38  1028.521
  39  923.1819
  40  814.3793
  41  785.452
  42  812.5909
  43  977.0846
  44  992.5045
  45  832.28
  46  789.5287
  47  921.6581
  48  1107.783
  49  1033.178
  50  1009.742
  51  1019.422
  52  938.6324
  53  836.6643
  54  759.5006
  55  924.4249
  56  970.8391
  57  846.766
  58  794.7444
  59  876.7258
  60  922.9508
  61  904.4558
  62  915.7976
  63  1132.561
  64  1171.504
  65  1039.307
  66  881.1798
  67  824.9815
  68  914.0033
  69  932.2161
  70  918.1283
  71  813.9915
  72  872.5945
  73  891.3243
  74  880.9039
  75  835.3329
  76  792.3093
  77  859.2076
  78  743.2919
  79  727.8912
  80  743.012
  81  790.4231
  82  858.2015
  83  802.402
  84  832.3884
  85  967.7482
  86  1078.032
  87  1111.48
  88  1059.583
  89  1052.719
  90  1040.325
  91  913.6045
  92  906.7973
  93  844.8068
  94  831.6583
  95  769.4669
  96  842.8298
  97  959.7712
  98  965.4857
  99  974.3716
 100  1010.185
 101  1091.293
 102  1010.585
 103  830.9307
 104  839.2673
 105  906.5726
 106  965.4532
 107  1031.544
 108  1019.018
 109  1107.019
 110  1044.876
 111  928.2691
 112  755.3713
 113  672.8083
 114  675.2189
 115  651.3749
 116  653.561
 117  721.4386
 118  961.1027
 119  1106.712
 120  987.2922
 121  852.2649
 122  720.7573
 123  780.444
 124  773.1373
 125  779.134
 126  792.9459
 127  900.5049
 128  1033.398
 129  937.973
 130  965.3257
 131  904.4345
 132  958.3206
 133  898.7839
 134  1033.799
 135  1087.153
 136  951.6383
 137  839.8693
 138  743.4224
 139  803.4534
 140  808.9138
 141  720.3691
 142  687.6544
 143  718.2012
 144  835.0302
 145  829.1695
 146  840.6646
 147  786.0532
 148  899.614
 149  925.0272
 150  926.8588
 151  797.4502
 152  810.9904
 153  872.2318
 154  1000.536
 155  1138.643
 156  1173.596
 157  1032.893
 158  926.6114
 159  998.0294
 160  1022.53
 161  947.8693
 162  839.6057
 163  952.91
 164  967.2669
 165  951.0214
 166  737.4661
 167  678.6966
 168  562.7198
 169  622.8085
 170  571.3572
 171  663.7905
 172  630.9534
 173  719.3027
 174  615.8232
 175  668.5304
 176  694.2076
 177  722.3456
 178  702.2987
 179  731.6021
 180  783.6679
 181  773.4553
 182  729.5375
 183  864.0579
 184  953.7724
 185  950.9129
 186  817.3124
 187  710.5162
 188  734.7563
 189  732.95
 190  707.4124
 191  766.486
 192  783.4348
 193  744.2933
 194  698.9459
 195  747.7568
 196  852.8557
 197  766.366
 198  674.8145
 199  563.295
 200  683.4497
 201  650.6551
 202  782.3986
 203  691.7096
 204  775.624
 205  769.9016
 206  730.0495
 207  621.951
 208  649.3724
 209  839.4451
 210  1053.206
 211  1119.335
 212  1094.247
 213  931.1585
 214  876.6307
 215  883.8521
 216  874.8184
 217  770.7767
 218  627.8463
 219  705.7186
 220  701.8903
 221  633.5761
 222  497.1093
 223  470.7611
 224  636.7178
 225  723.7456
 226  795.7615
 227  703.613
 228  684.6255
 229  643.2863
 230  576.4719
 231  685.9843
 232  770.15
 233  905.0778
 234  838.3709
 235  860.9384
 236  825.9573
 237  799.5802
 238  734.1547
 239  790.0999
 240  775.4528
 241  718.0018
 242  661.9663
 243  708.4827
 244  927.7679
 245  1011.199
 246  1143.149
 247  1012.766
 248  913.5438
 249  660.468
 250  626.2553
 251  604.6807
 252  732.9891
 253  778.4454
 254  863.6467
 255  848.4016
 256  883.0552
 257  804.1278
 258  787.4999
 259  706.2086
 260  677.6792
 261  717.4599
 262  957.3664
 263  940.3342
 264  895.3544
 265  723.8839
 266  814.1508
 267  763.8705
 268  761.8458
 269  852.4454
 270  944.8159
 271  1027.302
 272  1004.017
 273  1049.208
 274  1103.098
 275  956.2178
 276  888.3754
 277  843.6874
 278  1074.503
 279  1112.078
 280  992.6854
 281  952.0616
 282  957.7301
 283  908.9622
 284  876.4501
 285  879.1155
 286  941.2332
 287  735.0318
 288  732.2237
 289  808.9138
 290  1001.568
 291  924.9733
 292  850.8573
 293  742.6384
 294  848.9189
 295  968.9762
 296  953.8542
 297  988.48
 298  931.3694
 299  1064.546
 300  1008.444
 301  1057.693
 302  956.7677
 303  1039.885
 304  975.9442
 305  946.1061
 306  905.3481
 307  958.0883
 308  906.3912
 309  795.1313
 310  785.1935
 311  819.8112
 312  943.9452
 313  1005.926
 314  948.4072
 315  838.9495
 316  747.7528
 317  748.6169
 318  765.256
 319  903.08
 320  961.4309
 321  982.4986
 322  789.5089
 323  772.8767
 324  682.812
 325  680.8141
 326  645.3036
 327  696.7329
 328  804.9867
 329  921.1396
 330  931.3629
 331  975.5648
 332  890.3522
 333  872.6548
 334  797.3701
 335  832.2392
 336  876.753
 337  828.678
 338  1034.888
 339  1168.245
 340  1230.164
 341  975.2845
 342  910.601
 343  985.6691
 344  1163.424
 345  1103.973
 346  1162.085
 347  1084.733
 348  1063.124
 349  1050.252
 350  1164.716
 351  1187.508
 352  1099.112
 353  874.0753
 354  832.8113
 355  913.8946
 356  961.0827
 357  940.8214
 358  931.2919
 359  934.213
 360  934.6405
 361  935.8291
 362  1085.581
 363  1133.477
 364  1201.34
 365  996.0911
 366  935.2462
 367  794.7997
 368  758.1307
 369  724.6256
 370  821.2202
 371  838.1103
 372  771.7535
 373  644.4277
 374  688.068
 375  745.0263
 376  921.9373
 377  1030.576
 378  1002.301
 379  958.9006
 380  921.3079
 381  958.036
 382  979.3743
 383  933.3832
 384  911.1337
 385  865.2374
 386  1042.857
 387  1024.602
 388  1043.988
 389  902.8115
 390  846.9468
 391  759.7394
 392  768.6841
 393  859.8381
 394  966.9416
 395  950.7928
 396  953.0563
 397  894.4631
 398  788.4062
 399  752.9968
 400  718.8395
 401  711.1857
 402  760.0278
 403  731.2704
 404  790.6028
 405  743.2261
 406  770.6723
 407  889.8663
 408  972.4795
 409  995.3906
 410  908.9578
 411  893.2164
 412  834.4661
 413  777.6614
 414  780.1656
 415  836.4815
 416  868.8144
 417  854.8764
 418  871.2617
 419  827.0603
 420  834.5135
 421  790.545
 422  714.835
 423  680.0535
 424  730.7657
 425  893.4416
 426  1009.271
 427  1112.352
 428  1107.503
 429  996.6135
 430  784.6659
 431  701.0285
 432  683.0562
 433  759.7719
 434  789.5898
 435  796.306
 436  704.1982
 437  692.8585
 438  739.8428
 439  755.5701
 440  783.9657
 441  739.0511
 442  743.4264
 443  711.2135
 444  830.7147
 445  798.6877
 446  728.584
 447  809.0095
 448  878.5458
 449  969.1821
 450  887.0037
 451  860.1052
 452  815.5892
 453  811.4385
 454  942.2906
 455  991.9223
 456  884.5404
 457  786.1473
 458  854.2603
 459  977.6579
 460  1067.06
 461  996.2721
 462  946.1924
 463  818.1866
 464  753.5962
 465  803.3411
 466  844.5088
 467  910.1329
 468  973.146
 469  964.4163
 470  1069.01
 471  1051.569
 472  1087.691
 473  924.6517
 474  870.8716
 475  830.6794
 476  620.4054
 477  424.9182
 478  373.2489
 479  576.3281
 480  721.0659
 481  854.2709
 482  806.5532
 483  785.0135
 484  785.0805
 485  862.2235
 486  943.4156
 487  894.6334
 488  836.3029
 489  770.2777
 490  811.404
 491  936.8371
 492  958.8876
 493  909.9612
 494  785.7441
 495  604.7808
 496  484.1348
 497  466.1456
 498  631.3112
 499  722.3124
 500  709.7477
 501  697.6772
 502  728.2444
 503  743.3747
 504  709.8407
 505  734.2312
 506  775.9851
 507  712.8747
 508  757.3937
 509  831.888
 510  848.0869
 511  772.4811
 512  739.186
 513  908.0128
 514  998.8175
 515  880.6443
 516  682.9387
 517  688.7136
 518  870.2781
 519  996.4637
 520  943.0411
 521  906.9501
 522  888.4711
 523  932.8184
 524  953.0173
 525  957.032
 526  910.787
 527  818.2947
 528  813.8503
 529  918.3864
 530  1050.63
 531  1044.079
 532  804.9172
 533  759.1393
 534  761.5901
 535  864.3314
 536  831.4841
 537  831.5543
 538  835.5683
 539  825.1979
 540  869.3604
 541  875.3171
 542  754.3852
 543  739.7806
 544  811.737
 545  965.9622
 546  863.4557
 547  765.2622
 548  725.1063
 549  846.8753
 550  927.6873
 551  822.432
 552  850.5068
 553  821.3352
 554  803.1999
 555  737.3956
 556  749.9627
 557  717.3531
 558  716.1788
 559  836.8967
 560  993.2146
 561  1077.609
 562  1023.566
 563  934.6713
 564  810.8781
 565  844.3563
 566  815.5201
 567  864.7071
 568  860.665
 569  797.1962
 570  631.3859
 571  570.6291
 572  602.0764
 573  782.3879
 574  945.3341
 575  1113.036
 576  1071.423
 577  895.4402
 578  825.1818
 579  780.4115
 580  790.4649
 581  854.2719
 582  885.7953
 583  758.8771
 584  576.5427
 585  627.1494
 586  747.659
 587  793.4316
 588  745.8409
 589  849.9528
 590  788.9688
 591  757.9918
 592  773.7846
 593  834.2751
 594  863.0739
 595  905.7702
 596  1049.858
 597  1015.089
 598  902.0869
 599  853.3592
 600  902.1368
 601  978.6016
 602  989.5653
 603  1105.243
 604  1295.608
 605  1463.861
 606  1689.09
 607  1806.306
 608  1634.397
 609  1477.259
 610  1448.5
 611  1504.061
 612  1366.325
 613  1214.689
 614  1103.806
 615  1078.237
 616  979.6346
 617  931.2632
 618  846.0425
 619  900.3911
 620  870.0668
 621  895.6135
 622  848.3447
 623  804.6784
 624  817.8195
 625  838.5507
 626  940.7779
 627  1014.584
 628  960.1819
 629  891.012
 630  707.118
 631  646.8674
 632  634.9786
 633  618.4335
 634  601.9357
 635  637.2272
 636  763.6712
 637  904.4309
 638  862.2261
 639  882.2633
 640  838.227
 641  741.0934
 642  758.5009
 643  792.556
 644  845.4089
 645  730.7852
 646  590.5943
 647  633.4955
 648  681.567
 649  595.5972
 650  543.1863
 651  537.3184
 652  648.3497
 653  686.0508
 654  715.3049
 655  794.0108
 656  628.1447
 657  570.6404
 658  524.2855
 659  632.8253
 660  807.6818
 661  858.3089
 662  871.28
 663  769.0107
 664  729.6328
 665  704.6177
 666  802.0674
 667  764.8424
 668  826.6613
 669  772.4409
 670  671.8056
 671  590.695
 672  617.0779
 673  693.0727
 674  802.4064
 675  879.1459
 676  896.4531
 677  651.4642
 678  521.9308
 679  570.5867
 680  804.799
 681  960.9205
 682  981.6326
 683  1101.086
 684  1134.623
 685  1088.982
 686  970.3732
 687  854.7661
 688  869.0596
 689  840.1476
 690  970.6409
 691  1014.324
 692  1036.002
 693  928.0807
 694  887.7278
 695  813.0134
 696  780.9531
 697  655.5375
 698  594.3275
 699  550.9207
 700  589.9422
 701  697.777
 702  812.6598
 703  850.4285
 704  808.7377
 705  781.528
 706  720.5115
 707  720.5051
 708  768.8824
 709  812.3602
 710  777.8486
 711  724.2673
 712  601.7192
 713  659.0475
 714  874.9998
 715  1059.194
 716  1007.502
 717  928.0922
 718  850.3061
 719  870.2317
 720  709.3454
 721  832.7911
 722  759.6897
 723  666.9094
 724  646.0717
 725  739.2732
 726  856.9592
 727  922.9269
 728  998.4128
 729  1012.149
 730  946.4897
 731  924.3192
 732  914.8676
 733  1033.117
 734  1042.239
 735  960.2655
 736  828.2379
 737  872.6138
 738  971.8362
 739  1032.222
 740  1072.28
 741  1154.146
 742  1145.249
 743  953.8434
 744  931.7495
 745  1078.526
 746  1256.188
 747  1211.279
 748  1265.741
 749  1203.397
 750  1213.251
 751  962.6094
 752  846.6082
 753  724.9285
 754  696.7899
 755  747.1982
 756  802.7198
 757  776.4254
 758  767.4855
 759  765.4963
 760  786.8225
 761  836.3025
 762  799.8953
 763  922.7432
 764  976.4042
 765  970.2996
 766  900.8906
 767  858.6653
 768  809.9272
 769  700.4666
 770  604.467
 771  562.77
 772  546.4229
 773  627.1867
 774  713.0693
 775  770.6026
 776  878.9877
 777  771.5592
 778  675.3733
 779  628.578
 780  626.5818
 781  671.9572
 782  653.0558
 783  699.4705
 784  697.8248
 785  677.8649
 786  726.3723
 787  767.0522
 788  933.6016
 789  1079.354
 790  1062.781
 791  981.2198
 792  862.4371
 793  838.7265
 794  783.1547
 795  713.687
 796  777.3483
 797  880.8122
 798  960.0323
 799  896.9651
 800  935.7205
 801  1061.292
 802  1225.282
 803  1199.707
 804  888.1783
 805  668.7213
 806  576.6221
 807  610.5686
 808  625.6968
 809  749.6677
 810  838.7664
 811  882.3466
 812  759.433
 813  787.1449
 814  877.1412
 815  945.4615
 816  802.903
 817  845.8263
 818  960.3945
 819  1014.519
 820  1047.129
 821  1094.854
 822  1163.475
 823  925.3178
 824  852.999
 825  797.135
 826  924.9871
 827  839.3739
 828  786.6334
 829  731.5413
 830  791.3654
 831  981.5146
 832  1071.565
 833  1170.718
 834  1030.622
 835  945.5209
 836  771.1321
 837  737.7327
 838  688.6639
 839  734.4996
 840  634.4067
 841  684.1825
 842  746.684
 843  871.1579
 844  1006.033
 845  1078.772
 846  1143.698
 847  1211.997
 848  1140.871
 849  1017.939
 850  955.8141
 851  933.0594
 852  969.6768
 853  907.9225
 854  936.9003
 855  854.189
 856  845.6304
 857  786.2823
 858  897.204
 859  1140.525
 860  1279.461
 861  1232.379
 862  1080.339
 863  1073.711
 864  1051.742
 865  995.7521
 866  1034.902
 867  1086.659
 868  1175.56
 869  1185.649
 870  1037.458
 871  908.941
 872  864.8356
 873  912.862
 874  896.6875
 875  876.3456
 876  893.1054
 877  929.843
 878  922.3757
 879  946.0654
 880  1028.961
 881  1103.851
 882  968.8589
 883  880.7366
 884  801.3743
 885  789.8386
 886  766.2762
 887  838.7019
 888  915.2134
 889  935.5879
 890  900.4798
 891  868.5919
 892  810.5986
 893  763.1594
 894  748.3418
 895  813.8094
 896  797.4726
 897  842.4434
 898  776.0408
 899  767.2156
 900  779.1635
 901  947.0195
 902  1089.756
 903  1201.042
 904  1210.915
 905  1184.576
 906  1132.079
 907  1051.367
 908  970.0472
 909  853.4158
 910  911.9604
 911  1009.369
 912  1058.97
 913  1067.279
 914  996.4647
 915  963.5147
 916  943.1451
 917  1073.641
 918  1032.435
 919  1022.631
 920  1029.587
 921  1137.273
 922  1175.068
 923  1143.032
 924  1147.079
 925  1119.506
 926  1069.352
 927  1086.868
 928  1085.794
 929  1048.531
 930  971.0527
 931  945.9902
 932  1031.647
 933  1025.388
 934  978.524
 935  871.4892
 936  742.1255
 937  584.8972
 938  596.7174
 939  820.967
 940  928.0363
 941  842.8799
 942  823.0117
 943  882.975
 944  1028.447
 945  1020.207
 946  1033.324
 947  968.8448
 948  1127.831
 949  1040.958
 950  918.7178
 951  799.9542
 952  872.8942
 953  930.1693
 954  931.7387
 955  953.0049
 956  901.5365
 957  866.1465
 958  791.2088
 959  872.1659
 960  925.8153
 961  919.3644
 962  971.3278
 963  1009.362
 964  1118
 965  965.3908
 966  882.5847
 967  816.9241
 968  859.0725
 969  730.4131
 970  782.7548
 971  829.2122
 972  863.2234
 973  827.2944
 974  734.5061
 975  921.1585
 976  958.1087
 977  1124.585
 978  1005.996
 979  862.0313
 980  720.7244
 981  835.0335
 982  831.2344
 983  841.0016
 984  789.9627
 985  801.1178
 986  740.2292
 987  741.4261
 988  769.0381
 989  744.5462
 990  683.4738
 991  651.2665
 992  673.8382
 993  701.3674
 994  631.6132
 995  699.8453
 996  808.3006
 997  923.872
 998  816.2653
 999  792.9859
1000  852.2628
1001  871.0175
1002  749.1197
1003  738.3016
1004  816.2877
1005  972.3669
1006  1006.373
1007  997.4241
1008  967.5764
1009  989.3105
1010  918.683
1011  904.2702
1012  838.6082
1013  863.784
1014  947.0137
1015  1087.938
1016  1275.046
1017  1253.156
1018  1235.905
1019  1004.023
1020  1023.416
1021  1072.329
1022  1110.649
1023  937.3591
