# Input file       =  1204721893.107728_cleaned.dat
# Candidate        =  PSR_0332+5434
# Telescope        =  AR
# Epoch_topo       =  58187.540649394999
# Epoch_bary       =  N/A
# T_sample         =  0.002
# Data Folded      =  7340032
# Data Avg         =  0.176048709686646
# Data StdDev      =  10.668936768853  
# Profile Bins     =  1024
# Profile Avg      =  1261.7353354547  
# Profile StdDev   =  903.275310203455 
# Reduced chi-sqr  =  0.589
# Prob(Noise)      <  1   (~0.0 sigma)
# P_topo (ms)      =  714.578902174409  +/- 0.000568
# P'_topo (s/s)    =  -0                +/- 3e-10
# P''_topo (s/s^2) =  0                 +/- 1.32e-13
# P_bary (ms)      =  N/A
# P'_bary (s/s)    =  N/A
# P''_bary (s/s^2) =  N/A
# P_orb (s)        =  N/A
# asin(i)/c (s)    =  N/A
# eccentricity     =  N/A
# w (rad)          =  N/A
# T_peri           =  N/A
######################################################
   0  990.0503
   1  1228.214
   2  1383.701
   3  1783.646
   4  1670.973
   5  1621.587
   6  1233.716
   7  1246.483
   8  1271.243
   9  1458.978
  10  1509.196
  11  1591.859
  12  1329.171
  13  1536.891
  14  1646.726
  15  1886.904
  16  2306.911
  17  2099.576
  18  1791.496
  19  1751.946
  20  1897.54
  21  2215.155
  22  1875.599
  23  1532.051
  24  1489.376
  25  1657.698
  26  1600.462
  27  1466.456
  28  1372.938
  29  1481.185
  30  1621.811
  31  1551.899
  32  1309.872
  33  1284.888
  34  1257.854
  35  1467.448
  36  1437.536
  37  1499.355
  38  1787.681
  39  1704.328
  40  1536.403
  41  1354.362
  42  1212.001
  43  1432.427
  44  1331.617
  45  1465.59
  46  1366.888
  47  1242.658
  48  1268.749
  49  1355.078
  50  1137.846
  51  1066.263
  52  1264.417
  53  1569.196
  54  1603.456
  55  1628.134
  56  1374.909
  57  1304.895
  58  1144.889
  59  1344.662
  60  1134.801
  61  977.5834
  62  1156.817
  63  1068.174
  64  1321.051
  65  1262.71
  66  1333.171
  67  1570.046
  68  1457.635
  69  1599.311
  70  1538.22
  71  1487.851
  72  1463.354
  73  1313.227
  74  1442.012
  75  1472.791
  76  1521.421
  77  1402.505
  78  1526.301
  79  1487.701
  80  1406.25
  81  1451.312
  82  1427.751
  83  1693.596
  84  1458.418
  85  1262.795
  86  1557.552
  87  1468.599
  88  1576.639
  89  1285.804
  90  1141.685
  91  1012.007
  92  867.191
  93  813.0032
  94  1018.957
  95  1210.576
  96  1167.906
  97  1021.877
  98  882.1412
  99  1255.749
 100  1572.676
 101  1505.981
 102  1413.597
 103  979.4808
 104  841.4941
 105  1079.097
 106  1208.684
 107  1435.588
 108  909.1667
 109  772.0643
 110  911.927
 111  1183.956
 112  1400.895
 113  1722.28
 114  1656.728
 115  1617.926
 116  1430.602
 117  1207.493
 118  967.257
 119  1211.027
 120  1255.207
 121  1331.507
 122  1098.216
 123  1170.205
 124  1493.472
 125  1229.661
 126  948.7941
 127  990.5679
 128  1374.218
 129  1630.202
 130  1605.16
 131  1781.972
 132  1806.604
 133  1582.893
 134  1202.648
 135  1273.514
 136  1109.908
 137  1075.842
 138  1062.198
 139  1316.782
 140  1696.538
 141  1639.856
 142  1514.53
 143  1128.474
 144  1019.742
 145  1027.139
 146  1089.66
 147  765.4564
 148  810.5302
 149  969.9377
 150  1255.22
 151  1533.608
 152  1428.317
 153  1455.891
 154  1383.999
 155  1348.799
 156  1685.792
 157  1296.292
 158  1279.138
 159  1153.15
 160  1340.731
 161  1491.927
 162  1282.858
 163  1054.775
 164  992.2767
 165  971.7731
 166  1142.817
 167  1210.396
 168  1373.796
 169  1623.58
 170  1593.744
 171  1464.843
 172  1667.819
 173  1884.097
 174  1792.829
 175  1533.58
 176  1273.312
 177  1315.343
 178  1050.449
 179  1060.157
 180  1224.47
 181  1493.528
 182  1663.854
 183  1783.776
 184  1666.457
 185  1567.458
 186  1505.646
 187  1662.289
 188  1932.267
 189  1821.038
 190  1631.491
 191  1613.2
 192  1493.216
 193  1311.998
 194  1166.389
 195  1008.636
 196  1304.737
 197  1424.475
 198  1516.927
 199  1644.984
 200  1553.282
 201  1516.353
 202  1717.686
 203  1916.661
 204  1790.83
 205  1556.151
 206  1431.168
 207  1794.286
 208  1886.727
 209  2156.042
 210  2079.455
 211  1976.69
 212  2082.7
 213  1966.33
 214  1756.581
 215  1679.949
 216  1355.5
 217  1370.808
 218  1407.249
 219  1200.705
 220  1206.537
 221  1243.494
 222  1260.318
 223  1192.363
 224  963.5543
 225  1004.163
 226  1084.729
 227  1278.33
 228  1406.104
 229  1411.405
 230  1329.183
 231  1503.867
 232  1436.489
 233  1214.071
 234  1029.335
 235  909.964
 236  864.915
 237  918.7332
 238  843.6912
 239  962.7853
 240  794.1385
 241  1000.216
 242  1313.053
 243  1227.028
 244  1030.344
 245  1137.225
 246  1224.992
 247  1484.066
 248  1279.153
 249  1184.886
 250  1073.745
 251  1015.992
 252  1069.302
 253  1160.374
 254  1131.616
 255  1305.584
 256  1114.249
 257  826.2244
 258  846.2345
 259  964.8033
 260  902.4381
 261  1082.139
 262  1268.436
 263  1448.958
 264  1055.174
 265  799.5211
 266  1056.291
 267  1226.439
 268  1214.283
 269  1007.874
 270  809.7094
 271  939.36
 272  1085.807
 273  911.4544
 274  991.5221
 275  1038.573
 276  1074.522
 277  1222.133
 278  1028.255
 279  966.7679
 280  804.5427
 281  849.3485
 282  1159.905
 283  1223.198
 284  1069.299
 285  1008.951
 286  1054.028
 287  1232.412
 288  1108.218
 289  1129.993
 290  1026.406
 291  983.3145
 292  785.7852
 293  1096.092
 294  1144.942
 295  1085.33
 296  1121.672
 297  1006.369
 298  1158.247
 299  916.9203
 300  707.288
 301  796.9147
 302  628.7043
 303  807.1019
 304  1059.725
 305  1123.335
 306  1207.954
 307  1346.47
 308  1277.736
 309  1168.853
 310  1052.75
 311  850.8047
 312  832.0093
 313  829.0744
 314  1019.237
 315  998.8926
 316  986.6462
 317  1368.556
 318  1326.594
 319  1432.692
 320  1617.837
 321  1907.424
 322  2086.317
 323  1930.014
 324  1833.285
 325  1804.06
 326  1602.985
 327  1772.039
 328  1853.914
 329  1809.783
 330  1484.72
 331  1238.317
 332  1076.784
 333  1154.615
 334  934.0385
 335  1142.496
 336  1488.974
 337  1564.816
 338  1322.833
 339  1226.15
 340  1212.246
 341  1478.612
 342  1385.614
 343  1578.298
 344  1598.133
 345  1358.24
 346  1380.642
 347  1506.195
 348  1411.332
 349  1287.589
 350  1078.021
 351  1046.506
 352  1118.207
 353  910.6426
 354  835.801
 355  702.1525
 356  599.4808
 357  642.0143
 358  659.0852
 359  587.6009
 360  738.506
 361  884.0007
 362  1046.338
 363  1131.347
 364  796.8907
 365  903.417
 366  986.9971
 367  971.7602
 368  1172.454
 369  1497.349
 370  1595.84
 371  1426.377
 372  1049.371
 373  1150.711
 374  1215.471
 375  1118.603
 376  1252.685
 377  1391.983
 378  1547.743
 379  1765.953
 380  1621.394
 381  1513.179
 382  1560.484
 383  1541.835
 384  1591.356
 385  1547.896
 386  1538.771
 387  1762.979
 388  1535.411
 389  1577.387
 390  1614.066
 391  1563.352
 392  1610.113
 393  1569.152
 394  1826.153
 395  1805.045
 396  1640.428
 397  1549.848
 398  1569.318
 399  1481.864
 400  1218.92
 401  1221.37
 402  1169.283
 403  1305.385
 404  1249.795
 405  1248.246
 406  1314.328
 407  1271.844
 408  1654.163
 409  1916.626
 410  1920.333
 411  1891.399
 412  1536.314
 413  1289.399
 414  1320.875
 415  1317.732
 416  1160.775
 417  1081.312
 418  901.4827
 419  934.899
 420  787.4943
 421  1023.877
 422  1324.574
 423  1402.565
 424  1540.922
 425  1726.969
 426  1593.046
 427  1560.691
 428  1360.982
 429  1169.231
 430  1286.089
 431  1411.69
 432  1543.712
 433  1483.249
 434  1280.128
 435  1306.48
 436  1175.882
 437  1263.68
 438  1078.689
 439  1108.089
 440  1238.725
 441  1469.527
 442  1515.759
 443  1497.584
 444  1919.446
 445  1810.091
 446  1842.011
 447  1768.84
 448  1862.566
 449  2006.859
 450  1780.044
 451  1850.563
 452  1977.655
 453  1951.827
 454  1968.538
 455  2063.147
 456  2261.406
 457  2104.296
 458  1711.511
 459  1496.765
 460  1553.088
 461  1567.619
 462  1590.069
 463  1758.218
 464  1638.644
 465  1768.84
 466  1408.328
 467  1355.26
 468  1318.132
 469  1445.312
 470  1496.074
 471  1552.134
 472  1488.753
 473  1405.891
 474  1185.168
 475  815.2155
 476  886.0055
 477  880.5182
 478  947.2802
 479  1245.653
 480  1278.176
 481  1444.115
 482  1463.175
 483  1704.703
 484  1970.343
 485  1804.782
 486  1657.058
 487  1419.123
 488  1313.676
 489  1696.157
 490  1550.765
 491  1572.135
 492  1498.388
 493  1465.592
 494  1456.067
 495  1396.992
 496  1227.796
 497  1377.56
 498  1348.985
 499  1197.092
 500  1486.13
 501  1608.284
 502  1628.625
 503  1625.102
 504  1687.584
 505  1639.006
 506  1066.495
 507  572.3274
 508  524.3358
 509  386.5657
 510  461.2089
 511  857.6765
 512  1154.308
 513  1382.032
 514  1222.168
 515  1081.694
 516  1027.033
 517  797.3967
 518  885.4677
 519  982.2843
 520  776.8994
 521  771.066
 522  856.6177
 523  801.6954
 524  1174.019
 525  1382.026
 526  1677.764
 527  1979.945
 528  1832.411
 529  1589.986
 530  1312.212
 531  889.7031
 532  898.2213
 533  759.619
 534  827.4944
 535  513.9704
 536  384.7541
 537  561.4595
 538  751.7202
 539  971.6088
 540  1368.535
 541  1388.251
 542  927.9775
 543  654.7141
 544  612.1644
 545  638.3736
 546  391.7023
 547  206.9514
 548  427.3264
 549  345.2213
 550  205.6713
 551  76.42651
 552  57.08584
 553  156.6753
 554  379.2622
 555  528.605
 556  801.8168
 557  817.1591
 558  595.5583
 559  320.3212
 560  127.2253
 561  426.9125
 562  499.3598
 563  383.6821
 564  100.2345
 565  169.7803
 566  367.5154
 567  451.1613
 568  761.8577
 569  1148.02
 570  1416.278
 571  1335.322
 572  1394.058
 573  1257.81
 574  656.6341
 575  805.0693
 576  803.9842
 577  852.1882
 578  803.2698
 579  773.8398
 580  1054.096
 581  1125.866
 582  1153.769
 583  1145.123
 584  1153.593
 585  1357.518
 586  1581.697
 587  1484.956
 588  1313.836
 589  1360.753
 590  1475.122
 591  1262.82
 592  949.6279
 593  725.7258
 594  1015.65
 595  1039.892
 596  1204.902
 597  1123.161
 598  851.6658
 599  1050.85
 600  1094.695
 601  1091.495
 602  1338.213
 603  1747.396
 604  2001.224
 605  1771.457
 606  1445.781
 607  1451.763
 608  1419.345
 609  1589.656
 610  1919.393
 611  1971.927
 612  1852.915
 613  1747.66
 614  1644.338
 615  1694.935
 616  1435.541
 617  1118.245
 618  1412.791
 619  1365.189
 620  1195.411
 621  836.8724
 622  690.3995
 623  996.7947
 624  1299.069
 625  1284.451
 626  1089.374
 627  930.3279
 628  918.2331
 629  1092.491
 630  929.3114
 631  1050.624
 632  1236.626
 633  1154.435
 634  1236.661
 635  1048.352
 636  673.7746
 637  786.8724
 638  657.9603
 639  475.2965
 640  578.2409
 641  603.0471
 642  480.411
 643  304.0501
 644  639.8631
 645  996.2614
 646  919.1769
 647  1081.517
 648  1092.615
 649  1017.94
 650  1022.505
 651  1123.92
 652  1193.055
 653  1165.013
 654  1065.968
 655  1281.741
 656  1332.817
 657  1129.319
 658  954.6485
 659  894.3843
 660  948.8553
 661  1300.726
 662  1327.413
 663  1127.723
 664  1206.025
 665  1520.48
 666  1588.898
 667  1625.962
 668  1645.774
 669  1764.169
 670  1731.019
 671  1443.871
 672  1518.635
 673  1235.669
 674  1326.084
 675  1293.672
 676  1132.731
 677  1183.913
 678  1255.409
 679  1302.644
 680  1556.063
 681  1501.839
 682  1454.814
 683  1145.391
 684  1170.966
 685  1139.131
 686  1368.663
 687  1253.001
 688  1316.446
 689  1046.859
 690  985.6726
 691  764.1465
 692  607.9645
 693  521.1556
 694  557.7896
 695  697.0577
 696  1061.098
 697  1055.635
 698  960.2559
 699  1066.418
 700  868.7645
 701  847.6692
 702  1046.456
 703  980.8863
 704  1198.209
 705  1109.208
 706  1326.608
 707  1254.878
 708  881.6691
 709  1132.654
 710  1047.489
 711  1098.299
 712  1381.523
 713  1620.546
 714  1799.791
 715  1501.736
 716  1526.807
 717  1558.163
 718  1796.301
 719  1620.632
 720  1588.532
 721  1269.751
 722  1091.027
 723  1232.31
 724  1276.827
 725  1374.969
 726  1097.204
 727  1143.269
 728  1248.441
 729  1924.097
 730  1946.663
 731  2085.378
 732  1873.93
 733  1924.967
 734  2142.847
 735  1856.476
 736  1850.359
 737  1737.721
 738  1525.106
 739  1582.865
 740  1574.88
 741  1384.983
 742  1523.424
 743  1597.395
 744  1833.542
 745  1993.405
 746  1808.641
 747  1809.97
 748  1725.894
 749  1738.834
 750  1993.029
 751  1936.833
 752  1693.362
 753  1544.96
 754  1360.859
 755  1406.337
 756  1251.569
 757  1328.049
 758  1738.351
 759  1776.125
 760  1707.788
 761  1618.255
 762  1440.095
 763  1622.957
 764  1608.337
 765  1448.984
 766  1263.076
 767  1066.458
 768  1097.129
 769  1184.788
 770  1356.736
 771  1727.631
 772  1675.139
 773  1629.857
 774  1718.375
 775  1572.132
 776  1500.661
 777  1430.056
 778  1116.958
 779  1060.622
 780  1033.794
 781  1118.226
 782  1326.104
 783  1104.47
 784  1138.699
 785  997.9755
 786  980.5023
 787  1182.841
 788  1295.699
 789  1152.266
 790  1200.895
 791  1019.981
 792  1080.998
 793  890.6132
 794  915.3652
 795  1112.104
 796  1083.585
 797  1068.231
 798  1073.213
 799  934.0717
 800  713.5521
 801  361.7035
 802  303.3851
 803  377.1463
 804  653.2313
 805  683.2281
 806  878.1176
 807  633.9272
 808  513.2116
 809  766.3906
 810  834.1066
 811  899.0883
 812  843.4179
 813  661.4108
 814  624.9466
 815  575.104
 816  568.4351
 817  596.1104
 818  505.4037
 819  792.4354
 820  933.6005
 821  659.8447
 822  738.0738
 823  793.8591
 824  958.6381
 825  729.5165
 826  633.277
 827  553.8694
 828  620.4169
 829  529.2665
 830  382.7657
 831  695.6669
 832  568.923
 833  800.1985
 834  857.9973
 835  906.9347
 836  1058.237
 837  852.4763
 838  1059.137
 839  1142.005
 840  1059.517
 841  1145.335
 842  1019.72
 843  1227.399
 844  1285.776
 845  1193.453
 846  1178.673
 847  1129.326
 848  1249.999
 849  1406.611
 850  1703.732
 851  1703.388
 852  1521.901
 853  1175.961
 854  1245.917
 855  1552.7
 856  1466.73
 857  1473.325
 858  1126.616
 859  1129.488
 860  1313.549
 861  1039.594
 862  851.9101
 863  811.5153
 864  1154.343
 865  1453.37
 866  1465.809
 867  1292.731
 868  1382.846
 869  1579.121
 870  1719.365
 871  1444.276
 872  913.2841
 873  808.7142
 874  925.8272
 875  1129.611
 876  1396.7
 877  1620.838
 878  1824.009
 879  1775.272
 880  1661.83
 881  1936.121
 882  2131.086
 883  1995.698
 884  2052.597
 885  1956.106
 886  1604.09
 887  1355.815
 888  1213.171
 889  1394.443
 890  1589.981
 891  1511.076
 892  1745.934
 893  1734.504
 894  1969.297
 895  2090.392
 896  2359.646
 897  2114.497
 898  2014.727
 899  1899.83
 900  2098.37
 901  1881.471
 902  1612.751
 903  1448.951
 904  1244.064
 905  1185.557
 906  1335.081
 907  1194.143
 908  1330.184
 909  1426.208
 910  1708.938
 911  1965.582
 912  2085.565
 913  1881.502
 914  1946.52
 915  1871.399
 916  1898.87
 917  1860.877
 918  1711.385
 919  1712.035
 920  1626.52
 921  1481.767
 922  1470.217
 923  1198.17
 924  1403.125
 925  1527.529
 926  1742.665
 927  1893.373
 928  1546.995
 929  1215.192
 930  1289.937
 931  1272.858
 932  1077.897
 933  1051.486
 934  963.9844
 935  1159.206
 936  1113.386
 937  1107.486
 938  1342.885
 939  1544.651
 940  1787.238
 941  1671.432
 942  1403.813
 943  1367.276
 944  1285.977
 945  1279.778
 946  1358.19
 947  1311.006
 948  1188.16
 949  1186.62
 950  1161.577
 951  1281.058
 952  1309.129
 953  1413.085
 954  1416.369
 955  1225.639
 956  1008.027
 957  816.5725
 958  673.8765
 959  715.5659
 960  674.6061
 961  485.034
 962  763.5024
 963  915.1208
 964  1318.935
 965  1315.629
 966  1224.802
 967  1379.542
 968  1414.335
 969  1416.22
 970  1211.884
 971  1072.914
 972  1035.814
 973  970.9029
 974  1057.919
 975  1062.723
 976  1531.099
 977  1522.762
 978  1503.317
 979  1422.054
 980  1340.826
 981  1215.653
 982  881.9169
 983  800.0712
 984  995.3303
 985  727.4833
 986  626.4941
 987  498.0146
 988  641.5986
 989  791.8121
 990  890.2977
 991  903.3474
 992  1054.619
 993  1137.695
 994  1122.978
 995  1042.751
 996  1016.104
 997  1408.009
 998  1291.861
 999  889.969
1000  783.5944
1001  905.8393
1002  1021.357
1003  1054.369
1004  1004.279
1005  993.4258
1006  776.0623
1007  992.1497
1008  1141.642
1009  995.8864
1010  921.1068
1011  783.3447
1012  886.5661
1013  1024.952
1014  1052.096
1015  1033.375
1016  1178.643
1017  919.0236
1018  648.5504
1019  561.4279
1020  733.6355
1021  1009.395
1022  830.9712
1023  900.1171
