# Input file       =  1204792879.116628_cleaned.dat
# Candidate        =  PSR_0332+5434
# Telescope        =  AR
# Epoch_topo       =  58188.362246720229
# Epoch_bary       =  N/A
# T_sample         =  0.002
# Data Folded      =  7405568
# Data Avg         =  0.233753767330199
# Data StdDev      =  6.40381580654129 
# Profile Bins     =  1024
# Profile Avg      =  1690.47578413723 
# Profile StdDev   =  544.587966251431 
# Reduced chi-sqr  =  4.901
# Prob(Noise)      <  0   (~0.0 sigma)
# P_topo (ms)      =  714.578668915946  +/- 1.44e-05
# P'_topo (s/s)    =  -0                +/- 7.55e-12
# P''_topo (s/s^2) =  0                 +/- 3.3e-15
# P_bary (ms)      =  N/A
# P'_bary (s/s)    =  N/A
# P''_bary (s/s^2) =  N/A
# P_orb (s)        =  N/A
# asin(i)/c (s)    =  N/A
# eccentricity     =  N/A
# w (rad)          =  N/A
# T_peri           =  N/A
######################################################
   0  1498.957
   1  1818.106
   2  1948.275
   3  1644.254
   4  1548.722
   5  1372.75
   6  1202.521
   7  1221.987
   8  1175.774
   9  1254.934
  10  1233.2
  11  975.8813
  12  1034.602
  13  1010.069
  14  1466.615
  15  1939.202
  16  2384.469
  17  2924.212
  18  3022.336
  19  2955.045
  20  2568.402
  21  2167.098
  22  1973.357
  23  1782.928
  24  1778.123
  25  1760.496
  26  1671.704
  27  1678.583
  28  1327.555
  29  1176.672
  30  982.2414
  31  953.2436
  32  1413.729
  33  1484.296
  34  1720.786
  35  1705.515
  36  1584.163
  37  1510.509
  38  1206.19
  39  1124.183
  40  1080.626
  41  1032.399
  42  1267.042
  43  1350.692
  44  1465.056
  45  1529.088
  46  1616.952
  47  2028.154
  48  2190.463
  49  2588.247
  50  2774.013
  51  2874.444
  52  2863.411
  53  2602.276
  54  2419.009
  55  2094.715
  56  1794.457
  57  1630.447
  58  1402.233
  59  1440.549
  60  1512.638
  61  1450.699
  62  1378.172
  63  959.1323
  64  1029.635
  65  1246.139
  66  1337.355
  67  1567.667
  68  1543.708
  69  1654.771
  70  1393.656
  71  1109.927
  72  897.0269
  73  825.7408
  74  763.6586
  75  1029.939
  76  1128.903
  77  1437.925
  78  1393.278
  79  1607.181
  80  1878.903
  81  2117.983
  82  2679.818
  83  3121.451
  84  3300.271
  85  3233.184
  86  2950.948
  87  2636.407
  88  2010.332
  89  1521.733
  90  1362.189
  91  1265.854
  92  1258.194
  93  1088.294
  94  1077.982
  95  1110.251
  96  870.5316
  97  1045.185
  98  1223.932
  99  1626.783
 100  1937.483
 101  2002.311
 102  2111.44
 103  1609.217
 104  1311.324
 105  1010.322
 106  868.9857
 107  862.2767
 108  933.1215
 109  1052.769
 110  1318.745
 111  1452.271
 112  1811.4
 113  1964.971
 114  2320.621
 115  2761.289
 116  2910.199
 117  3261.353
 118  3048.504
 119  2864.876
 120  2465.268
 121  2184.474
 122  1792.041
 123  1559.874
 124  1546.244
 125  1735.995
 126  1479.578
 127  1407.964
 128  1139.831
 129  1127.569
 130  1203.873
 131  1298.713
 132  1671.127
 133  1875.087
 134  2085.929
 135  2013.433
 136  1681.878
 137  1448.519
 138  1179.113
 139  1041.141
 140  1128.666
 141  1164.581
 142  1335.659
 143  1333.554
 144  1429.847
 145  1773.97
 146  2021.433
 147  2415.642
 148  2767.767
 149  3154.598
 150  3431.821
 151  3119.624
 152  3012.677
 153  2476.819
 154  2093.844
 155  1787.732
 156  1695.012
 157  1664.375
 158  1558.578
 159  1496.006
 160  1467.218
 161  1101.141
 162  1147.747
 163  1074.483
 164  1366.195
 165  1582.569
 166  1729.267
 167  1916.982
 168  1796.511
 169  1606.747
 170  1454.752
 171  1261.993
 172  1186.668
 173  1116.659
 174  1153.557
 175  1390.941
 176  1262.923
 177  1430.54
 178  1547.779
 179  1774.074
 180  2026.534
 181  2351.775
 182  2942.991
 183  3210.896
 184  3098.947
 185  2885.847
 186  2483.42
 187  2210.324
 188  1876.165
 189  1599.133
 190  1479.53
 191  1415.733
 192  1503.442
 193  1326.219
 194  1072.208
 195  1032.275
 196  822.3446
 197  986.786
 198  1118.38
 199  1475.744
 200  1861.394
 201  1732.919
 202  1621.507
 203  1335.611
 204  1135.421
 205  1100.929
 206  1103.929
 207  1388.012
 208  1620.588
 209  1613.561
 210  1462.716
 211  1216.134
 212  1530.146
 213  1997.778
 214  2537.436
 215  2947.615
 216  3107.227
 217  3139.655
 218  2883.14
 219  2539.841
 220  2245.112
 221  1772.438
 222  1470.838
 223  1233.155
 224  1284.901
 225  1436.386
 226  1249.416
 227  1142.535
 228  926.1064
 229  887.9044
 230  1180.646
 231  1361.884
 232  1877.216
 233  1893.203
 234  1808.004
 235  1613.5
 236  1227.368
 237  1032.459
 238  949.2968
 239  993.5971
 240  1185.641
 241  1117.818
 242  1300.424
 243  1383.368
 244  1533.752
 245  1783.056
 246  1955.832
 247  2485.581
 248  2842.905
 249  3006.427
 250  3071.103
 251  2971.362
 252  2650.538
 253  1993.447
 254  1570.938
 255  1454.695
 256  1280.684
 257  1281.424
 258  1289.578
 259  1156.884
 260  1008.262
 261  914.6567
 262  1228.735
 263  1542.964
 264  1687.93
 265  1922.077
 266  1883.875
 267  1819.984
 268  1692.68
 269  1496.339
 270  1242.376
 271  942.2018
 272  937.7567
 273  1118.189
 274  1194.753
 275  1458.746
 276  1404.562
 277  1638.126
 278  1740.12
 279  2157.282
 280  2660.441
 281  2994.445
 282  3125.679
 283  3220.977
 284  3012.583
 285  2724.685
 286  2028.954
 287  1707.943
 288  1638.734
 289  1557.861
 290  1541.355
 291  1311.962
 292  1245.225
 293  1094.283
 294  934.6844
 295  1070.925
 296  1088.572
 297  1546.993
 298  1843.147
 299  1821.168
 300  1678.492
 301  1353.367
 302  1158.862
 303  1037.912
 304  839.8477
 305  909.928
 306  753.7074
 307  854.8677
 308  1017.146
 309  1072.712
 310  1434.881
 311  1716.951
 312  2373.342
 313  2686.146
 314  2903.865
 315  3167.835
 316  3137.654
 317  3121.884
 318  2758.093
 319  2350.582
 320  1967.506
 321  1507.254
 322  1247.408
 323  1226.54
 324  1046.127
 325  1095.33
 326  755.0504
 327  892.088
 328  946.0591
 329  1143.956
 330  1655.465
 331  1960.092
 332  2288.886
 333  2109.33
 334  1798.757
 335  1498.922
 336  1234.271
 337  1081.812
 338  977.4431
 339  798.493
 340  904.9634
 341  961.114
 342  1295.875
 343  1589.842
 344  1684.516
 345  2110.322
 346  2375.76
 347  2874.416
 348  3177.792
 349  3338.844
 350  3221.166
 351  2696.707
 352  2188.701
 353  1721.373
 354  1377.246
 355  1287.987
 356  1342.76
 357  1248.35
 358  1150.208
 359  971.3019
 360  1068.426
 361  992.4596
 362  1332.724
 363  1622.186
 364  1791.292
 365  1925.599
 366  1928.628
 367  1948.343
 368  1728.119
 369  1261.101
 370  1016.01
 371  795.4317
 372  925.7028
 373  1035.944
 374  1170.596
 375  1263.186
 376  1294.952
 377  1605.974
 378  1973.495
 379  2240.085
 380  2718.706
 381  3138.187
 382  3458.009
 383  3221.865
 384  2677.003
 385  2157.92
 386  1641.393
 387  1452.257
 388  1445.135
 389  1252.457
 390  1244.987
 391  1156.707
 392  1249.122
 393  1119.128
 394  997.5367
 395  1304.426
 396  1513.687
 397  1869.172
 398  2035.929
 399  1949.392
 400  1703.481
 401  1392.622
 402  1180.885
 403  1215.611
 404  1097.179
 405  1296.606
 406  1330.842
 407  1382.597
 408  1474.342
 409  1496.562
 410  1707.505
 411  1829.529
 412  2358.786
 413  2843.723
 414  2994.775
 415  2926.832
 416  2758.162
 417  2589.056
 418  2376.474
 419  1968.501
 420  1685.613
 421  1422.887
 422  1314.778
 423  1354.716
 424  1242.421
 425  1276.111
 426  1032.762
 427  1110.488
 428  1296.045
 429  1512.319
 430  1767.362
 431  1661.007
 432  1438.149
 433  1414.653
 434  1322.805
 435  1266.135
 436  1030.963
 437  773.1588
 438  809.8232
 439  969.5765
 440  1299.835
 441  1542.491
 442  1707.352
 443  2115.707
 444  2094.599
 445  2627.185
 446  2850.651
 447  3237.125
 448  3155.878
 449  2796.896
 450  2611.3
 451  2171.131
 452  1841.048
 453  1529.473
 454  1390.193
 455  1484.588
 456  1396.593
 457  1307.292
 458  1238.045
 459  1146.835
 460  1314.828
 461  1346.302
 462  1560.843
 463  1756.793
 464  1834.426
 465  1931.985
 466  1669.693
 467  1283.886
 468  1070.962
 469  868.1185
 470  873.4476
 471  953.2159
 472  1004.266
 473  1183.756
 474  1148.379
 475  1490.853
 476  1770.689
 477  2057.424
 478  2500.151
 479  2987.271
 480  3364.088
 481  3452.221
 482  3227.087
 483  2767.125
 484  1985.341
 485  1558.031
 486  1480.215
 487  1472.11
 488  1395.721
 489  1143.187
 490  1098.01
 491  854.6496
 492  719.7723
 493  848.7455
 494  841.7849
 495  1303.058
 496  1609.351
 497  1930.656
 498  1873.529
 499  1724.87
 500  1615.591
 501  1363.204
 502  980.3856
 503  847.2875
 504  760.188
 505  868.0235
 506  960.9131
 507  1042.243
 508  1206.658
 509  1247.814
 510  1804.932
 511  2337.652
 512  2845.016
 513  3184.481
 514  3310.073
 515  3221.865
 516  2869.028
 517  2262.132
 518  1741.483
 519  1267.225
 520  1182.867
 521  1230.871
 522  1078.172
 523  1044.197
 524  789.6654
 525  779.6704
 526  749.2819
 527  830.6458
 528  1340.678
 529  1600.99
 530  1980.137
 531  1919.164
 532  1723.333
 533  1439.24
 534  950.6194
 535  803.2865
 536  793.8616
 537  912.0571
 538  1078.034
 539  1109.695
 540  1153.822
 541  1261.872
 542  1421.292
 543  1750.173
 544  1925.792
 545  2374.2
 546  2812.849
 547  3036.895
 548  3086.706
 549  2611.823
 550  2199.716
 551  1837.901
 552  1657.604
 553  1590.67
 554  1447.523
 555  1470.014
 556  1248.059
 557  894.2282
 558  780.9506
 559  610.1804
 560  888.0209
 561  1123.98
 562  1418.037
 563  1665.484
 564  1585.717
 565  1547.205
 566  1359.028
 567  1222.002
 568  1305.833
 569  1393.643
 570  1495.322
 571  1559.615
 572  1545.301
 573  1633.391
 574  1550.501
 575  1673.885
 576  1821.593
 577  2027.488
 578  2415.488
 579  2588.079
 580  2708.864
 581  2520.279
 582  2314.849
 583  2041.745
 584  1713.197
 585  1549.806
 586  1507.449
 587  1398.941
 588  1409.489
 589  1415.915
 590  1464.521
 591  1228.158
 592  1015.623
 593  1133.772
 594  1379.079
 595  1657.286
 596  1689.755
 597  1615.521
 598  1616.426
 599  1344.743
 600  1090.459
 601  1045.581
 602  1186.035
 603  1552.179
 604  1740.531
 605  2023.775
 606  2249.81
 607  2418.902
 608  2761.827
 609  2887.172
 610  3246.422
 611  3364.555
 612  3515.102
 613  3460.623
 614  3226.084
 615  2939.687
 616  2521.774
 617  1997.386
 618  1613.129
 619  1432.876
 620  1387.55
 621  1349.832
 622  1197.199
 623  1180.615
 624  908.6445
 625  1073.883
 626  1250.872
 627  1564.023
 628  1876.958
 629  1887.383
 630  1851.367
 631  1636.034
 632  1249.217
 633  972.0145
 634  681.4592
 635  782.5027
 636  981.3925
 637  1111.936
 638  1199.845
 639  1153.32
 640  1329.515
 641  1660.907
 642  2016.161
 643  2539.951
 644  2871.516
 645  3317.787
 646  3511.602
 647  3356.355
 648  2846.503
 649  2302.007
 650  1917.563
 651  1562.064
 652  1077.646
 653  992.7339
 654  936.2268
 655  1033.71
 656  869.3933
 657  763.1942
 658  895.7325
 659  985.7184
 660  1489.828
 661  1807.876
 662  2067.115
 663  2062.111
 664  1683.505
 665  1354.133
 666  1084.269
 667  798.6776
 668  585.8282
 669  565.705
 670  702.7511
 671  1012.986
 672  1061.838
 673  1312.248
 674  1403.049
 675  1946.197
 676  2426.295
 677  2921.406
 678  3172.587
 679  3161.171
 680  3042.704
 681  2772.727
 682  2269.08
 683  1745.105
 684  1419.145
 685  1326.885
 686  1245.992
 687  1129.035
 688  1123.129
 689  936.8864
 690  1008.276
 691  1042.488
 692  1134.966
 693  1400.695
 694  1577.872
 695  1790.877
 696  1820.59
 697  1664.798
 698  1393.404
 699  1083.169
 700  813.3514
 701  790.3776
 702  856.6682
 703  1079.475
 704  1041.423
 705  950.7433
 706  1112.072
 707  1312.761
 708  1820.976
 709  2228.074
 710  2777.09
 711  3078.502
 712  3175.95
 713  3144.156
 714  2765.521
 715  2413.227
 716  1987.048
 717  1688.022
 718  1497.603
 719  1367.541
 720  1384.467
 721  1315.056
 722  1077.868
 723  958.8682
 724  884.6721
 725  932.8381
 726  1089.37
 727  1283.774
 728  1728.41
 729  1552.675
 730  1387.908
 731  1284.448
 732  1277.367
 733  1217.651
 734  1129.182
 735  1198.603
 736  1385.782
 737  1339.478
 738  1536.207
 739  1418.345
 740  1520.512
 741  1762.862
 742  2167.505
 743  2736.464
 744  2917.468
 745  3093.764
 746  2955.289
 747  2693.656
 748  2466.875
 749  2093.358
 750  1808.044
 751  1609.262
 752  1520.128
 753  1520.203
 754  1251.484
 755  1312.575
 756  1179.973
 757  990.2203
 758  1083.836
 759  1305.359
 760  1700.921
 761  1782.399
 762  1785.418
 763  1724.335
 764  1494.833
 765  1148.508
 766  986.6998
 767  1035.741
 768  1388.105
 769  1549.892
 770  1665.296
 771  1590.559
 772  1356.359
 773  1610.735
 774  1872.714
 775  2480.519
 776  2830.325
 777  3065.426
 778  3073.931
 779  2825.001
 780  2801.642
 781  2507.288
 782  2114.101
 783  1858.229
 784  1682.603
 785  1698.605
 786  1544.596
 787  1512.397
 788  1384.537
 789  1107.983
 790  1094.191
 791  1142.182
 792  1305.878
 793  1646.501
 794  1852.214
 795  1993.202
 796  1809.845
 797  1510.325
 798  1328.719
 799  1158.596
 800  1137.068
 801  1203.556
 802  1115.455
 803  1381.714
 804  1375.979
 805  1684.225
 806  1836.115
 807  2195.946
 808  2629.415
 809  2853.621
 810  3258.359
 811  3484.072
 812  3508.026
 813  3097.51
 814  2629.714
 815  2106.079
 816  1694.432
 817  1421.701
 818  1570.591
 819  1602.629
 820  1528.345
 821  1298.051
 822  1080.953
 823  1316.475
 824  1500.387
 825  1806.644
 826  2102.409
 827  2159.222
 828  2226.623
 829  1901.416
 830  1515.411
 831  1193.745
 832  804.2556
 833  791.8652
 834  741.5593
 835  908.8013
 836  1036.858
 837  1085.154
 838  1470.173
 839  1854.372
 840  2367.452
 841  2786.095
 842  2990.891
 843  3366.066
 844  3265.161
 845  3141.723
 846  2608.365
 847  2203.201
 848  1760.849
 849  1541.55
 850  1378.532
 851  1389.025
 852  1223.493
 853  1249.986
 854  1128.353
 855  1150.775
 856  1253.625
 857  1325.773
 858  1553.293
 859  1548.424
 860  1845.195
 861  2073.958
 862  1889.134
 863  1622.993
 864  1287.892
 865  1195.444
 866  1117.761
 867  1029.052
 868  1220.557
 869  1217.206
 870  1281.725
 871  1469.026
 872  1699.172
 873  1957.922
 874  2015.024
 875  2436.146
 876  2999.659
 877  3176.821
 878  3061.65
 879  2694.782
 880  2365.823
 881  2059.318
 882  1774.194
 883  1705.214
 884  1573.999
 885  1672.699
 886  1638.046
 887  1354.771
 888  1123.288
 889  944.738
 890  911.3478
 891  1096.989
 892  1366.507
 893  1829.646
 894  1793.325
 895  1671.789
 896  1503.746
 897  1256.72
 898  1143.071
 899  1021.599
 900  970.64
 901  1143.012
 902  1185.271
 903  1519.761
 904  1430.937
 905  1447.576
 906  1708.982
 907  2159.702
 908  2719.486
 909  2932.091
 910  2984.198
 911  2847.49
 912  2566.591
 913  2328.563
 914  1944.869
 915  1618.846
 916  1531.695
 917  1362.412
 918  1408.98
 919  1282.899
 920  1289.589
 921  1237.346
 922  983.7734
 923  1038.539
 924  1098.182
 925  1368.445
 926  1698.342
 927  1630.851
 928  1488.744
 929  1191.381
 930  1022.214
 931  1115.711
 932  953.0689
 933  1085.001
 934  1245.526
 935  1468.062
 936  1572.068
 937  1519.34
 938  1643.381
 939  1777.837
 940  2226.733
 941  2837.431
 942  3065.725
 943  3106.165
 944  3061.57
 945  2863.454
 946  2472.455
 947  1956.109
 948  1698.299
 949  1463.66
 950  1359.697
 951  1368.592
 952  1284.54
 953  1284.964
 954  1061.988
 955  995.3404
 956  1282.107
 957  1461.385
 958  1937.136
 959  2037.583
 960  2128.153
 961  1935.061
 962  1447.522
 963  1084.807
 964  881.4153
 965  812.2896
 966  982.7608
 967  975.3702
 968  1178.444
 969  1227.25
 970  1453.02
 971  1765.65
 972  2032.972
 973  2394.224
 974  2721.961
 975  2893.684
 976  3158.815
 977  2969.233
 978  2718.335
 979  2113.39
 980  1716.888
 981  1472.158
 982  1303.567
 983  1441.718
 984  1525.449
 985  1470.965
 986  1299.651
 987  985.2966
 988  1150.919
 989  1279.869
 990  1461.805
 991  1766.003
 992  1840.361
 993  2013.341
 994  1800.578
 995  1478.073
 996  1147.403
 997  821.2227
 998  704.9033
 999  826.912
1000  1046.59
1001  1437.282
1002  1319.71
1003  1404.347
1004  1597.831
1005  1876.446
1006  2273.651
1007  2508.903
1008  2925.021
1009  3005.646
1010  2822.498
1011  2592.922
1012  2113.414
1013  1817.824
1014  1502.699
1015  1426.73
1016  1474.705
1017  1509.712
1018  1417.252
1019  1177.391
1020  810.8378
1021  752.2963
1022  643.2643
1023  1033.984
