# Input file       =  1204290524.108213_cleaned.dat
# Candidate        =  PSR_0332+5434
# Telescope        =  AR
# Epoch_topo       =  58182.547952641355
# Epoch_bary       =  N/A
# T_sample         =  0.002
# Data Folded      =  7340032
# Data Avg         =  0.367390037716957
# Data StdDev      =  6.47627451150161 
# Profile Bins     =  512
# Profile Avg      =  5267.85346903085 
# Profile StdDev   =  775.424011671546 
# Reduced chi-sqr  =  0.645
# Prob(Noise)      <  1   (~0.0 sigma)
# P_topo (ms)      =  714.579929773506  +/- 0.000428
# P'_topo (s/s)    =  -0                +/- 2.26e-10
# P''_topo (s/s^2) =  0                 +/- 9.96e-14
# P_bary (ms)      =  N/A
# P'_bary (s/s)    =  N/A
# P''_bary (s/s^2) =  N/A
# P_orb (s)        =  N/A
# asin(i)/c (s)    =  N/A
# eccentricity     =  N/A
# w (rad)          =  N/A
# T_peri           =  N/A
######################################################
   0  4630.73
   1  4683.464
   2  5017.904
   3  4789.476
   4  4943.141
   5  5140.771
   6  4957.878
   7  4919.35
   8  5540.593
   9  5288.416
  10  5442.115
  11  4852.81
  12  4922.338
  13  4830.668
  14  5054.527
  15  5257.957
  16  5095.267
  17  5225.505
  18  4966.289
  19  5044.395
  20  5042.885
  21  4785.899
  22  4679.334
  23  4506.641
  24  4510.674
  25  4699.055
  26  4784.796
  27  5043.4
  28  5215.127
  29  5038.153
  30  5178.698
  31  5334.203
  32  5232.408
  33  5214.998
  34  5533.646
  35  6063.407
  36  6095.993
  37  5947
  38  5974.22
  39  6012.001
  40  5957.835
  41  6134.003
  42  6476.003
  43  6450.914
  44  6314.297
  45  5769.608
  46  6032.91
  47  5998.362
  48  5822.583
  49  5778.736
  50  5889.166
  51  5838.049
  52  5866.213
  53  5513.051
  54  5357.704
  55  5718.472
  56  5599.807
  57  5702.634
  58  5538.236
  59  5766.171
  60  5810.119
  61  5479.221
  62  5647.646
  63  5916.581
  64  5675.775
  65  5336.024
  66  4786.483
  67  4930.323
  68  5172.209
  69  5187.544
  70  5226.722
  71  4879.154
  72  5020.441
  73  5219.976
  74  5245.855
  75  5408.146
  76  5662.633
  77  5557.909
  78  5176.945
  79  4898.81
  80  4772.901
  81  5179.443
  82  5307.915
  83  4993.493
  84  4957.321
  85  5452.126
  86  5248.761
  87  5105.892
  88  5344.191
  89  5335.713
  90  5271.547
  91  5243.088
  92  5450.121
  93  5277.461
  94  5460.952
  95  5553.951
  96  5069.554
  97  5321.136
  98  5031.721
  99  4849.598
 100  4928.403
 101  4833.155
 102  5282.048
 103  5108.992
 104  4790.892
 105  4853.154
 106  4921.403
 107  4935.492
 108  4613.491
 109  4728.246
 110  4804.154
 111  4822.568
 112  4967.141
 113  5132.036
 114  5261.046
 115  5200.826
 116  4986.144
 117  5083.748
 118  5500.58
 119  5573.393
 120  5727.531
 121  5482.031
 122  5345.776
 123  5427.031
 124  5579.648
 125  5428.776
 126  5312.397
 127  5613.23
 128  5271.729
 129  5323.655
 130  5467.776
 131  5256.839
 132  5534.237
 133  5011.856
 134  5168.286
 135  5527.318
 136  5862.625
 137  5583.876
 138  5468.266
 139  5274.438
 140  6019.215
 141  5927.184
 142  6221.171
 143  6249.918
 144  6248.037
 145  6323.19
 146  5756.532
 147  5331.384
 148  5528.636
 149  5597.417
 150  5711.054
 151  5410.814
 152  5279.945
 153  5440.956
 154  5488.861
 155  5094.576
 156  5291.734
 157  5177.893
 158  5130.32
 159  5751.33
 160  5904.547
 161  5587.034
 162  5316.492
 163  5507.739
 164  5677.068
 165  5718.765
 166  5615.498
 167  5978.213
 168  5775.42
 169  6136.645
 170  6028.963
 171  5766.708
 172  5513.335
 173  5697.805
 174  5274.78
 175  5027.408
 176  5013.753
 177  4939.188
 178  5460.659
 179  5307.15
 180  5543.48
 181  5441.339
 182  5457.588
 183  5517.811
 184  5313.608
 185  5438.919
 186  5843.802
 187  6070.637
 188  5872.975
 189  5521.932
 190  5417.058
 191  5588.1
 192  5350.18
 193  5456.983
 194  5551.496
 195  5629.976
 196  5458.498
 197  5288.995
 198  5237.147
 199  5459.027
 200  5489.452
 201  5732.678
 202  5778.912
 203  5925.635
 204  5510.295
 205  5247.804
 206  5716.023
 207  5378.257
 208  5805.072
 209  6015.267
 210  5767.47
 211  4714.322
 212  4896.398
 213  5381.674
 214  5451.441
 215  5160.777
 216  5322.676
 217  5501.36
 218  5287.367
 219  5374.881
 220  5160.848
 221  5496.377
 222  6192.281
 223  6452.459
 224  6122.18
 225  5872.831
 226  5429.281
 227  5456.455
 228  5829.389
 229  5491.542
 230  5849.781
 231  5626.197
 232  5454.675
 233  5026.271
 234  4788.983
 235  5261.215
 236  5118.138
 237  5007.758
 238  4875.823
 239  4715.012
 240  4922.679
 241  5420.206
 242  5456.412
 243  5058.609
 244  5075.513
 245  5049.713
 246  5211.095
 247  5511.501
 248  5890.9
 249  6263.85
 250  6229.398
 251  6141.139
 252  6133.204
 253  6131.538
 254  6116.761
 255  6221.673
 256  6023.342
 257  5709.928
 258  5743.228
 259  6005.778
 260  6201.723
 261  5921.55
 262  5503.663
 263  5682.516
 264  5811.228
 265  5920.708
 266  5806.079
 267  5577.821
 268  5245.375
 269  5192.538
 270  5040.034
 271  5212.545
 272  5542.646
 273  5545.671
 274  5897.116
 275  5328.297
 276  5296.971
 277  5628.993
 278  5762.062
 279  5775.026
 280  5439.543
 281  5737.74
 282  5616.302
 283  5197.586
 284  5584.924
 285  5364.387
 286  4957.551
 287  5253.929
 288  5651.067
 289  5476.737
 290  5531.852
 291  5184.92
 292  4870.901
 293  5018.327
 294  5239.847
 295  5161.916
 296  5055.297
 297  5122.387
 298  5233.272
 299  5379.028
 300  5341.757
 301  5662.392
 302  6124.135
 303  6351.958
 304  6799.95
 305  7139.02
 306  6737.953
 307  5846.881
 308  5479.692
 309  5087.9
 310  5049.767
 311  4993.261
 312  4924.666
 313  4834.628
 314  4830.178
 315  4957.404
 316  4868.269
 317  4497.058
 318  4574.792
 319  4694.869
 320  4854.839
 321  4693.67
 322  4380.335
 323  4368.268
 324  4288.081
 325  4315.57
 326  4313.699
 327  4580.454
 328  4508.192
 329  4757.027
 330  4838.077
 331  5044.199
 332  4815.528
 333  4697.719
 334  4717.624
 335  4911.992
 336  4902.41
 337  4836.896
 338  4968.245
 339  5307.28
 340  4942.225
 341  4819.983
 342  4502.035
 343  4385.665
 344  4670.582
 345  4806.83
 346  4995.023
 347  5248.272
 348  5442.88
 349  5519.419
 350  5061.671
 351  4819.522
 352  4853.005
 353  4845.935
 354  4854.168
 355  4907.54
 356  4689.516
 357  4993.631
 358  4623.889
 359  4694.848
 360  4786.67
 361  4696.078
 362  4738.511
 363  4868.23
 364  4832.369
 365  4987.042
 366  5035.229
 367  5165.899
 368  5232.731
 369  5324.165
 370  5318.116
 371  5329.002
 372  4917.698
 373  5155.686
 374  5440.756
 375  5664.326
 376  5442.34
 377  5446.386
 378  5559.298
 379  5588.09
 380  5707.969
 381  5693.218
 382  5388.416
 383  5520.705
 384  5143.441
 385  4748.095
 386  4617.802
 387  4618.072
 388  5039.611
 389  5247.452
 390  5000.774
 391  5047.801
 392  4748.751
 393  5097.969
 394  4968.116
 395  4900.186
 396  4810.982
 397  4572.899
 398  4974.401
 399  4750.02
 400  4810.262
 401  4851.533
 402  5112.666
 403  5226.265
 404  5185.419
 405  5361.627
 406  5274.516
 407  5107.808
 408  4964.833
 409  5081.671
 410  5599.17
 411  5803.948
 412  5526.175
 413  5759.654
 414  5698.955
 415  5347.938
 416  5028.944
 417  4480.71
 418  4812.313
 419  4683.392
 420  4674.293
 421  4707.02
 422  4817.169
 423  5044.051
 424  4626.288
 425  4632.04
 426  4638.242
 427  4770.747
 428  4991.902
 429  5124.183
 430  5043.584
 431  5324.077
 432  4571.308
 433  4318.606
 434  4587.929
 435  5042.842
 436  5332.768
 437  5374.602
 438  5118.168
 439  5092.893
 440  4939.769
 441  4788.062
 442  4887.969
 443  4946.163
 444  5186.712
 445  5212.11
 446  5497.626
 447  5295.664
 448  5032.73
 449  4860.471
 450  4740.197
 451  4880.893
 452  4883.985
 453  4730.82
 454  4748.977
 455  4814.442
 456  4886.802
 457  4785.947
 458  4722.474
 459  4900.125
 460  4773.952
 461  4847.573
 462  5248.767
 463  5076.332
 464  4959.283
 465  4631.612
 466  5195.612
 467  5126.887
 468  5305.414
 469  5014.524
 470  4384.077
 471  4838.6
 472  4895.55
 473  4975.778
 474  5149.107
 475  5469.896
 476  4951.04
 477  4900.443
 478  5190.975
 479  5024.954
 480  4851.493
 481  5186.545
 482  5180.332
 483  5031.649
 484  5017.855
 485  5386.698
 486  5420.438
 487  5808.037
 488  5838.711
 489  5738.917
 490  5739.727
 491  5249.301
 492  5420.638
 493  5658.118
 494  5768.731
 495  5720.676
 496  5001.52
 497  4816.225
 498  4959.072
 499  4885.616
 500  4950.622
 501  4919.157
 502  4658.767
 503  4719.14
 504  4580.974
 505  4684.063
 506  4955.288
 507  4960.766
 508  4773.455
 509  4748.75
 510  4578.014
 511  4841.073
