# Input file       =  1204878933.116375_cleaned.dat
# Candidate        =  PSR_0332+5434
# Telescope        =  AR
# Epoch_topo       =  58189.358242087670
# Epoch_bary       =  N/A
# T_sample         =  0.002
# Data Folded      =  7208960
# Data Avg         =  0.0870605020184387
# Data StdDev      =  1.00006141087245 
# Profile Bins     =  512
# Profile Avg      =  1225.71006319885 
# Profile StdDev   =  118.666462757041 
# Reduced chi-sqr  =  1.338
# Prob(Noise)      <  4.65e-07   (~4.9 sigma)
# P_topo (ms)      =  714.578397180726  +/- 0.000173
# P'_topo (s/s)    =  -0                +/- 9.27e-11
# P''_topo (s/s^2) =  0                 +/- 4.17e-14
# P_bary (ms)      =  N/A
# P'_bary (s/s)    =  N/A
# P''_bary (s/s^2) =  N/A
# P_orb (s)        =  N/A
# asin(i)/c (s)    =  N/A
# eccentricity     =  N/A
# w (rad)          =  N/A
# T_peri           =  N/A
######################################################
   0  1152.545
   1  1172.841
   2  1133.008
   3  1130.472
   4  1200.211
   5  1230.106
   6  1190.819
   7  1119.086
   8  1158.876
   9  1125.039
  10  1107.583
  11  1161.767
  12  1167.562
  13  1144.351
  14  1147.605
  15  1122.481
  16  1142.033
  17  1143.879
  18  1114.899
  19  1141.006
  20  1146.937
  21  1122.967
  22  1031.291
  23  1107.375
  24  1207.867
  25  1189.369
  26  1217.067
  27  1094.742
  28  1078.305
  29  1228.21
  30  1367.002
  31  1316.657
  32  1304.086
  33  1226.552
  34  1213.862
  35  1107.017
  36  1145.949
  37  1112.905
  38  1125.921
  39  1194.593
  40  1150.57
  41  1232.451
  42  1244.286
  43  1187.811
  44  1206.305
  45  1272.984
  46  1351.004
  47  1347.769
  48  1179.571
  49  1275.433
  50  1283.819
  51  1228.205
  52  1166.509
  53  1231.845
  54  1235.516
  55  1320.541
  56  1319.397
  57  1195.777
  58  1037.483
  59  1169.903
  60  1239.984
  61  1241.53
  62  1353.613
  63  1351.965
  64  1356.222
  65  1260.601
  66  1252.691
  67  1350.087
  68  1337.166
  69  1254.057
  70  1341.941
  71  1338.334
  72  1264.541
  73  1314.563
  74  1333.207
  75  1362.735
  76  1301.531
  77  1300.42
  78  1279.298
  79  1150.797
  80  1288.271
  81  1335.117
  82  1289.091
  83  1255.055
  84  1155.369
  85  1205.902
  86  1255.899
  87  1209.125
  88  1227.375
  89  1233.732
  90  1307.394
  91  1375.27
  92  1330.006
  93  1304.693
  94  1324.472
  95  1421.437
  96  1426.516
  97  1277.006
  98  1166.181
  99  1174.591
 100  1350.114
 101  1416.357
 102  1308.968
 103  1290.773
 104  1260.934
 105  1159.57
 106  1247.682
 107  1216.579
 108  1257.493
 109  1204.971
 110  1322.343
 111  1274.203
 112  1332.505
 113  1302.211
 114  1183.719
 115  1185.882
 116  1244.977
 117  1280.701
 118  1195.918
 119  1145.768
 120  1154.771
 121  1180.161
 122  1091.866
 123  1085.188
 124  1094.397
 125  1030.846
 126  1221.458
 127  1326.65
 128  1239.836
 129  1277.111
 130  1255.508
 131  1208.201
 132  1252.332
 133  1243.747
 134  1159.845
 135  1284.655
 136  1302.534
 137  1266.377
 138  1176.558
 139  1144.038
 140  1151.917
 141  1209.893
 142  1247.542
 143  1273.984
 144  1179.348
 145  1207.678
 146  1399.044
 147  1344.821
 148  1196.65
 149  1159.99
 150  1164.519
 151  1044.676
 152  1020.24
 153  1138.682
 154  1255.833
 155  1250.633
 156  1205.166
 157  1156.806
 158  1178.768
 159  1244.332
 160  1283.173
 161  1265.135
 162  1202.132
 163  1301.896
 164  1222.935
 165  1166.185
 166  1316.768
 167  1280.048
 168  1251.556
 169  1348.548
 170  1237.955
 171  1311.758
 172  1265.457
 173  1242.042
 174  1118.865
 175  1140.468
 176  1293.257
 177  1223.036
 178  1219.285
 179  1302.667
 180  1300.486
 181  1225.49
 182  1203.534
 183  1143.026
 184  1177.792
 185  1262.521
 186  1271.719
 187  1068.32
 188  1075.111
 189  1224.277
 190  1273.638
 191  1173.766
 192  1190.458
 193  1248.113
 194  1239.21
 195  1225.716
 196  1205.402
 197  1213.791
 198  1256.881
 199  1341.318
 200  1345.921
 201  1217.259
 202  1193.811
 203  1161.948
 204  1236.871
 205  1231.509
 206  1295.852
 207  1343.173
 208  1256.265
 209  1215.936
 210  1327.672
 211  1433.531
 212  1335.288
 213  1415.667
 214  1324.854
 215  1375.755
 216  1510.944
 217  1647.871
 218  1681.575
 219  1645.246
 220  1640.524
 221  1491.997
 222  1361.969
 223  1235.348
 224  1250.69
 225  1286.943
 226  1365.576
 227  1248.683
 228  1222.774
 229  1249.798
 230  1306.346
 231  1222.743
 232  1242.108
 233  1200.792
 234  1218.029
 235  1235.576
 236  1289.199
 237  1146.066
 238  1130.538
 239  1180.743
 240  1125.545
 241  1146.706
 242  1266.392
 243  1235.012
 244  1225.885
 245  1298.158
 246  1252.047
 247  1171.676
 248  1205.748
 249  1263.182
 250  1353.782
 251  1345.039
 252  1264.03
 253  1301.07
 254  1208.843
 255  1191.883
 256  1138.237
 257  1254.606
 258  1261.088
 259  1142.019
 260  1309.284
 261  1394.912
 262  1339.895
 263  1248.782
 264  1304.693
 265  1212.788
 266  1294.009
 267  1323.458
 268  1305.767
 269  1328.24
 270  1276.742
 271  1230.108
 272  1242.424
 273  1263.153
 274  1218.399
 275  1236.656
 276  1274.534
 277  1324.778
 278  1370.199
 279  1386.253
 280  1348.366
 281  1331.59
 282  1335.204
 283  1334.413
 284  1233.593
 285  1329.035
 286  1342.55
 287  1246.522
 288  1205.875
 289  1266.822
 290  1202.651
 291  1176.149
 292  1258.71
 293  1376.808
 294  1486.039
 295  1437.303
 296  1350.724
 297  1256.349
 298  1204.925
 299  1313.493
 300  1243.254
 301  1178.428
 302  1243.258
 303  1278.113
 304  1258.465
 305  1241.275
 306  1111.749
 307  1234.633
 308  1278.549
 309  1328.617
 310  1393.137
 311  1301.544
 312  1327.676
 313  1311.885
 314  1277.453
 315  1322.42
 316  1190.803
 317  1178.9
 318  1332.946
 319  1204.492
 320  1230.428
 321  1283.267
 322  1190.477
 323  1069.15
 324  1137.549
 325  1206.35
 326  1177.076
 327  1202.548
 328  1275.23
 329  1275.284
 330  1056.315
 331  1006.465
 332  1115.708
 333  1138.51
 334  1204.899
 335  1091.959
 336  1115.952
 337  1132.044
 338  1145.247
 339  1052.45
 340  1039.88
 341  1148.32
 342  1208.057
 343  1140.776
 344  1181.925
 345  1120.241
 346  1128.144
 347  1049.889
 348  1159.103
 349  1271.584
 350  1145.306
 351  1162.287
 352  1239.761
 353  1189.055
 354  1092.026
 355  1120.838
 356  1139.733
 357  1154.689
 358  1181.152
 359  1193.46
 360  1189.765
 361  1138.644
 362  1198.285
 363  1129.403
 364  1094.865
 365  1122.504
 366  1003.047
 367  975.9514
 368  1043.363
 369  1153.042
 370  1168.67
 371  1103.455
 372  1077.576
 373  1082.819
 374  1109.923
 375  1088.371
 376  1094.765
 377  1122.571
 378  1163.417
 379  1251.206
 380  1138.79
 381  1143.43
 382  1189.936
 383  1123.101
 384  1081.536
 385  1125.186
 386  1137.432
 387  1061.163
 388  988.836
 389  1079.006
 390  1100.65
 391  1243.606
 392  1188.728
 393  1247.987
 394  1178.682
 395  1229.453
 396  1098.034
 397  1063.991
 398  1120.296
 399  1066.393
 400  978.2854
 401  1011.179
 402  1124.929
 403  1139.164
 404  1111.305
 405  1057.844
 406  1101.222
 407  1071.66
 408  1153.089
 409  1209.277
 410  1173.04
 411  1127.879
 412  1062.725
 413  1059.22
 414  1113.077
 415  1166.209
 416  1232.055
 417  1260.263
 418  1163.92
 419  1164.908
 420  1242.754
 421  1199.284
 422  1297.542
 423  1237.799
 424  1160.95
 425  1267.843
 426  1361.255
 427  1367.711
 428  1274.088
 429  1273.691
 430  1415.152
 431  1328.456
 432  1255.077
 433  1240.598
 434  1236.331
 435  1253.8
 436  1337.495
 437  1272.843
 438  1157.121
 439  1138.631
 440  1306.766
 441  1327.75
 442  1378.964
 443  1326.969
 444  1256.36
 445  1229.616
 446  1211.597
 447  1223.551
 448  1266.099
 449  1205.005
 450  1250.058
 451  1288.547
 452  1262.169
 453  1315.272
 454  1314.041
 455  1372.135
 456  1377.168
 457  1369.669
 458  1272.072
 459  1303.467
 460  1317.65
 461  1362.074
 462  1380.648
 463  1369.254
 464  1247.211
 465  1288.439
 466  1421.711
 467  1330.861
 468  1295.759
 469  1217.06
 470  1162.992
 471  1134.61
 472  1196.96
 473  1186.786
 474  1211.818
 475  1272.292
 476  1245.706
 477  1296.832
 478  1257.106
 479  1222.056
 480  1210.075
 481  1186.143
 482  1232.538
 483  1191.688
 484  1084.596
 485  991.0927
 486  1023.865
 487  1075.164
 488  1105.676
 489  1120.234
 490  1164.97
 491  1325.891
 492  1404.885
 493  1249.334
 494  1269.4
 495  1161.513
 496  1155.357
 497  1118.842
 498  1028.258
 499  1118.019
 500  1145.827
 501  1217.131
 502  1250.94
 503  1185.524
 504  1199.936
 505  1201.695
 506  1091.83
 507  1133.578
 508  1162.857
 509  1215.018
 510  1308.407
 511  1281.547
