# Input file       =  1204908475.111136_cleaned.dat
# Candidate        =  PSR_0332+5434
# Telescope        =  AR
# Epoch_topo       =  58189.700163323330
# Epoch_bary       =  N/A
# T_sample         =  0.002
# Data Folded      =  7340032
# Data Avg         =  0.152073722158094
# Data StdDev      =  4.91472785765099 
# Profile Bins     =  1024
# Profile Avg      =  1090.13940206584 
# Profile StdDev   =  416.100725532985 
# Reduced chi-sqr  =  0.774
# Prob(Noise)      <  1   (~0.0 sigma)
# P_topo (ms)      =  714.578642688619  +/- 0.00126
# P'_topo (s/s)    =  -0                +/- 6.66e-10
# P''_topo (s/s^2) =  0                 +/- 2.94e-13
# P_bary (ms)      =  N/A
# P'_bary (s/s)    =  N/A
# P''_bary (s/s^2) =  N/A
# P_orb (s)        =  N/A
# asin(i)/c (s)    =  N/A
# eccentricity     =  N/A
# w (rad)          =  N/A
# T_peri           =  N/A
######################################################
   0  1271.68
   1  1345.696
   2  1340.417
   3  1191.783
   4  1134.618
   5  1174.704
   6  1152.764
   7  1192.436
   8  1157.347
   9  1333.4
  10  1269.658
  11  1324.6
  12  1156.843
  13  1103.517
  14  1051.946
  15  1078.551
  16  1066.219
  17  1007.043
  18  1115.721
  19  1170.138
  20  1248.355
  21  1263.052
  22  1283.684
  23  1341.517
  24  1412.811
  25  1512.844
  26  1381.523
  27  1352.916
  28  1232.854
  29  1234.105
  30  1029.594
  31  972.7788
  32  854.7234
  33  858.9093
  34  944.0643
  35  990.8835
  36  941.1526
  37  994.0789
  38  1102.453
  39  1185.517
  40  1081.934
  41  1078.642
  42  1085.025
  43  1201.454
  44  1151.569
  45  1169.617
  46  1242.186
  47  1278.287
  48  1313.538
  49  1230.432
  50  1046.219
  51  968.0733
  52  1096.753
  53  1200.503
  54  1224.233
  55  1071.774
  56  1119.82
  57  1020.195
  58  1015.583
  59  1088.516
  60  1211.194
  61  1237.395
  62  1129.45
  63  999.4565
  64  1001.133
  65  1002.111
  66  1185.15
  67  1246.452
  68  1362.431
  69  1277.223
  70  1125.073
  71  972.7722
  72  975.8718
  73  993.2263
  74  995.0685
  75  809.5768
  76  831.1143
  77  767.3533
  78  856.8251
  79  1037.579
  80  1130.176
  81  1111.775
  82  855.8959
  83  879.3042
  84  972.3083
  85  1134.939
  86  1113.302
  87  1001.73
  88  895.9183
  89  1034.485
  90  1240.582
  91  1184.365
  92  1018.459
  93  1011.177
  94  1070.504
  95  963.5714
  96  761.3576
  97  828.3279
  98  830.1647
  99  1059.753
 100  1127.889
 101  1374.277
 102  1322.182
 103  1194.218
 104  1130.207
 105  1067.99
 106  1102.675
 107  1029.84
 108  1005.855
 109  1044.837
 110  1048.644
 111  1191.387
 112  1238.596
 113  1211.055
 114  1092.565
 115  862.4211
 116  819.8243
 117  872.0244
 118  939.8591
 119  888.425
 120  921.9549
 121  1003.887
 122  964.9053
 123  862.165
 124  870.8899
 125  776.8696
 126  906.3634
 127  887.3089
 128  951.9995
 129  860.1909
 130  767.9968
 131  908.9653
 132  1058.996
 133  1271.847
 134  1140.032
 135  1098.764
 136  1043.536
 137  1005.1
 138  951.4686
 139  941.9906
 140  956.2521
 141  840.9686
 142  794.782
 143  759.1562
 144  901.6167
 145  1032.909
 146  1026.072
 147  900.6757
 148  860.6515
 149  862.6658
 150  873.6198
 151  729.5298
 152  664.016
 153  592.3362
 154  631.3422
 155  676.1083
 156  768.1598
 157  795.9521
 158  769.447
 159  833.0482
 160  766.3954
 161  987.5294
 162  1112.602
 163  1067.03
 164  924.7827
 165  894.4531
 166  945.6517
 167  954.8049
 168  799.1972
 169  762.0411
 170  670.5133
 171  694.706
 172  615.6741
 173  699.7128
 174  765.0927
 175  842.2102
 176  775.6467
 177  767.0165
 178  657.3202
 179  741.2512
 180  856.4648
 181  959.0833
 182  949.468
 183  992.4077
 184  1007.33
 185  1004.181
 186  1026.47
 187  1207.109
 188  1191.436
 189  1059.183
 190  861.0967
 191  898.9656
 192  872.9107
 193  909.327
 194  809.7974
 195  773.5576
 196  795.97
 197  727.7609
 198  855.6938
 199  975.3898
 200  1088.408
 201  1186.1
 202  1117.297
 203  1046.364
 204  1016.438
 205  1021.691
 206  913.6663
 207  769.7236
 208  745.8985
 209  822.5921
 210  901.7141
 211  968.0111
 212  1014.636
 213  997.2717
 214  884.8273
 215  910.5887
 216  830.7034
 217  972.7025
 218  877.0862
 219  878.1157
 220  832.4914
 221  870.0709
 222  887.8056
 223  835.1222
 224  880.1765
 225  926.7932
 226  968.9924
 227  1117.098
 228  1119.615
 229  1148.043
 230  1038.596
 231  853.9526
 232  820.7086
 233  860.0101
 234  904.8763
 235  897.4063
 236  885.2531
 237  897.7642
 238  931.3597
 239  1030.643
 240  1093.048
 241  1056.461
 242  1023.261
 243  1051.054
 244  1025.753
 245  1021.921
 246  1067.032
 247  1096.856
 248  1171.336
 249  1087.347
 250  1115.9
 251  1024.425
 252  812.5544
 253  810.2313
 254  1006.199
 255  1264.582
 256  1220.825
 257  1184.041
 258  1068.781
 259  1075.343
 260  1114.209
 261  1142.425
 262  1127.797
 263  1079.259
 264  1062.62
 265  1050.904
 266  1061.027
 267  1091.138
 268  1036.713
 269  1107.199
 270  1148.863
 271  1174.536
 272  1091.057
 273  1067.774
 274  1013.916
 275  1024.675
 276  1053.212
 277  1063.229
 278  1145.719
 279  1179.197
 280  1273.638
 281  1165.789
 282  1151.81
 283  1054.039
 284  1066.603
 285  1020.702
 286  960.1009
 287  974.9988
 288  932.1331
 289  946.3696
 290  818.8796
 291  797.9676
 292  813.5588
 293  905.9519
 294  870.9135
 295  937.553
 296  905.6766
 297  981.4735
 298  979.0266
 299  1014.312
 300  921.2236
 301  870.0715
 302  920.1779
 303  1128.86
 304  1125.931
 305  1193.153
 306  922.4901
 307  994.6057
 308  901.2072
 309  1100.879
 310  1064.066
 311  1176.46
 312  1141.286
 313  1069.924
 314  922.8018
 315  1015.609
 316  1049.756
 317  1120.536
 318  1052.304
 319  1175.695
 320  1110.229
 321  1274.916
 322  1228.446
 323  1188.048
 324  1089.302
 325  1114.237
 326  1268.607
 327  1243.164
 328  1173.363
 329  1104.062
 330  1299.665
 331  1317.998
 332  1294.385
 333  1224.911
 334  1233.546
 335  1227.469
 336  1159.524
 337  1177.406
 338  1182.09
 339  1192.844
 340  1209.242
 341  1138.004
 342  1225.176
 343  1303.567
 344  1386.028
 345  1312.867
 346  1321.401
 347  1325.996
 348  1386.5
 349  1407.758
 350  1291.591
 351  988.6495
 352  873.7156
 353  1056.397
 354  1343.271
 355  1284.421
 356  1125.408
 357  1027.934
 358  1091.794
 359  1152.868
 360  1094.487
 361  949.9579
 362  903.8466
 363  1063.57
 364  1100.421
 365  1069.869
 366  969.2829
 367  1074.078
 368  999.7375
 369  891.892
 370  749.1835
 371  799.1129
 372  776.4036
 373  731.8997
 374  747.2876
 375  852.1127
 376  819.4033
 377  857.3298
 378  866.1383
 379  867.7275
 380  810.4044
 381  809.3432
 382  818.0288
 383  816.9075
 384  802.4431
 385  809.679
 386  807.9436
 387  977.3906
 388  985.6283
 389  954.6744
 390  814.7313
 391  783.3958
 392  797.7477
 393  832.7909
 394  946.6859
 395  959.8616
 396  894.088
 397  906.9017
 398  967.952
 399  974.325
 400  963.6736
 401  962.0237
 402  1052.853
 403  966.0932
 404  1078.137
 405  1056.055
 406  1168.01
 407  1178.351
 408  1160.926
 409  1041.998
 410  801.6349
 411  882.357
 412  973.482
 413  1048.538
 414  1057.016
 415  1139.384
 416  1162.206
 417  1031.812
 418  964.3664
 419  1054.497
 420  1147.308
 421  965.833
 422  916.4313
 423  927.1326
 424  1046.569
 425  981.3144
 426  1000.813
 427  1058.437
 428  1078.466
 429  1198.158
 430  1083.041
 431  930.4136
 432  851.7679
 433  893.9022
 434  955.1644
 435  906.4761
 436  863.8706
 437  958.9316
 438  888.3218
 439  902.4789
 440  877.9266
 441  1022.684
 442  1027.463
 443  937.6862
 444  955.5543
 445  986.0419
 446  1064.031
 447  1285.944
 448  1346.063
 449  1274.239
 450  1105.696
 451  979.6606
 452  966.4428
 453  1051.893
 454  1097.336
 455  1116.047
 456  1121.122
 457  954.9427
 458  883.9341
 459  845.6696
 460  1129.292
 461  1226.539
 462  1213.117
 463  1167.287
 464  1159.806
 465  1147.397
 466  1206.069
 467  1133.359
 468  1180.029
 469  1075.691
 470  1060.245
 471  974.0256
 472  901.2823
 473  804.873
 474  893.2702
 475  873.804
 476  997.0406
 477  930.5225
 478  998.4703
 479  980.161
 480  1057.269
 481  1054.387
 482  1115.642
 483  1111.812
 484  1094.837
 485  990.6545
 486  1052.015
 487  1188.989
 488  1247.813
 489  1179.026
 490  1109.997
 491  1119.841
 492  1049.419
 493  1028.044
 494  1079.496
 495  1222.063
 496  1220.527
 497  1173.456
 498  1090.173
 499  1008.452
 500  1052.012
 501  1148.715
 502  1066.467
 503  1025.802
 504  1009.627
 505  1137.243
 506  1052.912
 507  1085.276
 508  1168.488
 509  1182.049
 510  1178.984
 511  1174.363
 512  1155.098
 513  1162.079
 514  1163.658
 515  1151.422
 516  1067.997
 517  922.9307
 518  1084.564
 519  1196.631
 520  1225.036
 521  1015.851
 522  875.1436
 523  1074.524
 524  1060.27
 525  1114.531
 526  1009.476
 527  1078.86
 528  1160.38
 529  1322.323
 530  1435.113
 531  1290.997
 532  1133.239
 533  1034.843
 534  1058.901
 535  1160.708
 536  1322.063
 537  1438.828
 538  1394.349
 539  1279.988
 540  1222.972
 541  1250.442
 542  1361.272
 543  1406.309
 544  1348.889
 545  1277.268
 546  1116.66
 547  1142.452
 548  1204.953
 549  1346.244
 550  1406.528
 551  1501.177
 552  1422.808
 553  1393.073
 554  1349.511
 555  1366.901
 556  1459.245
 557  1358.23
 558  1407.659
 559  1409.428
 560  1452.247
 561  1369.305
 562  1229.646
 563  1461.015
 564  1540.081
 565  1587.737
 566  1515.11
 567  1384.69
 568  1322.763
 569  1278.966
 570  1349.812
 571  1327.175
 572  1276.043
 573  1260.932
 574  1271.305
 575  1309.961
 576  1305.741
 577  1391.408
 578  1344.108
 579  1320.564
 580  1350.134
 581  1351.877
 582  1297.963
 583  1217.984
 584  1205.543
 585  1254.77
 586  1226.258
 587  1184.358
 588  1053.355
 589  1133.228
 590  1235.195
 591  1297.421
 592  1273.44
 593  1280.578
 594  1563.687
 595  1699.947
 596  1745.516
 597  1680.76
 598  1763.54
 599  1859.89
 600  1754.941
 601  1630.738
 602  1582.846
 603  1619.702
 604  1845.874
 605  1956.06
 606  2108.289
 607  2266.473
 608  2313.773
 609  2354.158
 610  2170.707
 611  2062.46
 612  1915.855
 613  1736.816
 614  1567.038
 615  1384.16
 616  1345.831
 617  1350.122
 618  1462.025
 619  1429.397
 620  1366.24
 621  1234.141
 622  1355.488
 623  1421.428
 624  1433.021
 625  1229.989
 626  1219.36
 627  1114.286
 628  1016.714
 629  994.7064
 630  1153.265
 631  1283.744
 632  1393.718
 633  1448.672
 634  1382.027
 635  1369.444
 636  1277.406
 637  1414.441
 638  1550.568
 639  1718.682
 640  1555.676
 641  1434.518
 642  1271.832
 643  1253.905
 644  1202.367
 645  1207.725
 646  1143.436
 647  1134.935
 648  1171.125
 649  1169.058
 650  1127.988
 651  1187.657
 652  1196.117
 653  1169.666
 654  1095.556
 655  1150.083
 656  1190.839
 657  1207.437
 658  1149.228
 659  1113.12
 660  1182.531
 661  1102.073
 662  1010.714
 663  1020.932
 664  1015.319
 665  1068.536
 666  991.9813
 667  904.6232
 668  915.4615
 669  946.817
 670  1016.891
 671  929.2817
 672  962.3131
 673  1069.103
 674  1127.17
 675  1068.559
 676  1058.238
 677  1218.285
 678  1236.929
 679  1245.443
 680  1248.456
 681  1251.816
 682  1352.062
 683  1259.069
 684  1315.791
 685  1201.791
 686  1167.136
 687  1167.614
 688  1134.095
 689  1087.88
 690  1110.362
 691  1136.935
 692  1128.951
 693  1019.414
 694  1086.771
 695  1160.519
 696  1130.414
 697  1236.535
 698  1297.4
 699  1313.761
 700  1115.936
 701  1018.633
 702  947.9534
 703  1038.766
 704  1079.808
 705  1275.05
 706  1322.848
 707  1265.317
 708  1164.733
 709  1239.303
 710  1263.292
 711  1242.688
 712  1181.728
 713  1198.037
 714  1139.914
 715  1090.981
 716  1031.635
 717  1014.613
 718  1073.869
 719  1188.172
 720  1308.664
 721  1168.574
 722  1137.844
 723  1188.464
 724  1293.781
 725  1183.157
 726  1206.854
 727  1245.262
 728  1258.748
 729  1021.768
 730  1059.821
 731  1125.568
 732  1329.593
 733  1305.918
 734  1236.179
 735  1082.444
 736  892.3326
 737  917.7695
 738  994.3273
 739  1073.427
 740  1078.984
 741  1176.675
 742  1354.777
 743  1175.801
 744  1105.911
 745  1070.946
 746  1142.477
 747  1065.36
 748  1007.561
 749  1030.138
 750  1105.613
 751  1150.113
 752  1190.358
 753  1077.79
 754  786.4342
 755  641.4222
 756  749.5554
 757  994.6939
 758  1071.539
 759  937.1175
 760  821.4733
 761  815.2126
 762  978.712
 763  1027.981
 764  911.4452
 765  906.3129
 766  952.6633
 767  1054.248
 768  1039.826
 769  1029.563
 770  1001.857
 771  992.0789
 772  866.0981
 773  890.0738
 774  883.889
 775  931.2727
 776  998.6412
 777  1155.844
 778  1069.895
 779  935.7539
 780  946.4948
 781  961.054
 782  949.554
 783  965.301
 784  1010.463
 785  1078.64
 786  1029.877
 787  1064.316
 788  1024.29
 789  925.1276
 790  800.1555
 791  824.4689
 792  887.8891
 793  829.9662
 794  826.9861
 795  1004.225
 796  1119.839
 797  1132.494
 798  1063.817
 799  1011.195
 800  817.6693
 801  862.4247
 802  1040.548
 803  1125.419
 804  1043.186
 805  817.2255
 806  770.7974
 807  708.1512
 808  847.6987
 809  940.1083
 810  1150.111
 811  1098.186
 812  1058.571
 813  1022.322
 814  1084.293
 815  1029.097
 816  1090.884
 817  1163.867
 818  1283.021
 819  1249.712
 820  1165.373
 821  1053.926
 822  938.6695
 823  900.2372
 824  1002.644
 825  1065.193
 826  1169.809
 827  1170.198
 828  1130.604
 829  999.1378
 830  1051.446
 831  1116.356
 832  1220.479
 833  1198.318
 834  1200.369
 835  1133.312
 836  1163.118
 837  1116.108
 838  1235.828
 839  1164.254
 840  1168.147
 841  1146.312
 842  1348.455
 843  1405.853
 844  1302.352
 845  1155.957
 846  1069.939
 847  1146.693
 848  1182.511
 849  1141.255
 850  1025.172
 851  933.4039
 852  835.4909
 853  829.7868
 854  748.5013
 855  834.9467
 856  755.3311
 857  901.0677
 858  858.6052
 859  1056.2
 860  950.7133
 861  1019.458
 862  1038.501
 863  1219.828
 864  1142.713
 865  1095.318
 866  1056.6
 867  1085.89
 868  1211.523
 869  1128.365
 870  948.0566
 871  785.0828
 872  812.516
 873  976.6456
 874  1130.707
 875  964.761
 876  872.1177
 877  776.5488
 878  990.2239
 879  1089.733
 880  1161.252
 881  1097.76
 882  1163.688
 883  1078.295
 884  1200.831
 885  1174.006
 886  1169.606
 887  952.1364
 888  725.3544
 889  809.7875
 890  872.3859
 891  798.74
 892  834.2559
 893  794.4488
 894  1047.274
 895  1035.259
 896  1174.835
 897  1091.542
 898  1173.298
 899  1059.187
 900  1024.183
 901  938.7286
 902  946.5989
 903  978.6301
 904  957.7203
 905  1023.845
 906  1058.074
 907  1111.014
 908  1039.507
 909  1032.352
 910  1140.781
 911  1199.946
 912  1161.017
 913  1110.625
 914  1178.719
 915  1217.665
 916  1245.443
 917  1147.542
 918  1036.87
 919  1004.423
 920  931.1657
 921  1036.932
 922  1068.283
 923  1129.086
 924  1114.876
 925  1111.521
 926  1112.724
 927  1155.442
 928  1190.131
 929  1171.801
 930  1167.118
 931  1166.102
 932  1269.369
 933  1338.339
 934  1311.311
 935  1168.36
 936  1001.129
 937  965.9137
 938  980.6599
 939  1089.387
 940  1261.58
 941  1278.001
 942  1143.017
 943  1008.666
 944  997.7195
 945  1012.37
 946  1052.87
 947  1160.855
 948  1180.642
 949  1166.063
 950  1192.615
 951  1158.698
 952  1028.947
 953  939.6149
 954  891.7039
 955  932.1352
 956  1043.639
 957  1206.495
 958  1254.223
 959  1222.84
 960  1213.613
 961  1198.875
 962  1206.747
 963  1223.945
 964  1291.222
 965  1239.575
 966  1188.277
 967  1101.772
 968  1150.072
 969  1129.38
 970  983.7103
 971  918.4023
 972  947.728
 973  1099.816
 974  1114.879
 975  1270.39
 976  1223.121
 977  1122.387
 978  958.2234
 979  885.6475
 980  932.5607
 981  1151.501
 982  1207.419
 983  1175.215
 984  1094.922
 985  1132.066
 986  1074.257
 987  1082.96
 988  1020.523
 989  981.7378
 990  916.8985
 991  867.1696
 992  795.9751
 993  942.7397
 994  1090.673
 995  1163.114
 996  1114.019
 997  1185.463
 998  1106.732
 999  1103.954
1000  988.7343
1001  1020.592
1002  1019.691
1003  953.5162
1004  932.0446
1005  984.4518
1006  1114.523
1007  1123.824
1008  1159.648
1009  1009.57
1010  911.4384
1011  885.6349
1012  1036.113
1013  1103.263
1014  1174.621
1015  1195.627
1016  1111.856
1017  1124.429
1018  1197.374
1019  1130.468
1020  1133.757
1021  1131.807
1022  1249.491
1023  1203.786
