# Input file       =  1204118180.101071_cleaned.dat
# Candidate        =  PSR_0332+5434
# Telescope        =  AR
# Epoch_topo       =  58180.553230336467
# Epoch_bary       =  N/A
# T_sample         =  0.002
# Data Folded      =  7340032
# Data Avg         =  0.726752869344117
# Data StdDev      =  8.78016524199429 
# Profile Bins     =  1024
# Profile Avg      =  5208.89675501401 
# Profile StdDev   =  743.364278411845 
# Reduced chi-sqr  =  1.331
# Prob(Noise)      <  4.85e-12   (~6.8 sigma)
# P_topo (ms)      =  714.580223731953  +/- 0.000942
# P'_topo (s/s)    =  -0                +/- 4.97e-10
# P''_topo (s/s^2) =  0                 +/- 2.2e-13
# P_bary (ms)      =  N/A
# P'_bary (s/s)    =  N/A
# P''_bary (s/s^2) =  N/A
# P_orb (s)        =  N/A
# asin(i)/c (s)    =  N/A
# eccentricity     =  N/A
# w (rad)          =  N/A
# T_peri           =  N/A
######################################################
   0  4547.817
   1  4593.182
   2  4554.688
   3  4505.642
   4  4533.842
   5  4712.768
   6  4778.321
   7  4675.683
   8  4714.625
   9  4707.714
  10  4805.996
  11  4903.177
  12  4922.875
  13  4819.46
  14  4892.755
  15  4872.031
  16  4859.571
  17  4813.474
  18  4818.32
  19  4814.286
  20  4810.003
  21  4756.352
  22  4711.698
  23  4708.735
  24  4778.167
  25  4871.999
  26  5004.649
  27  5072.145
  28  5054.854
  29  4994.906
  30  5048.637
  31  5212.631
  32  5263.954
  33  5115.354
  34  4930.541
  35  5002.141
  36  5021.126
  37  5045.783
  38  5118.158
  39  5147.254
  40  5076.803
  41  4899.193
  42  4804.125
  43  4870.629
  44  4953.38
  45  5067.306
  46  5161.962
  47  5233.712
  48  5183.931
  49  5222.748
  50  5234.949
  51  5301.938
  52  5204.28
  53  5256.283
  54  5231.279
  55  5134.451
  56  5019.549
  57  5017.149
  58  4988.911
  59  4969.088
  60  5020.975
  61  5108.745
  62  5112.068
  63  5181.299
  64  5298.438
  65  5345.694
  66  5359.048
  67  5254.757
  68  5218.242
  69  5123.332
  70  5164.758
  71  5057.994
  72  5113.472
  73  4992.439
  74  4983.913
  75  5216.755
  76  5317.727
  77  5475.036
  78  5464.245
  79  5385.393
  80  5362.204
  81  5317.13
  82  5288.74
  83  5063.84
  84  5119.313
  85  5252.37
  86  5305.848
  87  5397.894
  88  5312.113
  89  5266.732
  90  5386.347
  91  5340.764
  92  5470.822
  93  5455.823
  94  5487.161
  95  5416.204
  96  5406.834
  97  5380.773
  98  5394.451
  99  5402.666
 100  5461.642
 101  5543.169
 102  5509.332
 103  5464.527
 104  5477.011
 105  5620.278
 106  5623.103
 107  5510.813
 108  5529.638
 109  5678.499
 110  5942.857
 111  5967.236
 112  5871.625
 113  5776.506
 114  5641.081
 115  5576.402
 116  5421.929
 117  5529.688
 118  5513.897
 119  5611.63
 120  5442.992
 121  5355.66
 122  5343.367
 123  5437.465
 124  5512.681
 125  5430.931
 126  5305.122
 127  5268.528
 128  5331.093
 129  5225.099
 130  5294.053
 131  5338.236
 132  5333.987
 133  5193.073
 134  5162.005
 135  5098.989
 136  5255.062
 137  5422.695
 138  5364.588
 139  5087.772
 140  4914.307
 141  4938.682
 142  5009.718
 143  5071.922
 144  5226.016
 145  5328.729
 146  5322.226
 147  5228.181
 148  5289.879
 149  5317.729
 150  5321.705
 151  5291.529
 152  5318.64
 153  5302.563
 154  5202.25
 155  5230.373
 156  5201.828
 157  5223.045
 158  5236.794
 159  5170.734
 160  5103.949
 161  5152.772
 162  5191.604
 163  5147.438
 164  5067.628
 165  5037.339
 166  5112.09
 167  5078.052
 168  4893.04
 169  4847.37
 170  4941.194
 171  5168.568
 172  5232.579
 173  5255.647
 174  5112.726
 175  5179.94
 176  5199.754
 177  5231.224
 178  5104.58
 179  5117.657
 180  5287.2
 181  5317.326
 182  5185.807
 183  5274.312
 184  5382.094
 185  5536.188
 186  5481.899
 187  5499.215
 188  5444.353
 189  5490.162
 190  5714.976
 191  5770.433
 192  5864.102
 193  5668.508
 194  5637.367
 195  5508.797
 196  5585.157
 197  5582.403
 198  5708.284
 199  5505.134
 200  5346.524
 201  5263.762
 202  5352.241
 203  5353.202
 204  5297.815
 205  5306.699
 206  5361.76
 207  5363.888
 208  5371.659
 209  5541.216
 210  5430.768
 211  5327.726
 212  5276.936
 213  5372.209
 214  5306.491
 215  5264.115
 216  5291.574
 217  5308.995
 218  5392.229
 219  5387.002
 220  5355.944
 221  5285.701
 222  5163.092
 223  5127.75
 224  5341.989
 225  5423.53
 226  5340.959
 227  5230.046
 228  5204.839
 229  5276.1
 230  5236.606
 231  5169.548
 232  5065.381
 233  5045.468
 234  5200.076
 235  5130.261
 236  5005.188
 237  4767.307
 238  4915.837
 239  5049.065
 240  5176.521
 241  5124.954
 242  5128.925
 243  5194.828
 244  5360.858
 245  5529.972
 246  5515.522
 247  5354.663
 248  5212.553
 249  5270.423
 250  5244.212
 251  5352.612
 252  5400.617
 253  5488.79
 254  5607.022
 255  5632.5
 256  5797.327
 257  5857.196
 258  5730.384
 259  5726.55
 260  5818.932
 261  5841.254
 262  5799.708
 263  5679.932
 264  5666.128
 265  5779.995
 266  5717.069
 267  5682.698
 268  5540.26
 269  5581.093
 270  5588.691
 271  5744.625
 272  5840.775
 273  5846.439
 274  5995.37
 275  6059.919
 276  6061.114
 277  6036.463
 278  5821.508
 279  5699.282
 280  5555.739
 281  5653.825
 282  5608.352
 283  5539.117
 284  5569.187
 285  5554.463
 286  5643.476
 287  5716.745
 288  5806.336
 289  5712.88
 290  5656.866
 291  5706.404
 292  5766.273
 293  5713.681
 294  5742.282
 295  5513.685
 296  5561.06
 297  5648.557
 298  5786.65
 299  5663.902
 300  5549.613
 301  5641.661
 302  5509.396
 303  5375.833
 304  5272.008
 305  5323.679
 306  5336.565
 307  5343.296
 308  5471.818
 309  5395.785
 310  5363.036
 311  5325.511
 312  5316.134
 313  5435.839
 314  5414.069
 315  5540.701
 316  5557.221
 317  5620.967
 318  5636.963
 319  5650.815
 320  5515.438
 321  5537.007
 322  5418.512
 323  5446.358
 324  5446.234
 325  5529.752
 326  5627.459
 327  5801.627
 328  5926.115
 329  5895.76
 330  5896.283
 331  5825.715
 332  5795.169
 333  5760.678
 334  5682.931
 335  5648.378
 336  5600.544
 337  5707.789
 338  5880.681
 339  6026.729
 340  6129.911
 341  6204.436
 342  6324.804
 343  6310.596
 344  6347.826
 345  6382.639
 346  6202.611
 347  6093.649
 348  5919.727
 349  5996.533
 350  6108.843
 351  6270.596
 352  6338.323
 353  6411.08
 354  6433.226
 355  6393.365
 356  6227.944
 357  6174.935
 358  6050.938
 359  6075.153
 360  6234.029
 361  6357.372
 362  6373.947
 363  6442.607
 364  6428.117
 365  6256.062
 366  6223.791
 367  6234.479
 368  6103.538
 369  5847.955
 370  5855.534
 371  5979.538
 372  5948.832
 373  5781.328
 374  5657.016
 375  5681.488
 376  5703.567
 377  5722.186
 378  5726.862
 379  5709.357
 380  5831.481
 381  5997.296
 382  5998.91
 383  5883.241
 384  5776.083
 385  5709.97
 386  5706.783
 387  5612.383
 388  5821.336
 389  5790.268
 390  5788.693
 391  5761.134
 392  5746.289
 393  5751.354
 394  5730.01
 395  5781.483
 396  5925.178
 397  5982.417
 398  5852.579
 399  5768.775
 400  5659.7
 401  5507.102
 402  5506.642
 403  5444.369
 404  5585.671
 405  5645.607
 406  5655.479
 407  5684.55
 408  5618.542
 409  5701.631
 410  5750.036
 411  5739.869
 412  5677.94
 413  5612.114
 414  5651.061
 415  5713.23
 416  5656.551
 417  5771.967
 418  6031.743
 419  5868.268
 420  5749.008
 421  5464.838
 422  5412.428
 423  5422.226
 424  5575.985
 425  5526.747
 426  5527.01
 427  5532.063
 428  5459.146
 429  5518.389
 430  5546.268
 431  5735.446
 432  5906.688
 433  5860.989
 434  5839.147
 435  5808.343
 436  5737.633
 437  5616.362
 438  5606.9
 439  5662.96
 440  5632.822
 441  5719.298
 442  5831.754
 443  5866.2
 444  5892.435
 445  5828.241
 446  5972.009
 447  5929.538
 448  6039.384
 449  6130.173
 450  6079.368
 451  5932.254
 452  5756.592
 453  5853.655
 454  5983.942
 455  6023.229
 456  6123.555
 457  5989.428
 458  5973.036
 459  5858.951
 460  5914.516
 461  5864.693
 462  5848.874
 463  5789.998
 464  5682.335
 465  5639.234
 466  5675.629
 467  5853.385
 468  5899.378
 469  5772.08
 470  5771.918
 471  5869.696
 472  5991.361
 473  6031.445
 474  5925.51
 475  5906.661
 476  6008.012
 477  6061.612
 478  6033.684
 479  6068.896
 480  5987.725
 481  6000.115
 482  5938.055
 483  6038.217
 484  6028.173
 485  6097.989
 486  6148.403
 487  6120.106
 488  6176.436
 489  6240.809
 490  6114.933
 491  6149.309
 492  6214.578
 493  6236.129
 494  6144.717
 495  6197.449
 496  6156.711
 497  6060.166
 498  6018.565
 499  5883.609
 500  5771.775
 501  5691.805
 502  5525.96
 503  5424.112
 504  5457.123
 505  5517.13
 506  5576.36
 507  5553.903
 508  5597.254
 509  5522.539
 510  5662.239
 511  5729.252
 512  5853.335
 513  5750.866
 514  5800.06
 515  5679.588
 516  5643.309
 517  5699.756
 518  5659.83
 519  5601.091
 520  5530.011
 521  5545.794
 522  5698.114
 523  5744.221
 524  5789.586
 525  5706.335
 526  5704.956
 527  5641.058
 528  5706.358
 529  5612.732
 530  5564.292
 531  5525.889
 532  5534.153
 533  5565.93
 534  5390.286
 535  5399.588
 536  5518.802
 537  5608.975
 538  5559.436
 539  5438.599
 540  5462.174
 541  5596.847
 542  5566.909
 543  5472.992
 544  5380.37
 545  5331.951
 546  5291.389
 547  5164.909
 548  5200.441
 549  5241.984
 550  5292.073
 551  5267.589
 552  5244.624
 553  5171.746
 554  5132.945
 555  5251.229
 556  5203.815
 557  5252.831
 558  5368.171
 559  5335.673
 560  5284.925
 561  5203.669
 562  5159.502
 563  5014.534
 564  5068.203
 565  5083.37
 566  5196.452
 567  5154.757
 568  5092.923
 569  4978.736
 570  4773.064
 571  4891.148
 572  4896.746
 573  4974.139
 574  4998.201
 575  4909.38
 576  4702.687
 577  4573.101
 578  4552.153
 579  4675.63
 580  4595.521
 581  4726.583
 582  4723.191
 583  4704.244
 584  4518.741
 585  4405.255
 586  4426.268
 587  4519.012
 588  4681.802
 589  4611.298
 590  4600.893
 591  4602.456
 592  4665.207
 593  4641.084
 594  4649.875
 595  4694.038
 596  4726.611
 597  4610.629
 598  4559.389
 599  4572.895
 600  4700.758
 601  4760.298
 602  4902.742
 603  4982.557
 604  5166.054
 605  5456.518
 606  5631.136
 607  5665.485
 608  5720.136
 609  5748.497
 610  5684.655
 611  5499.62
 612  5410.013
 613  5307.911
 614  5214.836
 615  4924.541
 616  4982.717
 617  5126.542
 618  5124.378
 619  4993.349
 620  4932.608
 621  4906.067
 622  4887.807
 623  4800.816
 624  4878.405
 625  4788.527
 626  4777.115
 627  4774.282
 628  4651.487
 629  4539.496
 630  4515.483
 631  4665.014
 632  4728.652
 633  4774.939
 634  4622.283
 635  4542.85
 636  4667.867
 637  4875.93
 638  5013.399
 639  5043.667
 640  4943.912
 641  4856.084
 642  4836.161
 643  4811.503
 644  4802.756
 645  4823.159
 646  4785.75
 647  4639.956
 648  4748.397
 649  4727.38
 650  4804.642
 651  4727.914
 652  4766.903
 653  4670.576
 654  4655.561
 655  4582.054
 656  4538.227
 657  4554.232
 658  4613.694
 659  4520.347
 660  4548.616
 661  4533.785
 662  4549.268
 663  4448.809
 664  4507.816
 665  4540.91
 666  4522.208
 667  4458.106
 668  4467.71
 669  4576.621
 670  4504.349
 671  4470.214
 672  4361.353
 673  4234.182
 674  4429.205
 675  4627.845
 676  4608.449
 677  4456.21
 678  4379.242
 679  4532.939
 680  4589.502
 681  4563.524
 682  4543.403
 683  4539.823
 684  4516.668
 685  4458.798
 686  4520.123
 687  4622.785
 688  4713.588
 689  4749.915
 690  4745.484
 691  4765.974
 692  4932.631
 693  4891.855
 694  4594.403
 695  4474.45
 696  4492.542
 697  4544.795
 698  4566.351
 699  4783.869
 700  4842.573
 701  5020.877
 702  5038.025
 703  5052.771
 704  5028.88
 705  5003.253
 706  5011.295
 707  4881.894
 708  4803.341
 709  4885.165
 710  4853.157
 711  4816.402
 712  4770.329
 713  4717.027
 714  4780.061
 715  4822.164
 716  4848.43
 717  4806.014
 718  4814.755
 719  4831.772
 720  4876.685
 721  4884.865
 722  4788.366
 723  4701.157
 724  4773.877
 725  4772.978
 726  4782.309
 727  4852.906
 728  4787.426
 729  4795.522
 730  4748.307
 731  4826.054
 732  4870.777
 733  4890.22
 734  5019.544
 735  5011.519
 736  5012.341
 737  4933.258
 738  5041.885
 739  5091.442
 740  5030.41
 741  4905.429
 742  4885.557
 743  4856.927
 744  4801.932
 745  4827.716
 746  4772.169
 747  4754.192
 748  4659.142
 749  4733.548
 750  4792.055
 751  4925.207
 752  5082.496
 753  4915.851
 754  4915.342
 755  4891.951
 756  4911.828
 757  4890.824
 758  4811.022
 759  4811.203
 760  4866.174
 761  4784.045
 762  4808.554
 763  4976.7
 764  4983.032
 765  5123.476
 766  5135.9
 767  5095.93
 768  5110.07
 769  5020.917
 770  5086.229
 771  5101.45
 772  5176.597
 773  5260.806
 774  5202.737
 775  5267.057
 776  5127.629
 777  5096.755
 778  5043.925
 779  4985.815
 780  4912.247
 781  4862.255
 782  4858.087
 783  4829
 784  4754.037
 785  4832.968
 786  4936.397
 787  5031.214
 788  5042.051
 789  4997.051
 790  5049.27
 791  4995.512
 792  5001.218
 793  4996.308
 794  5109.514
 795  5099.723
 796  5096.756
 797  5041.075
 798  5007.51
 799  4981.12
 800  5008.13
 801  4871.77
 802  4906.554
 803  4907.082
 804  5007.888
 805  4830.949
 806  4633.994
 807  4567.38
 808  4527.453
 809  4502.359
 810  4499.221
 811  4524.518
 812  4573.216
 813  4602.026
 814  4752.896
 815  4866.332
 816  4891.544
 817  4953.418
 818  4886.139
 819  4695.679
 820  4527.003
 821  4569.033
 822  4656.974
 823  4609.158
 824  4669.841
 825  4675.497
 826  4619.171
 827  4419.834
 828  4374.762
 829  4345.471
 830  4452.409
 831  4422.637
 832  4483.014
 833  4491.457
 834  4499.651
 835  4536.81
 836  4596.875
 837  4610.18
 838  4534.801
 839  4454.108
 840  4403.763
 841  4406.083
 842  4361.273
 843  4464.96
 844  4462.875
 845  4407.049
 846  4184.593
 847  4095.417
 848  4111.079
 849  4144.128
 850  4238.876
 851  4355.525
 852  4503.077
 853  4455.496
 854  4565.49
 855  4630.525
 856  4716.644
 857  4598.713
 858  4499.851
 859  4482.754
 860  4499.388
 861  4492.128
 862  4428.741
 863  4360.577
 864  4454.578
 865  4543.416
 866  4615.913
 867  4516.682
 868  4586.853
 869  4615.066
 870  4515.538
 871  4393.152
 872  4407.941
 873  4413.939
 874  4500.333
 875  4494.027
 876  4656.375
 877  4601.072
 878  4506.2
 879  4487.076
 880  4401.854
 881  4543.777
 882  4511.736
 883  4656.949
 884  4690.417
 885  4684.787
 886  4532.609
 887  4577.896
 888  4769.65
 889  4803.054
 890  4716.665
 891  4733.364
 892  4814.961
 893  4883.978
 894  5030.864
 895  5005.675
 896  4853.322
 897  4816.322
 898  4852.201
 899  4978.648
 900  4937.912
 901  4994.489
 902  5138.423
 903  5294.65
 904  5312.772
 905  5088.661
 906  4852.509
 907  4733.775
 908  4897.044
 909  4988.156
 910  5022.293
 911  5015.338
 912  5070.381
 913  5005.252
 914  5062.014
 915  5225.815
 916  5324.15
 917  5249.547
 918  5079.059
 919  4923.416
 920  4931.42
 921  4883.778
 922  4950.465
 923  4839.12
 924  4696.833
 925  4680.044
 926  4757.719
 927  5037.99
 928  5099.185
 929  5049.023
 930  5167.14
 931  5253.911
 932  5151.914
 933  5123.569
 934  5266.124
 935  5271.384
 936  5306.399
 937  5258.209
 938  5406.464
 939  5474.243
 940  5489.54
 941  5349.795
 942  5182.26
 943  5143.759
 944  5169.803
 945  5103.924
 946  5117.032
 947  5148.979
 948  5237.949
 949  5251.741
 950  5283.917
 951  5264.533
 952  5483.378
 953  5525.835
 954  5376.825
 955  5188.416
 956  5076.792
 957  5179.282
 958  5255.173
 959  5295.75
 960  5247.72
 961  5198.799
 962  5204.681
 963  5103.533
 964  5045.254
 965  5088.247
 966  5117.373
 967  5202.74
 968  5177.59
 969  5163.666
 970  5194.786
 971  5230.809
 972  5260.875
 973  5233.758
 974  5363.07
 975  5295.439
 976  5245.397
 977  5063.588
 978  4969.212
 979  4878.268
 980  4850.929
 981  5110.212
 982  5156.873
 983  5196.666
 984  5119.682
 985  5112.033
 986  5138.548
 987  5011.69
 988  5023.854
 989  5113.671
 990  5156.304
 991  5102.934
 992  4984.89
 993  5144.551
 994  5079.44
 995  5033.62
 996  4922.035
 997  4927.162
 998  5007.917
 999  5076.276
1000  5120.993
1001  5059.631
1002  4981.501
1003  4864.653
1004  4673.621
1005  4548.417
1006  4498.554
1007  4619.599
1008  4685.931
1009  4747.82
1010  4622.018
1011  4584.445
1012  4533.424
1013  4522.867
1014  4691.171
1015  4846.305
1016  4752.883
1017  4619.219
1018  4439.431
1019  4480.692
1020  4617.783
1021  4613.348
1022  4522.454
1023  4515.075
