# Input file       =  1204965093.116856_cleaned.dat
# Candidate        =  PSR_0332+5434
# Telescope        =  AR
# Epoch_topo       =  58190.355464315464
# Epoch_bary       =  N/A
# T_sample         =  0.002
# Data Folded      =  7208960
# Data Avg         =  0.304724718420766
# Data StdDev      =  5.68221262181584 
# Profile Bins     =  256
# Profile Avg      =  8581.08679635504 
# Profile StdDev   =  953.528779991132 
# Reduced chi-sqr  =  5.433
# Prob(Noise)      <  1.41e-154   (~26.5 sigma)
# P_topo (ms)      =  714.578106297486  +/- 1.21e-05
# P'_topo (s/s)    =  -0                +/- 6.49e-12
# P''_topo (s/s^2) =  0                 +/- 2.92e-15
# P_bary (ms)      =  N/A
# P'_bary (s/s)    =  N/A
# P''_bary (s/s^2) =  N/A
# P_orb (s)        =  N/A
# asin(i)/c (s)    =  N/A
# eccentricity     =  N/A
# w (rad)          =  N/A
# T_peri           =  N/A
######################################################
   0  4351.372
   1  6666.276
   2  10732.08
   3  8574.195
   4  6422.499
   5  7428.171
   6  9305.572
   7  8241.581
   8  5145.005
   9  6301.92
  10  10874.93
  11  10018.55
  12  7773.56
  13  7963.633
  14  10428.83
  15  10579.12
  16  6961.031
  17  7190.729
  18  10793.85
  19  11930.25
  20  9222.792
  21  8137.507
  22  10853.2
  23  11497.3
  24  8232.998
  25  6162.12
  26  9232.761
  27  12287.94
  28  10110.39
  29  7549.907
  30  9097.422
  31  11569.92
  32  10177.54
  33  6811.352
  34  7897.891
  35  12195.21
  36  11381.65
  37  9057.833
  38  8575.788
  39  11370.55
  40  11478.49
  41  7695.427
  42  8813.926
  43  11488.88
  44  10829.59
  45  8770.229
  46  9343.642
  47  11608.95
  48  10889.88
  49  8012.68
  50  8733.087
  51  12071.73
  52  12667.36
  53  10086.29
  54  9517.666
  55  11453.03
  56  11569.37
  57  8769.107
  58  8082.727
  59  11017.89
  60  12268.85
  61  9925.021
  62  8387.758
  63  10480.63
  64  11944.57
  65  9396.986
  66  7142.599
  67  7915.871
  68  12304
  69  11168.45
  70  7399.634
  71  8406.292
  72  10832.1
  73  10288.59
  74  7540.827
  75  7949.951
  76  10802.06
  77  12026.84
  78  8539.993
  79  8587.92
  80  10625.27
  81  11445.64
  82  7484.868
  83  7561.02
  84  10370.94
  85  11527.46
  86  9291.346
  87  8043.342
  88  10450.76
  89  10781.16
  90  8117.154
  91  6996.36
  92  9108.979
  93  12020.34
  94  9753.514
  95  7006.46
  96  8656.934
  97  11074.54
  98  8768.883
  99  5731.166
 100  8044.275
 101  11875.58
 102  9489.017
 103  5869.924
 104  8195.353
 105  10896.01
 106  8920.054
 107  5836.072
 108  7361.013
 109  10194.16
 110  10743.72
 111  7515.375
 112  7375.468
 113  9912.788
 114  10259.96
 115  6903.645
 116  6191.83
 117  9362.626
 118  11456.5
 119  8899.773
 120  6835.64
 121  9195.684
 122  10577.47
 123  7502.328
 124  5604.963
 125  8218.188
 126  11431.5
 127  9155.901
 128  7405.12
 129  9126.738
 130  10835.37
 131  8254.292
 132  6249.275
 133  7478.535
 134  10590.42
 135  9669.048
 136  7130.06
 137  7325.178
 138  9175.412
 139  8408.068
 140  5426.711
 141  5762.379
 142  10374
 143  10549.25
 144  6623.48
 145  6647.257
 146  8905.901
 147  9617.524
 148  5932.868
 149  5459.712
 150  9054.643
 151  12578.81
 152  10234.37
 153  8108.468
 154  7827.012
 155  9968.666
 156  6897.733
 157  5606.157
 158  7462.527
 159  9945.483
 160  8616.049
 161  6724.072
 162  7562.933
 163  10192.99
 164  8116.253
 165  4481.3
 166  6335.913
 167  9519.852
 168  9183.588
 169  6480.241
 170  7588.12
 171  8962.026
 172  8590.388
 173  4786.729
 174  5605.382
 175  8836.609
 176  9929.4
 177  6926.182
 178  6457.814
 179  8845.629
 180  9613.163
 181  5566.122
 182  4929.212
 183  8420.572
 184  10173.05
 185  7471.444
 186  5123.099
 187  7407.053
 188  9534.41
 189  6635.124
 190  4814.075
 191  7005.553
 192  10798.47
 193  8945.691
 194  5009.303
 195  6834.875
 196  9130.072
 197  8528.103
 198  5667.866
 199  6599.537
 200  9461.609
 201  10225.6
 202  7185.715
 203  7389.961
 204  9135.659
 205  8612.29
 206  5723.469
 207  6276.312
 208  8880.169
 209  9134.07
 210  6968.043
 211  6938.335
 212  8823.927
 213  9390.906
 214  5684.686
 215  5447.875
 216  8484.977
 217  11186.51
 218  8156.224
 219  6757.513
 220  9074.709
 221  10420.08
 222  7051.047
 223  5364.586
 224  8286.069
 225  10831.98
 226  9196.728
 227  6436.365
 228  7313.841
 229  9981.31
 230  8596.626
 231  5764.254
 232  6391.524
 233  10171.31
 234  10115.01
 235  7094.512
 236  7081.135
 237  9594.979
 238  9150.256
 239  6077.672
 240  5402.835
 241  8125.872
 242  10837.69
 243  7748.806
 244  6331.124
 245  8073.445
 246  9161.686
 247  6765.731
 248  5039.381
 249  7229.111
 250  10040.07
 251  7987.75
 252  5745.333
 253  7164.693
 254  9786.721
 255  6926.33
