# Input file       =  1204564430.106454_cleaned.dat
# Candidate        =  PSR_0332+5434
# Telescope        =  AR
# Epoch_topo       =  58185.718160954326
# Epoch_bary       =  N/A
# T_sample         =  0.002
# Data Folded      =  7340032
# Data Avg         =  0.118043882249497
# Data StdDev      =  4.4164298092762  
# Profile Bins     =  512
# Profile Avg      =  1692.52249325012 
# Profile StdDev   =  528.792551009501 
# Reduced chi-sqr  =  0.828
# Prob(Noise)      <  0.998   (~0.0 sigma)
# P_topo (ms)      =  714.579670056508  +/- 0.000561
# P'_topo (s/s)    =  -0                +/- 2.96e-10
# P''_topo (s/s^2) =  0                 +/- 1.31e-13
# P_bary (ms)      =  N/A
# P'_bary (s/s)    =  N/A
# P''_bary (s/s^2) =  N/A
# P_orb (s)        =  N/A
# asin(i)/c (s)    =  N/A
# eccentricity     =  N/A
# w (rad)          =  N/A
# T_peri           =  N/A
######################################################
   0  1797.212
   1  1657.738
   2  2145.948
   3  2663.052
   4  2366.907
   5  1721.582
   6  1541.242
   7  1761.715
   8  1575.478
   9  1847.802
  10  1996.299
  11  1753.227
  12  1704.653
  13  1970.356
  14  1590.521
  15  1450.445
  16  1686.986
  17  1842.644
  18  1854.982
  19  1639.344
  20  1487.216
  21  1358.678
  22  1411.406
  23  1767.363
  24  1952.557
  25  1709.215
  26  1404.642
  27  950.0108
  28  1429.238
  29  1768.614
  30  1770.854
  31  1617.707
  32  1688.908
  33  1752.418
  34  1559.831
  35  1402.585
  36  1124.293
  37  1428.155
  38  1520.251
  39  1253.799
  40  1583.087
  41  2122.393
  42  2073.962
  43  1781.824
  44  1905.476
  45  2072.979
  46  1781.059
  47  1871.377
  48  1703.287
  49  1425.01
  50  1773.424
  51  1679.095
  52  1668.805
  53  1833.303
  54  1829.972
  55  1971.072
  56  2075.325
  57  1850.927
  58  1969.738
  59  2014.067
  60  2164.733
  61  2234.244
  62  1846.302
  63  1608.207
  64  1639.721
  65  1559.914
  66  1436.642
  67  1822.55
  68  1851.275
  69  1793.157
  70  2086.723
  71  2186.375
  72  1696.534
  73  1769.043
  74  1852.992
  75  2040.233
  76  2330.02
  77  1763.162
  78  1598.636
  79  1694.603
  80  2014.459
  81  1916.838
  82  1572.026
  83  1497.465
  84  1691.389
  85  1442.153
  86  967.0987
  87  1062.749
  88  1238.903
  89  1457.227
  90  1345.082
  91  1476.49
  92  1731.218
  93  1867.907
  94  1930.864
  95  2149.911
  96  1825.552
  97  1678.159
  98  1626.701
  99  1681.118
 100  1930.86
 101  1940.233
 102  1893.582
 103  2027.21
 104  1631.967
 105  1586.173
 106  1569.539
 107  1898.447
 108  1981.951
 109  1535.035
 110  1451.067
 111  2012.102
 112  2014.271
 113  1653.065
 114  1564.537
 115  1532.104
 116  1521.189
 117  1405.413
 118  1299.803
 119  1574.95
 120  1686.73
 121  1495.028
 122  1069.805
 123  1243.467
 124  1436.109
 125  1461.031
 126  1491.911
 127  1556.213
 128  1793.171
 129  1694.365
 130  1582.714
 131  1504.344
 132  1468.618
 133  1359.711
 134  1300.478
 135  1558.391
 136  1587.313
 137  1623.389
 138  1898.919
 139  2122.516
 140  1757.421
 141  2034.721
 142  2245.794
 143  1764.339
 144  2416.875
 145  2403.845
 146  2261.605
 147  2194.135
 148  2622.852
 149  1996.882
 150  1802.194
 151  1744.944
 152  2027.301
 153  2378.721
 154  1606.028
 155  1443.247
 156  1645.104
 157  1541.854
 158  1782.069
 159  1358.713
 160  1625.637
 161  1760.531
 162  1637.557
 163  1592.948
 164  1891.889
 165  1781.791
 166  1572.839
 167  1380.3
 168  1745.527
 169  1718.37
 170  1711.178
 171  1713.035
 172  1754.12
 173  1370.294
 174  1225.194
 175  1372.678
 176  1239.637
 177  1663.05
 178  1514.311
 179  1738.381
 180  1188.536
 181  1193.732
 182  1444.785
 183  1821.249
 184  1461.108
 185  1429.539
 186  1373.858
 187  1607.957
 188  1397.77
 189  1029.443
 190  1141.39
 191  1155.641
 192  1284.571
 193  1541.47
 194  1806.441
 195  1785.709
 196  1435.199
 197  1408.359
 198  1427.268
 199  1129.352
 200  1211.265
 201  1277.695
 202  1345.785
 203  905.7186
 204  907.0654
 205  988.3412
 206  816.0049
 207  1119.955
 208  1375.794
 209  1453.638
 210  1326.977
 211  1357.219
 212  1325.853
 213  1747.823
 214  1865.548
 215  1395.233
 216  1275.996
 217  1654.482
 218  1609.006
 219  1583.431
 220  1639.757
 221  1734.717
 222  1837.36
 223  1688.689
 224  1664.1
 225  1855.342
 226  1695.417
 227  1763.138
 228  1613.603
 229  1883.331
 230  1823.077
 231  1870.468
 232  1909.058
 233  1840.248
 234  1661.21
 235  1449.773
 236  1123.973
 237  1359.93
 238  1065.347
 239  1267.751
 240  1192.723
 241  1236.492
 242  1556.772
 243  1480.666
 244  1306.723
 245  1086.325
 246  1272.212
 247  944.4292
 248  763.0145
 249  929.3997
 250  1349.545
 251  1038.089
 252  1047.681
 253  1357.704
 254  1231.138
 255  1416.839
 256  1390.001
 257  1265.066
 258  968.1524
 259  1189.73
 260  1510.079
 261  1218.632
 262  1444.568
 263  1308.781
 264  1260.87
 265  1250.552
 266  875.1447
 267  956.3931
 268  922.3104
 269  1399.794
 270  1469.738
 271  1401.58
 272  1201.354
 273  997.5621
 274  1356.685
 275  1422.514
 276  1505.887
 277  1435.039
 278  1486.792
 279  1509.791
 280  1399.007
 281  1487.065
 282  1519.623
 283  1663.832
 284  1405.005
 285  1455.5
 286  1953.529
 287  2000.388
 288  1671.135
 289  1649.563
 290  1685.194
 291  1415.474
 292  1811.284
 293  2175.429
 294  1581.683
 295  1814.211
 296  2102.893
 297  1836.073
 298  1760.07
 299  1621.278
 300  1669.606
 301  1947.08
 302  2471.819
 303  2835.214
 304  3320.101
 305  3496.227
 306  3203.471
 307  2187.664
 308  2096.373
 309  1608.807
 310  1414.818
 311  1987.017
 312  1862.821
 313  1840.977
 314  1898.9
 315  1779.936
 316  1780.692
 317  1668.051
 318  1322.986
 319  1758.46
 320  1964.097
 321  1601.628
 322  1750.567
 323  1659.897
 324  1822.513
 325  1760.694
 326  1557.497
 327  1937.138
 328  1546.959
 329  1479.675
 330  1787.991
 331  1599.371
 332  1553.943
 333  1650.435
 334  1753.981
 335  1958.487
 336  1904.201
 337  1691.79
 338  1702.973
 339  1699.347
 340  1899.134
 341  1833.706
 342  1701.069
 343  1789.129
 344  1883.862
 345  1689.749
 346  1863.967
 347  1479.59
 348  1581.526
 349  1774.534
 350  1764.281
 351  2087.774
 352  1718.273
 353  1748.704
 354  2178.941
 355  2179.319
 356  1974.141
 357  2011.514
 358  1806.143
 359  1856.69
 360  1896.358
 361  2109.91
 362  2094.649
 363  1842.087
 364  1717.026
 365  2245.707
 366  2017.115
 367  1860.727
 368  1828.081
 369  2213.861
 370  2041.092
 371  1664.568
 372  1731.833
 373  1795.785
 374  1891.147
 375  1995.342
 376  1919.928
 377  2082.683
 378  1955.748
 379  1696.109
 380  1740.743
 381  1295.308
 382  1492.064
 383  1604.591
 384  1532.585
 385  1307.34
 386  1192.278
 387  1509.197
 388  1565.27
 389  1759.144
 390  1904.792
 391  1621.859
 392  1699.553
 393  1458.539
 394  1224.498
 395  1280.22
 396  1415.331
 397  1256.849
 398  1065.379
 399  1419.209
 400  1628.567
 401  1815.893
 402  1857.642
 403  1577.021
 404  1577.459
 405  1429.111
 406  1846.737
 407  1650.188
 408  1693.381
 409  1776.44
 410  1868.705
 411  1481.191
 412  1371.688
 413  1427.69
 414  1537.583
 415  1447.372
 416  1468.53
 417  1690.762
 418  1798.747
 419  1611.737
 420  1759.265
 421  1616.475
 422  1527.298
 423  1570.287
 424  1766.895
 425  1898.734
 426  1728.949
 427  1827.573
 428  1850.953
 429  1995.027
 430  2127.69
 431  2512.843
 432  2404.439
 433  2497.558
 434  2939.555
 435  2512.353
 436  2367.87
 437  2000.174
 438  2155.463
 439  2229.351
 440  2004.984
 441  2187.921
 442  2429.005
 443  2470.188
 444  2223.898
 445  1933.656
 446  1708.21
 447  1660.553
 448  1683.29
 449  1930.882
 450  1961.134
 451  1673.049
 452  1616.685
 453  1721.047
 454  2166.599
 455  1948.15
 456  1929.418
 457  2019.319
 458  1460.666
 459  1767.98
 460  1504.4
 461  1757.43
 462  1378.798
 463  1450.865
 464  1329.574
 465  1446.62
 466  1635.673
 467  1413.887
 468  1570.123
 469  1636.654
 470  1699.278
 471  1765.842
 472  1666.012
 473  1519.567
 474  1767.124
 475  1600.162
 476  2091.297
 477  2280.856
 478  1976.989
 479  1906.002
 480  1743.336
 481  1434.089
 482  1898.65
 483  1882.386
 484  2002.53
 485  1766.142
 486  1530.327
 487  1822.431
 488  2063.877
 489  2071.238
 490  1954.977
 491  2031.91
 492  2192.628
 493  1709.996
 494  1553.451
 495  1452.398
 496  1587.759
 497  1888.24
 498  2079.948
 499  1707.427
 500  1524.064
 501  2132.922
 502  2036.568
 503  1975.667
 504  1667.611
 505  1541.255
 506  1799.222
 507  2108.916
 508  2455.857
 509  1705.049
 510  1880.172
 511  1957.174
