# Input file       =  1204397746.104123_cleaned.dat
# Candidate        =  PSR_0332+5434
# Telescope        =  AR
# Epoch_topo       =  58183.788947964385
# Epoch_bary       =  N/A
# T_sample         =  0.002
# Data Folded      =  7340032
# Data Avg         =  0.065828361495473
# Data StdDev      =  2.97098496776293 
# Profile Bins     =  512
# Profile Avg      =  943.830576249401 
# Profile StdDev   =  355.725051219984 
# Reduced chi-sqr  =  1.131
# Prob(Noise)      <  0.0209   (~2.0 sigma)
# P_topo (ms)      =  714.580199673121  +/- 0.000319
# P'_topo (s/s)    =  -0                +/- 1.68e-10
# P''_topo (s/s^2) =  0                 +/- 7.43e-14
# P_bary (ms)      =  N/A
# P'_bary (s/s)    =  N/A
# P''_bary (s/s^2) =  N/A
# P_orb (s)        =  N/A
# asin(i)/c (s)    =  N/A
# eccentricity     =  N/A
# w (rad)          =  N/A
# T_peri           =  N/A
######################################################
   0  953.0294
   1  762.1096
   2  551.5822
   3  805.0917
   4  566.3752
   5  748.6093
   6  795.6388
   7  862.0172
   8  1042.015
   9  944.3201
  10  624.6171
  11  520.0621
  12  796.1848
  13  933.2304
  14  1016.744
  15  523.9415
  16  424.8585
  17  1003.761
  18  786.9727
  19  938.3834
  20  895.7739
  21  933.4838
  22  640.4842
  23  870.4556
  24  797.7372
  25  655.1634
  26  872.2747
  27  1232.712
  28  1131.082
  29  1027.542
  30  1202.316
  31  991.8309
  32  808.8054
  33  702.1501
  34  809.0911
  35  986.1104
  36  855.2358
  37  946.8225
  38  1120.372
  39  877.7349
  40  991.9037
  41  695.7924
  42  895.5659
  43  763.7419
  44  1104.725
  45  1196.737
  46  821.8509
  47  867.7258
  48  952.41
  49  843.7796
  50  1073.593
  51  1055.261
  52  1147.728
  53  863.7213
  54  873.4357
  55  982.3397
  56  1081.567
  57  1023.721
  58  942.002
  59  1171
  60  958.782
  61  954.7977
  62  865.3348
  63  955.2321
  64  1090.765
  65  919.1824
  66  900.277
  67  1011.636
  68  1039.437
  69  823.1141
  70  577.9702
  71  479.6336
  72  708.7362
  73  540.3846
  74  678.239
  75  695.9934
  76  669.2765
  77  644.8513
  78  548.3829
  79  706.1967
  80  836.06
  81  868.3306
  82  1060.673
  83  1165.488
  84  1028.922
  85  709.8002
  86  898.1131
  87  773.4485
  88  978.8931
  89  997.5764
  90  547.6069
  91  693.215
  92  997.4658
  93  1202.885
  94  754.0819
  95  490.7025
  96  672.3151
  97  826.1009
  98  602.7339
  99  611.9975
 100  481.23
 101  595.2906
 102  823.1482
 103  1027.019
 104  913.9736
 105  1217.436
 106  880.3243
 107  658.214
 108  368.9929
 109  807.061
 110  931.2795
 111  1008.192
 112  606.2418
 113  635.715
 114  863.7928
 115  982.7614
 116  1027.281
 117  797.8142
 118  897.7977
 119  675.7417
 120  879.5291
 121  930.4924
 122  686.1339
 123  792.1816
 124  680.5796
 125  1239.98
 126  902.5129
 127  349.7468
 128  851.3683
 129  969.3293
 130  681.005
 131  334.1209
 132  641.3019
 133  1080.755
 134  1167.334
 135  1038.94
 136  992.6813
 137  781.7698
 138  1319.093
 139  981.1988
 140  948.8926
 141  885.951
 142  892.5507
 143  773.5826
 144  1362.239
 145  879.2485
 146  733.0024
 147  967.1806
 148  1001.558
 149  1268.524
 150  1054.824
 151  783.6063
 152  637.2503
 153  597.3824
 154  767.4636
 155  1099.113
 156  829.9047
 157  325.7166
 158  422.5314
 159  554.9762
 160  943.8236
 161  1032.614
 162  1134.983
 163  934.6954
 164  443.1446
 165  730.6205
 166  779.5514
 167  903.0647
 168  636.9343
 169  869.0167
 170  1210.089
 171  1135.756
 172  1032.359
 173  1086.078
 174  1068.813
 175  1180.988
 176  1281.137
 177  1396.786
 178  1644.905
 179  2253.668
 180  2600.565
 181  2349.062
 182  2788.597
 183  2379.285
 184  1609.127
 185  1092.468
 186  805.2607
 187  863.7727
 188  957.722
 189  1016.985
 190  1167.908
 191  1300.588
 192  1172.975
 193  878.3336
 194  1010.393
 195  1165.877
 196  1007.406
 197  587.4877
 198  955.3999
 199  902.3033
 200  730.9586
 201  686.5525
 202  834.1273
 203  753.0314
 204  776.621
 205  710.5368
 206  832.6827
 207  579.2438
 208  773.1526
 209  870.6346
 210  509.1952
 211  572.7139
 212  985.387
 213  1062.285
 214  889.8387
 215  834.325
 216  1012.626
 217  291.3251
 218  557.4056
 219  773.6555
 220  955.0312
 221  1013.955
 222  869.6038
 223  839.9719
 224  807.6195
 225  938.8306
 226  1057.124
 227  1040.459
 228  828.5516
 229  1297.212
 230  1192.373
 231  933.5371
 232  1218.735
 233  1019.291
 234  1242.187
 235  1080.418
 236  1393.979
 237  1367.711
 238  1077.985
 239  1078.661
 240  1209.185
 241  1309.159
 242  1205.952
 243  1112.729
 244  1011.154
 245  1143.32
 246  880.9188
 247  783.9395
 248  865.8768
 249  874.6016
 250  874.1538
 251  1269.712
 252  906.3387
 253  375.0433
 254  598.3348
 255  868.6325
 256  1099.292
 257  540.7487
 258  819.554
 259  906.3921
 260  683.6651
 261  778.8253
 262  710.8574
 263  768.0167
 264  925.8015
 265  897.3572
 266  787.1569
 267  1046.679
 268  1168.443
 269  1304.217
 270  1324.797
 271  919.2722
 272  848.0204
 273  733.671
 274  931.2293
 275  867.0427
 276  991.2148
 277  1022.38
 278  782.7307
 279  954.3932
 280  804.4557
 281  772.7023
 282  920.5709
 283  928.7136
 284  883.7563
 285  1014.851
 286  1478.023
 287  1338.445
 288  778.3532
 289  922.1546
 290  1063.898
 291  1158.474
 292  1183.294
 293  1186.57
 294  1237.393
 295  1203.673
 296  906.6041
 297  776.7753
 298  773.3707
 299  876.3054
 300  1005.568
 301  980.3789
 302  1191.6
 303  1269.536
 304  607.5233
 305  545.1666
 306  954.9254
 307  1135.425
 308  1002.494
 309  956.7552
 310  1188.541
 311  1388.929
 312  722.0858
 313  467.8221
 314  687.0746
 315  850.0481
 316  782.3882
 317  923.8949
 318  891.3036
 319  879.0264
 320  936.8018
 321  964.6576
 322  1125.47
 323  837.1158
 324  529.8501
 325  1086.999
 326  492.9988
 327  689.046
 328  1129.314
 329  1260.272
 330  1161.141
 331  890.3612
 332  570.4945
 333  539.0082
 334  614.4006
 335  1055.199
 336  1143.573
 337  1057.345
 338  796.2096
 339  948.4577
 340  877.5954
 341  939.4982
 342  834.1376
 343  890.7438
 344  699.6409
 345  889.7217
 346  765.4097
 347  612.9747
 348  778.5172
 349  958.0972
 350  955.3799
 351  654.0476
 352  761.2338
 353  743.2319
 354  897.8087
 355  1177.52
 356  1257.624
 357  1133.476
 358  725.7031
 359  601.7761
 360  727.2919
 361  976.4054
 362  971.8744
 363  898.7281
 364  851.9407
 365  1124.464
 366  963.3754
 367  933.5371
 368  718.2754
 369  825.2034
 370  1112.451
 371  1007.853
 372  1161.487
 373  1056.763
 374  933.6652
 375  1393.994
 376  1170.053
 377  1149.153
 378  807.1712
 379  744.7706
 380  937.7663
 381  1435.331
 382  1441.349
 383  1423.431
 384  878.3976
 385  1057.559
 386  1208.846
 387  1231.367
 388  1036.035
 389  1355.205
 390  1332.203
 391  1077.088
 392  982.4009
 393  946.1592
 394  919.3347
 395  783.1899
 396  1278.046
 397  993.8113
 398  649.9573
 399  938.0566
 400  1121.427
 401  1390.121
 402  1185.027
 403  1064.255
 404  1365.352
 405  1609.85
 406  1235.807
 407  960.863
 408  1155.112
 409  880.0175
 410  687.0703
 411  918.8062
 412  932.0464
 413  1097.568
 414  1243.758
 415  984.3633
 416  914.0783
 417  624.6848
 418  437.4066
 419  854.6398
 420  976.8481
 421  1068.302
 422  939.8622
 423  954.7747
 424  702.5695
 425  855.076
 426  837.7947
 427  704.902
 428  911.855
 429  1065.361
 430  1038.508
 431  1013.214
 432  1176.637
 433  959.8277
 434  979.825
 435  1090.096
 436  780.1432
 437  693.3085
 438  1044.669
 439  1112.266
 440  724.803
 441  643.1689
 442  524.6619
 443  443.6353
 444  612.4773
 445  785.8269
 446  1005.262
 447  931.7479
 448  862.2184
 449  1016.027
 450  1107.753
 451  1185.193
 452  837.2999
 453  889.5735
 454  1124.396
 455  1263.351
 456  1007.338
 457  718.0076
 458  963.8209
 459  734.2422
 460  874.265
 461  1070.578
 462  1121.117
 463  755.4843
 464  828.1849
 465  1095.958
 466  1173.413
 467  1376.517
 468  1213.353
 469  964.6783
 470  1097.212
 471  1193.349
 472  871.2996
 473  1015.753
 474  1496.117
 475  1449.824
 476  1487.502
 477  1369.61
 478  1409.974
 479  1249.872
 480  999.4954
 481  1137.323
 482  1233.607
 483  1312.852
 484  1030.01
 485  987.8231
 486  794.305
 487  851.5614
 488  917.3119
 489  843.0233
 490  944.7402
 491  605.9016
 492  574.606
 493  793.1922
 494  896.4043
 495  857.893
 496  1344.348
 497  999.3983
 498  760.719
 499  955.8101
 500  893.756
 501  1096.842
 502  1158.675
 503  1063.307
 504  1029.226
 505  737.2425
 506  747.3731
 507  742.5996
 508  736.1517
 509  1080.014
 510  1147.625
 511  1073.754
