# Input file       =  1204032628.106903_cleaned.dat
# Candidate        =  PSR_0332+5434
# Telescope        =  AR
# Epoch_topo       =  58179.563045218783
# Epoch_bary       =  N/A
# T_sample         =  0.002
# Data Folded      =  7340032
# Data Avg         =  0.470400320915881
# Data StdDev      =  8.94051957036572 
# Profile Bins     =  512
# Profile Avg      =  6740.15465279637 
# Profile StdDev   =  1070.47555494579 
# Reduced chi-sqr  =  1.031
# Prob(Noise)      <  0.305   (~0.5 sigma)
# P_topo (ms)      =  714.580354205268  +/- 0.000407
# P'_topo (s/s)    =  -0                +/- 2.15e-10
# P''_topo (s/s^2) =  0                 +/- 9.47e-14
# P_bary (ms)      =  N/A
# P'_bary (s/s)    =  N/A
# P''_bary (s/s^2) =  N/A
# P_orb (s)        =  N/A
# asin(i)/c (s)    =  N/A
# eccentricity     =  N/A
# w (rad)          =  N/A
# T_peri           =  N/A
######################################################
   0  5710.086
   1  5806.963
   2  5839.785
   3  6246.892
   4  6051.813
   5  5787.793
   6  5842.37
   7  5667.442
   8  5362.921
   9  5561.164
  10  5650.254
  11  6164.732
  12  6253.214
  13  6439.789
  14  6286.381
  15  5698.575
  16  6777.221
  17  7295.865
  18  7007.458
  19  7004.098
  20  6703.599
  21  6805.279
  22  6659.823
  23  7095.811
  24  7519.374
  25  7810.299
  26  7697.452
  27  7464.202
  28  7618.78
  29  7064.843
  30  7069.14
  31  7492.627
  32  7640.216
  33  7217.764
  34  7610.825
  35  7776.055
  36  7559.925
  37  7215.836
  38  7866.62
  39  8431.347
  40  8351.431
  41  8544.138
  42  8011.855
  43  7465.312
  44  7387.859
  45  7603.111
  46  7619.072
  47  7783.716
  48  7914.467
  49  7835.231
  50  7765.9
  51  7358.881
  52  7464.97
  53  7839.71
  54  7973.314
  55  7702.212
  56  8277.284
  57  8067.646
  58  8189.368
  59  7765.002
  60  6679.618
  61  6883.369
  62  7123.715
  63  7334.644
  64  7505.391
  65  7455.744
  66  7143.839
  67  6542.271
  68  7065.502
  69  7022.799
  70  7390.803
  71  7962.362
  72  7681.401
  73  7229.301
  74  7092.257
  75  6900.302
  76  6397.335
  77  6459.925
  78  6574.983
  79  6251.402
  80  6024.222
  81  5438.551
  82  5580.284
  83  6226.531
  84  6260.874
  85  6177.229
  86  6230.233
  87  6068.384
  88  6062.038
  89  5793.841
  90  5961.579
  91  6142.948
  92  6175.067
  93  6501.349
  94  6452.033
  95  7297.477
  96  7384.573
  97  6901.817
  98  6453.721
  99  6938.215
 100  6949.591
 101  7537.641
 102  7886.776
 103  7827.054
 104  7752.614
 105  7510.604
 106  6915.629
 107  7191.303
 108  6732.757
 109  6974.606
 110  7315.526
 111  7690.75
 112  7827.749
 113  8140.78
 114  8185.146
 115  7986.734
 116  8119.231
 117  8122.022
 118  8080.945
 119  7726.583
 120  8127.1
 121  8348.949
 122  8630.127
 123  7948.438
 124  7858.426
 125  7805.56
 126  7687.61
 127  7997.309
 128  8769.838
 129  8118.76
 130  7387.494
 131  7594.03
 132  7424.56
 133  7026.467
 134  6849.453
 135  6598.686
 136  7002.197
 137  6964.134
 138  6596.25
 139  6180.333
 140  5686.445
 141  5414.836
 142  5356.515
 143  5388.006
 144  5679.385
 145  5758.114
 146  5312.1
 147  5519.561
 148  5243.251
 149  5319.27
 150  5588.8
 151  5542.046
 152  5573.683
 153  5506.596
 154  5277.852
 155  5771.186
 156  6147.641
 157  6588.115
 158  6362.31
 159  6325.68
 160  6678.256
 161  6423.886
 162  6269.394
 163  6444.036
 164  7155.048
 165  6831.779
 166  6301.58
 167  7323.355
 168  7576.458
 169  7249.561
 170  7581.531
 171  8157.437
 172  8027.993
 173  7423.217
 174  7569.729
 175  7949.432
 176  7469.822
 177  6695.637
 178  6881.585
 179  7364.131
 180  6722.91
 181  6693.318
 182  7222.059
 183  7339.421
 184  7027.739
 185  6654.542
 186  6541.809
 187  6590.167
 188  6586.038
 189  6639.937
 190  6684.973
 191  6519.375
 192  6728.873
 193  6907.531
 194  6966.276
 195  7228.117
 196  7058.557
 197  6983.35
 198  6577.118
 199  6810.384
 200  6982.529
 201  6932.383
 202  7195.423
 203  7237.348
 204  7214.424
 205  7707.018
 206  7612.835
 207  8003.198
 208  8081.044
 209  7871.88
 210  7675.855
 211  7301.99
 212  7117.616
 213  7083.188
 214  7073.461
 215  6607.574
 216  6448.202
 217  6005.719
 218  6106.945
 219  6172.319
 220  6489.995
 221  6449.861
 222  6179.938
 223  5902.958
 224  6031.72
 225  6152.48
 226  5787.725
 227  5654.801
 228  5752.21
 229  5633.839
 230  5981.436
 231  5632.718
 232  5908.852
 233  5937.538
 234  5394.288
 235  4797.027
 236  5172.79
 237  5309.304
 238  5009.684
 239  5447.459
 240  5643.727
 241  5644.802
 242  5469.646
 243  4974.623
 244  5072.117
 245  5261.534
 246  5617.772
 247  5877.557
 248  5676.76
 249  5677.6
 250  5552.468
 251  5309.734
 252  6290.987
 253  6723.794
 254  6556.581
 255  6189.544
 256  6251.608
 257  6267.34
 258  6192.448
 259  6632.473
 260  6594.521
 261  6550.769
 262  6479.396
 263  6574.165
 264  6461.646
 265  6153.467
 266  6703.798
 267  7034.765
 268  7155.99
 269  7021.198
 270  6664.835
 271  6934.188
 272  6796.028
 273  7111.533
 274  7026.479
 275  7151.601
 276  6937.871
 277  6622.948
 278  6901.329
 279  7182.005
 280  7194.788
 281  7401.575
 282  7525.696
 283  6909.333
 284  6881.909
 285  7100.368
 286  6599.903
 287  6458.968
 288  6647.378
 289  6776.712
 290  6591.042
 291  6179.16
 292  6145.001
 293  6039.439
 294  6086.597
 295  6151.92
 296  5834.459
 297  5519.63
 298  5925.941
 299  5867.424
 300  5712.908
 301  5393.439
 302  5435.572
 303  5388.228
 304  5541.106
 305  6247.705
 306  6147.578
 307  5887.253
 308  6324.933
 309  6432.322
 310  6386.883
 311  6012.438
 312  5541.582
 313  5702.73
 314  6050.941
 315  6078.351
 316  6464.91
 317  6389.438
 318  7351.19
 319  7124.037
 320  7336.555
 321  6973.608
 322  6837.144
 323  6593.234
 324  6485.256
 325  6680.503
 326  6562.435
 327  6412.081
 328  6105.475
 329  6322.031
 330  6532.47
 331  6127.168
 332  6221.388
 333  5948.226
 334  5619.408
 335  5877.374
 336  6446.814
 337  7083.944
 338  7407.368
 339  7304.962
 340  6486.775
 341  6600.657
 342  7245.774
 343  7185.467
 344  7273.102
 345  7062.898
 346  7075.228
 347  6727.129
 348  6330.187
 349  6345.726
 350  6263.884
 351  6600.555
 352  6137.479
 353  5590.365
 354  5841.237
 355  5839.388
 356  6162.602
 357  5873.408
 358  5794.949
 359  6070.833
 360  6167.041
 361  6286.983
 362  6552.128
 363  6544.069
 364  6580.609
 365  6534.746
 366  6595.457
 367  6592.896
 368  6835.561
 369  7001.239
 370  7488.467
 371  7490.75
 372  7477.278
 373  7036.96
 374  6814.553
 375  7463.502
 376  7744.702
 377  7899.073
 378  7975.875
 379  7577.953
 380  7877.35
 381  8021.899
 382  7867.827
 383  7597.798
 384  7521.021
 385  7657.811
 386  7480.036
 387  7376.652
 388  7344.841
 389  7154.005
 390  7310.161
 391  6714.369
 392  7076.007
 393  7360.602
 394  7520.879
 395  8038.75
 396  7561.243
 397  6954.99
 398  7270.121
 399  7916.373
 400  8336.801
 401  8999.214
 402  8684.07
 403  8392.098
 404  8183.247
 405  7508.409
 406  7474.671
 407  7549.703
 408  8069.814
 409  7801.861
 410  7674.838
 411  7662.63
 412  7312.651
 413  7552.526
 414  7794.296
 415  7556.285
 416  7385.959
 417  7378.333
 418  6916.679
 419  6989.371
 420  7132.498
 421  7515.328
 422  7249.795
 423  7029.577
 424  6875.769
 425  6650.581
 426  7113.63
 427  7078.576
 428  6888.005
 429  7435.376
 430  7148.453
 431  6676.152
 432  6293.114
 433  6174.049
 434  6337.968
 435  6030.73
 436  6030.124
 437  6177.819
 438  6269.673
 439  5672.978
 440  5174.476
 441  5181.344
 442  5208.517
 443  5411.447
 444  5595.835
 445  6193.968
 446  6268.951
 447  6001.721
 448  5746.455
 449  6191.015
 450  6426.038
 451  6563.892
 452  6926.198
 453  6591.846
 454  6660.023
 455  6789.68
 456  6408.193
 457  5870.358
 458  5874.125
 459  5877.795
 460  5763.005
 461  5660.908
 462  5719.367
 463  5941.49
 464  6205.441
 465  6003.202
 466  5928.249
 467  6230.155
 468  6647.326
 469  6573.933
 470  6812.868
 471  6725.249
 472  6294.392
 473  6177.199
 474  6353.786
 475  6266.188
 476  6371.579
 477  6425.603
 478  6672.543
 479  6704.947
 480  6929.361
 481  6872.188
 482  6709.115
 483  6998.457
 484  6979.38
 485  6828.835
 486  6538.841
 487  6330.654
 488  6309.43
 489  6825.864
 490  7221.779
 491  7568.05
 492  7627.33
 493  7281.244
 494  7296.312
 495  6981.399
 496  6929.435
 497  7181.225
 498  6872.247
 499  6737.039
 500  6634.126
 501  6237.089
 502  6292.359
 503  6110.086
 504  6259.444
 505  5956.909
 506  6057.461
 507  6170.583
 508  6724.753
 509  6484.59
 510  5641.507
 511  5740.883
