# Input file       =  1204965093.116856_cleaned.dat
# Candidate        =  PSR_0332+5434
# Telescope        =  AR
# Epoch_topo       =  58190.355464315464
# Epoch_bary       =  N/A
# T_sample         =  0.002
# Data Folded      =  7208960
# Data Avg         =  0.0534158386332395
# Data StdDev      =  1.00006298906037 
# Profile Bins     =  512
# Profile Avg      =  752.101375290314 
# Profile StdDev   =  118.666650023519 
# Reduced chi-sqr  =  1.632
# Prob(Noise)      <  6.38e-18   (~8.5 sigma)
# P_topo (ms)      =  714.578105437603  +/- 2.92e-05
# P'_topo (s/s)    =  -0                +/- 1.57e-11
# P''_topo (s/s^2) =  0                 +/- 7.05e-15
# P_bary (ms)      =  N/A
# P'_bary (s/s)    =  N/A
# P''_bary (s/s^2) =  N/A
# P_orb (s)        =  N/A
# asin(i)/c (s)    =  N/A
# eccentricity     =  N/A
# w (rad)          =  N/A
# T_peri           =  N/A
######################################################
   0  1154.93
   1  1145.426
   2  1013.192
   3  749.4974
   4  580.6824
   5  685.6001
   6  736.2361
   7  740.9932
   8  623.3168
   9  482.4857
  10  678.882
  11  686.2122
  12  675.128
  13  674.2793
  14  632.6284
  15  709.9561
  16  744.4281
  17  686.2755
  18  688.829
  19  707.8926
  20  664.1798
  21  773.0899
  22  829.7895
  23  777.561
  24  706.1977
  25  585.638
  26  536.6768
  27  560.353
  28  712.9622
  29  840.3376
  30  757.5418
  31  787.8146
  32  718.0338
  33  671.8995
  34  631.9656
  35  694.36
  36  866.9685
  37  858.3618
  38  847.085
  39  853.8881
  40  751.8431
  41  609.9659
  42  603.3901
  43  695.7426
  44  760.3659
  45  675.8014
  46  751.6107
  47  837.5298
  48  905.191
  49  960.738
  50  808.4805
  51  670.4656
  52  748.9727
  53  760.5099
  54  770.4032
  55  834.4312
  56  867.6817
  57  692.8203
  58  611.9183
  59  608.3641
  60  650.2343
  61  780.3069
  62  793.4841
  63  807.3097
  64  818.9471
  65  793.8308
  66  765.1422
  67  652.3045
  68  600.3174
  69  632.248
  70  734.4109
  71  779.254
  72  787.9379
  73  844.7969
  74  713.7303
  75  707.0548
  76  687.3212
  77  786.2088
  78  794.738
  79  792.1952
  80  977.2831
  81  921.0737
  82  831.6829
  83  705.886
  84  553.8891
  85  537.1792
  86  684.7731
  87  671.7452
  88  730.6846
  89  774.4156
  90  779.2422
  91  768.822
  92  664.06
  93  642.3138
  94  708.4766
  95  765.0231
  96  803.6163
  97  825.8637
  98  854.4751
  99  815.0931
 100  709.4915
 101  702.7327
 102  775.6241
 103  717.1499
 104  787.1357
 105  752.8622
 106  803.4716
 107  701.8759
 108  591.3514
 109  656.3472
 110  678.7499
 111  729.2996
 112  749.6461
 113  705.543
 114  678.4327
 115  632.2493
 116  683.9703
 117  658.8884
 118  741.451
 119  792.6067
 120  705.3674
 121  743.3599
 122  805.8771
 123  628.4024
 124  562.9547
 125  541.1614
 126  630.4193
 127  591.7798
 128  620.8877
 129  791.1788
 130  856.7888
 131  840.8839
 132  703.0191
 133  671.4222
 134  724.3402
 135  713.7613
 136  744.1829
 137  814.1697
 138  824.2844
 139  763.9554
 140  720.2121
 141  660.4625
 142  573.2708
 143  651.5411
 144  768.8818
 145  770.9313
 146  788.5196
 147  827.8807
 148  816.7869
 149  691.6086
 150  632.8643
 151  712.1121
 152  641.262
 153  655.7994
 154  838.2918
 155  832.2779
 156  780.2286
 157  669.0836
 158  663.6815
 159  754.0558
 160  746.7654
 161  695.7711
 162  845.2526
 163  942.2119
 164  820.6995
 165  692.9128
 166  666.3947
 167  731.1537
 168  729.1332
 169  766.4105
 170  884.5207
 171  840.0568
 172  735.3323
 173  668.4273
 174  643.3929
 175  663.7703
 176  635.0691
 177  570.8982
 178  703.1589
 179  811.0462
 180  901.3535
 181  895.8245
 182  755.6164
 183  594.9117
 184  604.1626
 185  742.5259
 186  707.8659
 187  605.1597
 188  725.9453
 189  761.8655
 190  700.4667
 191  640.8318
 192  583.1817
 193  558.0115
 194  670.2501
 195  870.1871
 196  799.5847
 197  721.4672
 198  734.4705
 199  583.8214
 200  578.8625
 201  656.896
 202  614.6472
 203  521.4246
 204  734.7861
 205  823.3647
 206  592.7137
 207  544.287
 208  474.7966
 209  419.3829
 210  463.3911
 211  686.8558
 212  766.8216
 213  786.7922
 214  689.6013
 215  643.04
 216  609.95
 217  642.0334
 218  644.5368
 219  585.3546
 220  617.5279
 221  686.6057
 222  683.1042
 223  641.9332
 224  508.4842
 225  471.3513
 226  534.8168
 227  690.1598
 228  810.1374
 229  781.1301
 230  770.3009
 231  759.8744
 232  682.5751
 233  636.8807
 234  646.7759
 235  736.9106
 236  811.4868
 237  808.0365
 238  851.5515
 239  822.2987
 240  644.2412
 241  601.2112
 242  700.5491
 243  791.7294
 244  801.0541
 245  817.1315
 246  877.7162
 247  864.2054
 248  748.304
 249  734.7903
 250  741.3788
 251  686.2103
 252  833.2734
 253  913.6312
 254  822.8369
 255  840.2329
 256  752.1302
 257  580.2628
 258  622.3757
 259  690.7715
 260  779.7952
 261  752.3008
 262  912.746
 263  966.2026
 264  778.7611
 265  689.494
 266  720.1698
 267  709.8883
 268  761.3828
 269  820.2229
 270  878.1469
 271  830.2311
 272  853.9968
 273  803.373
 274  698.1714
 275  624.6306
 276  615.4998
 277  833.4141
 278  841.225
 279  815.0552
 280  805.459
 281  809.267
 282  851.7598
 283  719.5788
 284  672.9778
 285  669.2224
 286  802.2765
 287  907.2719
 288  971.8143
 289  822.651
 290  674.881
 291  793.5147
 292  786.2493
 293  832.8504
 294  861.0764
 295  848.6351
 296  709.5154
 297  759.5406
 298  737.0167
 299  739.4144
 300  752.3879
 301  859.7551
 302  863.0958
 303  803.8896
 304  859.4551
 305  728.9853
 306  653.8408
 307  762.1639
 308  825.0046
 309  867.4435
 310  999.4572
 311  1047.636
 312  1000.167
 313  919.2872
 314  881.0613
 315  853.2321
 316  874.985
 317  924.9591
 318  1008.325
 319  851.2059
 320  855.1611
 321  829.5179
 322  787.8849
 323  776.3499
 324  891.7692
 325  839.8659
 326  1002.584
 327  976.7388
 328  861.1525
 329  830.014
 330  738.8405
 331  834.8588
 332  780.9526
 333  807.9314
 334  804.9115
 335  827.4065
 336  863.0941
 337  803.1176
 338  755.9745
 339  674.1755
 340  838.5679
 341  725.2928
 342  674.5945
 343  823.1125
 344  973.9003
 345  929.5397
 346  848.9338
 347  751.8787
 348  647.9659
 349  598.038
 350  714.3106
 351  858.0364
 352  798.9265
 353  784.0379
 354  804.7331
 355  679.4459
 356  700.0628
 357  792.8854
 358  724.3409
 359  801.9412
 360  781.7584
 361  865.0125
 362  892.6066
 363  742.4598
 364  685.7792
 365  616.274
 366  683.5109
 367  704.1587
 368  824.5288
 369  931.2443
 370  860.8526
 371  816.3192
 372  645.5771
 373  573.7496
 374  685.006
 375  733.9914
 376  790.775
 377  857.6923
 378  843.3121
 379  805.688
 380  817.8067
 381  716.4604
 382  680.7957
 383  740.176
 384  761.3876
 385  827.5031
 386  715.2797
 387  729.7977
 388  812.5604
 389  714.16
 390  770.3904
 391  727.2573
 392  739.3651
 393  857.1503
 394  881.556
 395  882.7919
 396  787.9346
 397  590.9747
 398  620.0421
 399  679.6814
 400  750.1534
 401  822.2296
 402  839.2983
 403  904.3875
 404  825.1688
 405  703.2753
 406  641.7316
 407  663.3854
 408  753.5077
 409  924.6838
 410  1003.383
 411  874.8601
 412  788.019
 413  746.8908
 414  570.2157
 415  615.9195
 416  706.7762
 417  938.0247
 418  864.9158
 419  784.6165
 420  719.1761
 421  756.9182
 422  682.4365
 423  718.5916
 424  819.1504
 425  854.3386
 426  813.6404
 427  776.5141
 428  820.9903
 429  814.822
 430  772.7316
 431  759.6546
 432  758.3105
 433  771.6301
 434  826.0817
 435  896.8335
 436  869.1663
 437  725.2048
 438  761.6503
 439  797.0091
 440  720.611
 441  683.3719
 442  893.3936
 443  945.5709
 444  931.7739
 445  893.7111
 446  817.5212
 447  686.3135
 448  655.8261
 449  772.6854
 450  792.9666
 451  908.3303
 452  843.6937
 453  692.4025
 454  700.8024
 455  654.2354
 456  656.0641
 457  645.9086
 458  755.2814
 459  837.3177
 460  961.8943
 461  1001.818
 462  828.9028
 463  763.2149
 464  713.6498
 465  880.8873
 466  806.3416
 467  845.7925
 468  851.1752
 469  876.3797
 470  779.9574
 471  680.3138
 472  714.8255
 473  718.1762
 474  685.6471
 475  739.0519
 476  824.3515
 477  897.0404
 478  770.6987
 479  739.4985
 480  732.0608
 481  731.2638
 482  695.4557
 483  662.4927
 484  665.3331
 485  700.442
 486  645.1522
 487  667.178
 488  603.254
 489  473.4547
 490  572.7648
 491  729.5692
 492  874.981
 493  864.1906
 494  837.7695
 495  731.9813
 496  589.4184
 497  572.9744
 498  582.8281
 499  567.139
 500  677.3718
 501  791.5905
 502  768.6027
 503  731.9633
 504  611.6558
 505  568.8713
 506  616.0287
 507  687.7477
 508  767.5084
 509  1076.413
 510  1176.938
 511  1138.191
