# Input file       =  1204118180.101071_cleaned.dat
# Candidate        =  PSR_0332+5434
# Telescope        =  AR
# Epoch_topo       =  58180.553230336467
# Epoch_bary       =  N/A
# T_sample         =  0.002
# Data Folded      =  7340032
# Data Avg         =  0.0826634076481115
# Data StdDev      =  1.00009418338594 
# Profile Bins     =  512
# Profile Avg      =  1184.93787005242 
# Profile StdDev   =  119.744313239541 
# Reduced chi-sqr  =  1.332
# Prob(Noise)      <  6.68e-07   (~4.8 sigma)
# P_topo (ms)      =  714.580223731953  +/- 0.00104
# P'_topo (s/s)    =  -0                +/- 5.48e-10
# P''_topo (s/s^2) =  0                 +/- 2.42e-13
# P_bary (ms)      =  N/A
# P'_bary (s/s)    =  N/A
# P''_bary (s/s^2) =  N/A
# P_orb (s)        =  N/A
# asin(i)/c (s)    =  N/A
# eccentricity     =  N/A
# w (rad)          =  N/A
# T_peri           =  N/A
######################################################
   0  1091.422
   1  1181.337
   2  1249.491
   3  1247.737
   4  1297.302
   5  1288.916
   6  1172.28
   7  1187.766
   8  1220.429
   9  1164.255
  10  1150.026
  11  1144.579
  12  1192.795
  13  1185.552
  14  1197.636
  15  1171.708
  16  1195.923
  17  1203.263
  18  1185.824
  19  1167.337
  20  1091.097
  21  1179.612
  22  1145.209
  23  1121.268
  24  1143.958
  25  1117.247
  26  1139.017
  27  1071.662
  28  1076.772
  29  1178.127
  30  1160.249
  31  1232.97
  32  1235.801
  33  1172.225
  34  1200.902
  35  1240.614
  36  1213.64
  37  1306.204
  38  1295.071
  39  1302.208
  40  1266.525
  41  1235.703
  42  1317.884
  43  1257.055
  44  1244.05
  45  1325.296
  46  1366.029
  47  1394.573
  48  1338.149
  49  1323.444
  50  1295.756
  51  1268.918
  52  1269.793
  53  1299.683
  54  1306.134
  55  1346.624
  56  1337.186
  57  1289.688
  58  1368.253
  59  1299.393
  60  1265.919
  61  1185.571
  62  1220.955
  63  1248.584
  64  1268.983
  65  1271.41
  66  1241.436
  67  1217.019
  68  1244.579
  69  1228.141
  70  1197.281
  71  1231.905
  72  1277.276
  73  1288.229
  74  1268.238
  75  1242.209
  76  1212.338
  77  1190.747
  78  1314.237
  79  1397.946
  80  1408.47
  81  1426.513
  82  1330.634
  83  1281.427
  84  1340.739
  85  1342.712
  86  1387.214
  87  1351.217
  88  1331.565
  89  1384.898
  90  1442.071
  91  1422.012
  92  1351.805
  93  1291.082
  94  1295.406
  95  1327.638
  96  1238.031
  97  1270.487
  98  1227.008
  99  1267.699
 100  1339.721
 101  1303.77
 102  1237.005
 103  1243.905
 104  1275.128
 105  1254.355
 106  1301.859
 107  1366.884
 108  1305.207
 109  1252.388
 110  1224.77
 111  1198.11
 112  1241.16
 113  1283.625
 114  1317.782
 115  1319.077
 116  1311.801
 117  1286.95
 118  1371.483
 119  1322.46
 120  1199.925
 121  1222.943
 122  1265.544
 123  1249.904
 124  1257.935
 125  1389.181
 126  1353.773
 127  1252.253
 128  1204.806
 129  1222.573
 130  1298.687
 131  1289.653
 132  1370.323
 133  1374.675
 134  1399.66
 135  1287.563
 136  1333.568
 137  1391.728
 138  1326.678
 139  1285.951
 140  1274.115
 141  1208.144
 142  1235.86
 143  1311.316
 144  1303.846
 145  1340.32
 146  1257.764
 147  1284.701
 148  1322.157
 149  1305.795
 150  1294.891
 151  1325.282
 152  1323.367
 153  1384.212
 154  1394.872
 155  1380.287
 156  1360.581
 157  1363.329
 158  1316.743
 159  1276.053
 160  1241.769
 161  1222.064
 162  1280.886
 163  1262.408
 164  1237.595
 165  1330.429
 166  1313.535
 167  1283.172
 168  1324.018
 169  1267.722
 170  1237.875
 171  1253.224
 172  1253.207
 173  1273.18
 174  1225.438
 175  1271.903
 176  1228.341
 177  1226.975
 178  1269.76
 179  1217.617
 180  1285.01
 181  1216.084
 182  1202.083
 183  1186.721
 184  1211.862
 185  1279.469
 186  1233.626
 187  1203.291
 188  1273.462
 189  1241.559
 190  1240.897
 191  1245.133
 192  1328.767
 193  1276.707
 194  1153.134
 195  1155.863
 196  1258.373
 197  1183.287
 198  1132.847
 199  1174.921
 200  1207.05
 201  1148.884
 202  1168.697
 203  1197.403
 204  1149.217
 205  1150.318
 206  1152.729
 207  1150.915
 208  1136.698
 209  1210.833
 210  1231.576
 211  1304.296
 212  1460.494
 213  1507.145
 214  1517.291
 215  1387.763
 216  1328.8
 217  1292.826
 218  1275.713
 219  1211.887
 220  1206.956
 221  1198.438
 222  1189.434
 223  1160.908
 224  1126.098
 225  1169.719
 226  1161.78
 227  1141.427
 228  1233.242
 229  1176.8
 230  1131.164
 231  1148.089
 232  1169.916
 233  1147.19
 234  1127.387
 235  1120.347
 236  1114.052
 237  1084.421
 238  1104.538
 239  1141.852
 240  1123.294
 241  1054.467
 242  1050.889
 243  1092.842
 244  1129.907
 245  1058.798
 246  1046.401
 247  1067.408
 248  1017.91
 249  1106.958
 250  1096.941
 251  1090.611
 252  1078.911
 253  1099.455
 254  1111.82
 255  1166.18
 256  1080.403
 257  1042.578
 258  1100.209
 259  1121.429
 260  1157.636
 261  1168.759
 262  1192.9
 263  1159.208
 264  1163.671
 265  1107.552
 266  1102.266
 267  1152.815
 268  1179.529
 269  1187.58
 270  1149.311
 271  1093.038
 272  1114.957
 273  1099.078
 274  1057.319
 275  1128.282
 276  1170.496
 277  1167.1
 278  1167.651
 279  1171.458
 280  1121.038
 281  1073.335
 282  1093.505
 283  1069.332
 284  1085.861
 285  1180.032
 286  1144.653
 287  1099.9
 288  1084.312
 289  1120.68
 290  1098.321
 291  1124.095
 292  1152.45
 293  1118.067
 294  1142.859
 295  1174.743
 296  1198.742
 297  1182.218
 298  1104.867
 299  1086.105
 300  1066.196
 301  1101.036
 302  1125.831
 303  1138.267
 304  1144.239
 305  1115.494
 306  1162.968
 307  1191.61
 308  1142.168
 309  1090.378
 310  1058.626
 311  1109.976
 312  1037.86
 313  1026.703
 314  1018.439
 315  1002.011
 316  1013.082
 317  1127.628
 318  1101.495
 319  978.9131
 320  1039.93
 321  1137.021
 322  1058.005
 323  979.1754
 324  1008.144
 325  1011.119
 326  1009.737
 327  1025.259
 328  1066.562
 329  1047.237
 330  1034.491
 331  1093.146
 332  1018.501
 333  957.4143
 334  986.0417
 335  1028.31
 336  1054.512
 337  1103.863
 338  1035.191
 339  1037.921
 340  1011.983
 341  1020.884
 342  1061.411
 343  1072.517
 344  1068.483
 345  1030.045
 346  1043.188
 347  1070.1
 348  1043.193
 349  1024.133
 350  1045.131
 351  1071.739
 352  1048.797
 353  1075.613
 354  1048.277
 355  1070.598
 356  1149.629
 357  1119.323
 358  1105.107
 359  1126.226
 360  1156.567
 361  1188.562
 362  1091.818
 363  1111.783
 364  1098.312
 365  1122.96
 366  1149.927
 367  1159.643
 368  1095.713
 369  1086.932
 370  1068.437
 371  1000.26
 372  1048.661
 373  1151.264
 374  1181.924
 375  1188.678
 376  1153.403
 377  1140.526
 378  1153.675
 379  1193.02
 380  1120.679
 381  1142.02
 382  1124.248
 383  1154.353
 384  1157.269
 385  1213.592
 386  1206.023
 387  1096.699
 388  1139.024
 389  1116.271
 390  1066.742
 391  1056.019
 392  1083.752
 393  1102.646
 394  1148.687
 395  1145.462
 396  1140.387
 397  1135.941
 398  1013.841
 399  1049.717
 400  1157.506
 401  1128.79
 402  1102.232
 403  1092.778
 404  1147.185
 405  1101.016
 406  1103.959
 407  1055.325
 408  1068.46
 409  1163.569
 410  1118.56
 411  1044.285
 412  1025.25
 413  1067.404
 414  1075.864
 415  1057.673
 416  1081.139
 417  1099.024
 418  1045.278
 419  1096.93
 420  1076.32
 421  1073.81
 422  1044.031
 423  1051.788
 424  1116.054
 425  1090.66
 426  1115.687
 427  1151.987
 428  1151.832
 429  1113.439
 430  1039.915
 431  1070.392
 432  1039.684
 433  1092.135
 434  1213.872
 435  1146.084
 436  1134.038
 437  1176.809
 438  1075.469
 439  1069.194
 440  1115.163
 441  1126.505
 442  1050.242
 443  1119.63
 444  1152.024
 445  1096.362
 446  1156.314
 447  1127.45
 448  1129.953
 449  1126.714
 450  1159.018
 451  1160.948
 452  1149.89
 453  1195.939
 454  1136.768
 455  1162.818
 456  1165.013
 457  1114.645
 458  1094.903
 459  1249.457
 460  1272.363
 461  1227.338
 462  1132.36
 463  1114.365
 464  1197.334
 465  1150.656
 466  1177.931
 467  1242.48
 468  1232.287
 469  1190.121
 470  1218.782
 471  1274.162
 472  1253.951
 473  1228.95
 474  1267.26
 475  1223
 476  1380.612
 477  1378.824
 478  1309.961
 479  1192.82
 480  1284.018
 481  1266.722
 482  1254.057
 483  1300.211
 484  1288.308
 485  1272.59
 486  1265.921
 487  1268.026
 488  1201.421
 489  1213.563
 490  1208.863
 491  1126.149
 492  1187.172
 493  1264.926
 494  1273.848
 495  1240.584
 496  1160.949
 497  1204.234
 498  1168.365
 499  1124.033
 500  1139.907
 501  1117.398
 502  1189.891
 503  1132.811
 504  1121.672
 505  1085.007
 506  1118.081
 507  1167.329
 508  1113.686
 509  1206.478
 510  1126.083
 511  1087.597
