# Input file       =  1204534384.116725_cleaned.dat
# Candidate        =  PSR_0332+5434
# Telescope        =  AR
# Epoch_topo       =  58185.370406443573
# Epoch_bary       =  N/A
# T_sample         =  0.002
# Data Folded      =  7405568
# Data Avg         =  0.273547827211555
# Data StdDev      =  6.54527003437186 
# Profile Bins     =  256
# Profile Avg      =  7913.17195084045 
# Profile StdDev   =  1113.23479758553 
# Reduced chi-sqr  =  1.262
# Prob(Noise)      <  0.00286   (~2.8 sigma)
# P_topo (ms)      =  714.579384523657  +/- 4.44e-05
# P'_topo (s/s)    =  -0                +/- 2.32e-11
# P''_topo (s/s^2) =  0                 +/- 1.01e-14
# P_bary (ms)      =  N/A
# P'_bary (s/s)    =  N/A
# P''_bary (s/s^2) =  N/A
# P_orb (s)        =  N/A
# asin(i)/c (s)    =  N/A
# eccentricity     =  N/A
# w (rad)          =  N/A
# T_peri           =  N/A
######################################################
   0  8691.288
   1  8267.397
   2  8033.497
   3  5901.372
   4  7674.438
   5  8621.332
   6  9925.521
   7  7590.382
   8  6105.735
   9  8341.521
  10  9090.218
  11  7172.484
  12  7886.762
  13  8973.681
  14  9965.412
  15  8685.332
  16  7544.715
  17  7165.163
  18  8095.934
  19  6676.734
  20  6839.727
  21  8679.245
  22  8817.453
  23  8753.807
  24  7994.643
  25  8432.059
  26  7825.687
  27  7676.477
  28  5450.739
  29  9047.423
  30  8813.116
  31  8614.406
  32  6827.114
  33  8770.217
  34  7213.369
  35  6777.758
  36  5471.053
  37  8303.587
  38  8818.993
  39  8769.873
  40  6593.556
  41  7207.943
  42  8569.812
  43  8521.021
  44  6448.823
  45  6913.793
  46  9453.139
  47  10445.48
  48  8427.557
  49  6892.391
  50  8147.776
  51  8070.225
  52  8122.028
  53  7030.571
  54  8888.603
  55  9731.013
  56  9344.634
  57  8199.058
  58  7893.575
  59  8105.704
  60  8080.615
  61  6197.456
  62  8120.504
  63  8329.976
  64  9906.904
  65  8380.303
  66  7968.237
  67  7186.235
  68  7079.417
  69  6147.538
  70  7603.876
  71  8300.01
  72  9522.097
  73  7601.907
  74  8768.462
  75  7988.714
  76  7559.315
  77  6321.153
  78  7422.448
  79  8982.233
  80  9711.652
  81  8391.148
  82  7011.869
  83  6847.064
  84  7592.63
  85  6456.094
  86  5249.611
  87  8065.925
  88  8623.596
  89  7940.773
  90  6189.088
  91  7125.816
  92  7764.771
  93  7177.822
  94  5080.35
  95  7339.444
  96  8739.05
  97  9334.095
  98  7361.154
  99  7587.788
 100  7282.695
 101  9077.223
 102  6547.025
 103  8793.264
 104  8742.662
 105  9080.244
 106  8768.867
 107  8305.479
 108  7668.146
 109  7389.635
 110  6554.523
 111  7677.098
 112  8782.221
 113  9062.857
 114  8080.05
 115  7529.075
 116  8593.61
 117  7839.903
 118  6797.564
 119  5986.186
 120  8720.731
 121  9004.523
 122  8769.341
 123  7176.992
 124  8215.119
 125  6895.497
 126  7228.067
 127  5719.608
 128  9114.214
 129  9443.333
 130  8709.574
 131  6890.822
 132  7953.582
 133  8162.3
 134  8738.39
 135  5867.311
 136  7231.23
 137  8446.731
 138  10334.15
 139  8326.481
 140  6865.457
 141  7067.155
 142  7667.141
 143  6960.959
 144  7329.574
 145  9110.268
 146  8443.363
 147  8928.026
 148  8218.944
 149  8530.121
 150  8366.829
 151  8725.181
 152  9316.129
 153  10433.85
 154  9305.413
 155  9186.379
 156  6516.577
 157  7813.649
 158  6981.494
 159  7749.146
 160  5297.828
 161  7857.17
 162  8874.148
 163  9064.896
 164  6971.052
 165  8344.393
 166  7737.084
 167  8113.613
 168  6153.99
 169  7157.355
 170  8959.943
 171  9744.887
 172  8422.555
 173  8540.044
 174  9139.755
 175  8409.896
 176  6549.393
 177  7255.595
 178  9097.425
 179  9740.95
 180  9166.953
 181  8723.384
 182  7646.788
 183  7432.712
 184  7455.655
 185  7475.536
 186  9088.777
 187  9025.219
 188  9410.146
 189  8260.73
 190  7671.537
 191  7495.777
 192  8005.108
 193  6140.177
 194  8418.806
 195  8532.143
 196  9538.482
 197  8153.819
 198  8802.893
 199  7737.636
 200  6774.01
 201  6351.586
 202  8261.927
 203  9172.049
 204  8979.286
 205  7627.084
 206  7650.989
 207  8427.723
 208  8177.773
 209  5669.825
 210  7048.181
 211  9355.483
 212  9973.509
 213  7577.43
 214  6908.324
 215  8319.747
 216  7252.342
 217  7401.855
 218  6139.642
 219  8739.321
 220  8686.852
 221  8564.87
 222  7114.03
 223  7416.835
 224  7104.675
 225  6575.313
 226  4543.46
 227  7302.289
 228  7651.21
 229  9303.66
 230  7856.303
 231  6793.274
 232  7266.533
 233  8047.438
 234  5565.067
 235  7307.106
 236  8309.084
 237  8284.565
 238  7802.582
 239  8110.512
 240  7268.432
 241  7065.251
 242  6574.178
 243  7027.953
 244  8474.294
 245  8129.63
 246  8020.151
 247  8244.369
 248  8752.447
 249  7799.682
 250  6892.382
 251  5068.936
 252  9207.199
 253  9401.712
 254  8681.69
 255  6744.237
