# Input file       =  1204893568.118315_cleaned.dat
# Candidate        =  PSR_0332+5434
# Telescope        =  AR
# Epoch_topo       =  58189.527628684198
# Epoch_bary       =  N/A
# T_sample         =  0.002
# Data Folded      =  7340032
# Data Avg         =  0.497925515791782
# Data StdDev      =  6.28346375967871 
# Profile Bins     =  512
# Profile Avg      =  7137.83287339593 
# Profile StdDev   =  752.338194909702 
# Reduced chi-sqr  =  0.786
# Prob(Noise)      <  1   (~0.0 sigma)
# P_topo (ms)      =  714.57835924074   +/- 0.000725
# P'_topo (s/s)    =  -0                +/- 3.82e-10
# P''_topo (s/s^2) =  0                 +/- 1.69e-13
# P_bary (ms)      =  N/A
# P'_bary (s/s)    =  N/A
# P''_bary (s/s^2) =  N/A
# P_orb (s)        =  N/A
# asin(i)/c (s)    =  N/A
# eccentricity     =  N/A
# w (rad)          =  N/A
# T_peri           =  N/A
######################################################
   0  7332.604
   1  7481.69
   2  7199.535
   3  7490.577
   4  7291.249
   5  7033.866
   6  7208.195
   7  7573.979
   8  7713.22
   9  7740.941
  10  7684.511
  11  7338.305
  12  7255.045
  13  7453.731
  14  7340.014
  15  7240.445
  16  7046.821
  17  6928.923
  18  6919.858
  19  7120.553
  20  7101.867
  21  7222.284
  22  7017.67
  23  6458.241
  24  6868.591
  25  6960.984
  26  6973.976
  27  6909.322
  28  6784.708
  29  7226.229
  30  7414.926
  31  7495.069
  32  7471.524
  33  7347.777
  34  7212.622
  35  6968.47
  36  7082.016
  37  7226.293
  38  7156.402
  39  6922.802
  40  7147.96
  41  6922.593
  42  6857.203
  43  7129.417
  44  7183.95
  45  7122.347
  46  7072.593
  47  7099.411
  48  6875.405
  49  7002.944
  50  7206.12
  51  6940.832
  52  7251.062
  53  7452.937
  54  7516.11
  55  7334.23
  56  6786.291
  57  7072.757
  58  7249.001
  59  7318.557
  60  7412.8
  61  7340.125
  62  7540.441
  63  7703.231
  64  7474.507
  65  7565.168
  66  7371.048
  67  7277.89
  68  7013.292
  69  7082.235
  70  7666.451
  71  7544.595
  72  7658.411
  73  7585.915
  74  7121.189
  75  7424.885
  76  7801.649
  77  7897.668
  78  7634.412
  79  7437.659
  80  7531.855
  81  7447.086
  82  7804.131
  83  7440.255
  84  7379.603
  85  7369.696
  86  7468.264
  87  7275.663
  88  7096.889
  89  6872.759
  90  7075.358
  91  7106.188
  92  7413.034
  93  7603.741
  94  7730.063
  95  8025.513
  96  8013.14
  97  7391.105
  98  7284.698
  99  7045.959
 100  6600.584
 101  6681.185
 102  7053.717
 103  6919.934
 104  6368.354
 105  6382.961
 106  6463.696
 107  6669.67
 108  6556.04
 109  6608.687
 110  6513.645
 111  6223.41
 112  6395.34
 113  6510.718
 114  6748.455
 115  6461.69
 116  6640.548
 117  6615.661
 118  6867.925
 119  7175.589
 120  6791.777
 121  6793.25
 122  6719.476
 123  6463.335
 124  6566.408
 125  6684.354
 126  6723.102
 127  6631.167
 128  6530.859
 129  6818.101
 130  7131.019
 131  7017.288
 132  6989.003
 133  6755.335
 134  6695.021
 135  6521.577
 136  6544.529
 137  7024.385
 138  6886.666
 139  7143.375
 140  6967.99
 141  6487.999
 142  6585.501
 143  6401.907
 144  6725.059
 145  7021.148
 146  7007.954
 147  6883.808
 148  6773.608
 149  6967.162
 150  7320.096
 151  7484.333
 152  7341.571
 153  7120.74
 154  7476.833
 155  7522.235
 156  7315.037
 157  6844.968
 158  6946.432
 159  7511.528
 160  7335.399
 161  7323.463
 162  7588.857
 163  7993.596
 164  7956.837
 165  7641.137
 166  7619.889
 167  7625.133
 168  7606.838
 169  7844.31
 170  7621.08
 171  7180.985
 172  6907.225
 173  6924.583
 174  7060.509
 175  6834.962
 176  7000.051
 177  7052.235
 178  7057.931
 179  7067.339
 180  6668.119
 181  6641.733
 182  6760.125
 183  7249.891
 184  7216.654
 185  7216.93
 186  7558.34
 187  7336.549
 188  7145.853
 189  7074.282
 190  6816.079
 191  7068.021
 192  7128.749
 193  7127.623
 194  6998.665
 195  7198.08
 196  7153.541
 197  6874.873
 198  6792.762
 199  7069.787
 200  6894.695
 201  6720.015
 202  6919.712
 203  6661.586
 204  6721.149
 205  6867.836
 206  6896.007
 207  7050.43
 208  7406.624
 209  7066.428
 210  7107.453
 211  6951.907
 212  7284.295
 213  6871.298
 214  6838
 215  6972.653
 216  7063.685
 217  6793.249
 218  6835.593
 219  7165.92
 220  7067.546
 221  7383.13
 222  7326.412
 223  6963.6
 224  6801.722
 225  6977.096
 226  7131.634
 227  7163.848
 228  7097.823
 229  7051.489
 230  6957.951
 231  6906.11
 232  6733.021
 233  6708.993
 234  6892.419
 235  7073.315
 236  7411.191
 237  7202.962
 238  7650.931
 239  7627.649
 240  7470.48
 241  7420.438
 242  7508.808
 243  7615.985
 244  7482.313
 245  7413.678
 246  7532.391
 247  7730.574
 248  7376.293
 249  6621.324
 250  6605.128
 251  6788.196
 252  6618.445
 253  6893.537
 254  7296.443
 255  7391.359
 256  6925.626
 257  6774.474
 258  6603.847
 259  6612.511
 260  6907.912
 261  6881.771
 262  6617.802
 263  6913.012
 264  6953.971
 265  6991.328
 266  6832.813
 267  6876.967
 268  6690.858
 269  6820.147
 270  7081.815
 271  6687.027
 272  6528.544
 273  6610.453
 274  6416.732
 275  6191.604
 276  6512.935
 277  6395.087
 278  6457.887
 279  6616.442
 280  6744.42
 281  7068.34
 282  6975.543
 283  6738.71
 284  6623.177
 285  6896.751
 286  7163.535
 287  7375.474
 288  7015.636
 289  7060.651
 290  7393.546
 291  7426.576
 292  7078.596
 293  6910.289
 294  6870.811
 295  7364.464
 296  7325.486
 297  7386.226
 298  7426.098
 299  7571.126
 300  7769.005
 301  7793.129
 302  8396.331
 303  8780.102
 304  9087.907
 305  8950.341
 306  8625.358
 307  8010.604
 308  7682.596
 309  7381.862
 310  7208.918
 311  7365.143
 312  7316.335
 313  7196.773
 314  7207.831
 315  7695.972
 316  7700.779
 317  7693.443
 318  7562.589
 319  7095.95
 320  7413.009
 321  7528.371
 322  7688.316
 323  7759.6
 324  7511.004
 325  7133.319
 326  7424.334
 327  7415.559
 328  7262.231
 329  7135.538
 330  7345.333
 331  7404.263
 332  7183.83
 333  7474.694
 334  7645.965
 335  7590.524
 336  7648.928
 337  7783.693
 338  7953.358
 339  8160.94
 340  8141.268
 341  8166.934
 342  8264.38
 343  8253.247
 344  8395.819
 345  8522.613
 346  8522.616
 347  8385.062
 348  8458.53
 349  8102.253
 350  8402.569
 351  8813.742
 352  8735.624
 353  8241.398
 354  8295.968
 355  8591.437
 356  8226.114
 357  8085.062
 358  7951.244
 359  8195.18
 360  8002.876
 361  7787.111
 362  7996.009
 363  8072.614
 364  7834.131
 365  7431.453
 366  7384.866
 367  7528.584
 368  7582.143
 369  7470.497
 370  7246.532
 371  7398.249
 372  7284.965
 373  7084.397
 374  7134.577
 375  6988.856
 376  6772.639
 377  6626.326
 378  6650.074
 379  6598.495
 380  6674.604
 381  6351.178
 382  6253.189
 383  6390.672
 384  6481.936
 385  6666.053
 386  6234.546
 387  6271.227
 388  6483.902
 389  6647.725
 390  6846.698
 391  7113.172
 392  7055.832
 393  6801.021
 394  6847.052
 395  6979.685
 396  6842.145
 397  6749.344
 398  6957.793
 399  7017.463
 400  7031.758
 401  7162.785
 402  7155.526
 403  7000.977
 404  6834.425
 405  6719.987
 406  7042.683
 407  7197.905
 408  7166.766
 409  6996.767
 410  7173.533
 411  7284.738
 412  7170.367
 413  6894.97
 414  7001.638
 415  7148.891
 416  7174.42
 417  7276.589
 418  7127.579
 419  7213.563
 420  6906.573
 421  7035.436
 422  6901.064
 423  6711.891
 424  7054.359
 425  7101.95
 426  7159.663
 427  7198.716
 428  7512.505
 429  7273.613
 430  7478.13
 431  7242.977
 432  7340.711
 433  7332.567
 434  7263.404
 435  7157.224
 436  6959.607
 437  6980.698
 438  6993.979
 439  6815.253
 440  6881.017
 441  7091.832
 442  7136.605
 443  6861.376
 444  6713.545
 445  6781.485
 446  6649.293
 447  6709.724
 448  6932.711
 449  7009.738
 450  6890.134
 451  7109.749
 452  7382.651
 453  7228.724
 454  7248.837
 455  7181.66
 456  7424.978
 457  7564.114
 458  7414.065
 459  7381.202
 460  7346.087
 461  7166.23
 462  6874.735
 463  7253.298
 464  7554.772
 465  7398.175
 466  7320.035
 467  7033.923
 468  6829.506
 469  6863.288
 470  6951.241
 471  6888.591
 472  6726.525
 473  6636.344
 474  6467.111
 475  6801.118
 476  7227.534
 477  6953.611
 478  6796.764
 479  6852.552
 480  6705.746
 481  6761.148
 482  6410.491
 483  6543.561
 484  6052.113
 485  5978.488
 486  6446.082
 487  6285.476
 488  6262.195
 489  6391.017
 490  6414.915
 491  6465.992
 492  6727.604
 493  6813.15
 494  6532.366
 495  6219.627
 496  6327.898
 497  6684.185
 498  6417.538
 499  6608.606
 500  6624.557
 501  6231.125
 502  6265.622
 503  6378.731
 504  6305.109
 505  6537.998
 506  6608.709
 507  6625.83
 508  6601.067
 509  7259.446
 510  7170.331
 511  6988.482
