# Input file       =  1204397746.104123_cleaned.dat
# Candidate        =  PSR_0332+5434
# Telescope        =  AR
# Epoch_topo       =  58183.788947964385
# Epoch_bary       =  N/A
# T_sample         =  0.002
# Data Folded      =  7340032
# Data Avg         =  0.065828361495473
# Data StdDev      =  2.97098496776293 
# Profile Bins     =  512
# Profile Avg      =  943.830576521126 
# Profile StdDev   =  355.725051219984 
# Reduced chi-sqr  =  1.117
# Prob(Noise)      <  0.0344   (~1.8 sigma)
# P_topo (ms)      =  714.580199712682  +/- 0.000323
# P'_topo (s/s)    =  -0                +/- 1.7e-10
# P''_topo (s/s^2) =  0                 +/- 7.52e-14
# P_bary (ms)      =  N/A
# P'_bary (s/s)    =  N/A
# P''_bary (s/s^2) =  N/A
# P_orb (s)        =  N/A
# asin(i)/c (s)    =  N/A
# eccentricity     =  N/A
# w (rad)          =  N/A
# T_peri           =  N/A
######################################################
   0  1285.287
   1  1372.103
   2  1186.716
   3  984.3499
   4  913.7319
   5  1032.533
   6  706.421
   7  1151.699
   8  1166.602
   9  683.5599
  10  811.1786
  11  1055.056
  12  1317.495
  13  1310.62
  14  1060.673
  15  1210.061
  16  1602.8
  17  1420.575
  18  960.1917
  19  1134.596
  20  1006.617
  21  710.8711
  22  839.9564
  23  927.0195
  24  1009.002
  25  1238.505
  26  1064.355
  27  918.7225
  28  783.7051
  29  464.2513
  30  669.0345
  31  996.0006
  32  1009.818
  33  992.3922
  34  959.4031
  35  781.1813
  36  796.3039
  37  867.5575
  38  756.1706
  39  778.9206
  40  1059.586
  41  1040.627
  42  987.3876
  43  1168.296
  44  1061.226
  45  895.9346
  46  1111.634
  47  920.2545
  48  641.8029
  49  910.8452
  50  1152.801
  51  879.5515
  52  600.9052
  53  613.5385
  54  399.6786
  55  625.0666
  56  622.003
  57  1009.137
  58  874.8304
  59  949.0459
  60  932.6553
  61  1083.722
  62  1174.32
  63  980.7994
  64  850.5794
  65  1057.38
  66  1227.422
  67  1139.36
  68  788.6744
  69  815.0609
  70  887.7069
  71  727.6893
  72  1057.721
  73  1143.172
  74  858.499
  75  758.9172
  76  1055.732
  77  1090.926
  78  1368.704
  79  1284.272
  80  1052.21
  81  1001.648
  82  1214.261
  83  952.8295
  84  899.9798
  85  1334.894
  86  1558.433
  87  1433.974
  88  1421.548
  89  1379.168
  90  1341.058
  91  1055.54
  92  1045.925
  93  1238.178
  94  1309.373
  95  1169.585
  96  965.2791
  97  893.7302
  98  752.6179
  99  906.9668
 100  864.0989
 101  886.2231
 102  799.8124
 103  475.4917
 104  772.7625
 105  899.6746
 106  817.6984
 107  1188.729
 108  1203.092
 109  777.6631
 110  917.1672
 111  921.5262
 112  986.1422
 113  1155.308
 114  1086.9
 115  1056.52
 116  865.7635
 117  671.0409
 118  853.7521
 119  603.3741
 120  989.9844
 121  1128.05
 122  1137.767
 123  1000.687
 124  863.2662
 125  555.0213
 126  740.5403
 127  666.5272
 128  634.7782
 129  810.6204
 130  798.0893
 131  971.2081
 132  1035.009
 133  727.6962
 134  526.9572
 135  674.0626
 136  900.8611
 137  1023.345
 138  775.354
 139  293.086
 140  861.52
 141  907.3963
 142  848.2498
 143  947.2388
 144  897.8029
 145  763.6344
 146  719.6314
 147  902.1412
 148  663.9796
 149  756.3518
 150  1160.732
 151  1165.891
 152  1057.22
 153  1115.775
 154  1155.854
 155  844.4971
 156  702.8421
 157  741.4796
 158  957.6577
 159  953.4283
 160  795.1438
 161  1172.677
 162  906.0002
 163  982.4407
 164  755.1451
 165  870.295
 166  821.9014
 167  896.132
 168  1271.029
 169  897.5378
 170  848.1609
 171  948.2228
 172  874.7818
 173  953.7782
 174  1116.207
 175  1095.412
 176  1000.481
 177  802.1761
 178  945.0239
 179  1069.841
 180  1045.503
 181  946.7943
 182  1091.62
 183  1065.687
 184  960.3167
 185  892.8392
 186  885.5345
 187  1058.854
 188  1046.216
 189  852.8646
 190  982.5236
 191  1019.463
 192  936.0138
 193  692.1139
 194  392.1075
 195  687.7126
 196  581.5294
 197  651.6544
 198  698.4288
 199  639.9695
 200  691.2166
 201  528.1387
 202  650.2905
 203  817.5302
 204  877.2355
 205  948.5969
 206  1181.282
 207  1060.611
 208  871.4324
 209  742.8268
 210  867.0129
 211  820.9431
 212  1164.503
 213  647.4164
 214  580.5538
 215  879.0564
 216  1179.868
 217  973.4272
 218  504.2717
 219  593.1407
 220  836.4509
 221  706.55
 222  530.6976
 223  588.4623
 224  463.9847
 225  773.6201
 226  948.2257
 227  970.7877
 228  1137.846
 229  1038.22
 230  719.8992
 231  429.3821
 232  611.4938
 233  903.6155
 234  1031.363
 235  750.3171
 236  569.6606
 237  781.9216
 238  954.0027
 239  1028.171
 240  861.9974
 241  845.834
 242  738.4773
 243  797.4802
 244  1001.793
 245  735.9807
 246  758.9048
 247  672.8475
 248  1037.958
 249  1151.926
 250  437.353
 251  619.1282
 252  1019.135
 253  818.128
 254  402.6043
 255  493.5642
 256  949.2695
 257  1193.054
 258  1029.751
 259  1059.428
 260  774.7298
 261  1211.327
 262  1122.739
 263  903.4343
 264  902.6715
 265  922.4902
 266  767.9715
 267  1165.772
 268  1148.372
 269  658.7422
 270  944.733
 271  945.7715
 272  1184.662
 273  1191.775
 274  847.3861
 275  680.2777
 276  568.9358
 277  730.3273
 278  980.9692
 279  1053.365
 280  390.0755
 281  407.8591
 282  473.7241
 283  797.511
 284  1026.946
 285  1067.31
 286  1130.765
 287  522.8352
 288  596.2759
 289  766.0423
 290  913.8062
 291  726.0616
 292  720.4199
 293  1113.173
 294  1186.479
 295  1076.231
 296  1043.071
 297  1069.09
 298  1135.971
 299  1268.719
 300  1340.058
 301  1532.131
 302  1997.522
 303  2582.055
 304  2391.035
 305  2611.609
 306  2630.215
 307  1858.219
 308  1277.483
 309  872.4151
 310  849.7361
 311  883.0592
 312  984.0162
 313  1101.673
 314  1257.802
 315  1316.582
 316  912.9557
 317  961.4878
 318  1093.234
 319  1143.151
 320  701.8798
 321  787.8033
 322  1017.54
 323  728.4511
 324  699.4857
 325  807.3483
 326  770.4559
 327  779.0652
 328  662.8215
 329  849.9952
 330  664.4776
 331  674.6715
 332  883.4638
 333  636.7224
 334  485.6684
 335  832.4663
 336  1114.738
 337  915.7329
 338  826.3962
 339  976.3195
 340  620.3098
 341  316.63
 342  754.1712
 343  862.1437
 344  1080.09
 345  889.1144
 346  851.7792
 347  810.4868
 348  879.4242
 349  993.9357
 350  1109.312
 351  805.6549
 352  1157.792
 353  1332.53
 354  895.4659
 355  1161.734
 356  1119.559
 357  1149.433
 358  1173.663
 359  1192.398
 360  1491.384
 361  1121.976
 362  1079.175
 363  1148.705
 364  1305.516
 365  1226.829
 366  1091.476
 367  1075.586
 368  1085.551
 369  1069.35
 370  711.3528
 371  869.8133
 372  901.8734
 373  831.8049
 374  1124.564
 375  1150.493
 376  480.4557
 377  518.4061
 378  719.11
 379  1131.264
 380  693.2444
 381  669.2802
 382  945.754
 383  757.322
 384  701.4673
 385  770.3672
 386  663.4627
 387  927.3828
 388  931.095
 389  810.4454
 390  938.7973
 391  1141.354
 392  1217.696
 393  1381.346
 394  1072.063
 395  843.9176
 396  789.8696
 397  810.5856
 398  932.9885
 399  872.9578
 400  1095.796
 401  828.7842
 402  908.0311
 403  890.3323
 404  756.428
 405  863.0198
 406  953.4029
 407  888.8627
 408  924.5724
 409  1285.897
 410  1507.063
 411  934.7247
 412  811.0977
 413  1045.358
 414  1142.875
 415  1195.005
 416  1190.581
 417  1196.88
 418  1244.238
 419  957.5157
 420  859.7602
 421  709.8971
 422  886.5496
 423  944.0499
 424  1011.44
 425  1039.779
 426  1348.152
 427  849.1895
 428  470.963
 429  854.9868
 430  1048.852
 431  1126.34
 432  889.0087
 433  1096.929
 434  1371.902
 435  1037.698
 436  451.5497
 437  617.7212
 438  802.1202
 439  845.3664
 440  797.0058
 441  975.403
 442  854.2959
 443  925.8978
 444  891.1087
 445  1073.244
 446  1061.72
 447  508.9684
 448  944.411
 449  782.8085
 450  458.8136
 451  1019.031
 452  1224.081
 453  1208.455
 454  1069.892
 455  636.4487
 456  515.0615
 457  473.9675
 458  980.3516
 459  1101.605
 460  1168.035
 461  826.2281
 462  930.8878
 463  932.6816
 464  890.4745
 465  893.2228
 466  840.3597
 467  789.4911
 468  767.6228
 469  865.9429
 470  602.2824
 471  708.6776
 472  957.0085
 473  952.9643
 474  808.9173
 475  633.6011
 476  833.2353
 477  724.5168
 478  1156.593
 479  1221.063
 480  1210.444
 481  873.6288
 482  558.1459
 483  710.6457
 484  896.3342
 485  1042.685
 486  896.2644
 487  828.6807
 488  1029.038
 489  1056.003
 490  926.7126
 491  809.1095
 492  734.3788
 493  1056.804
 494  1049.727
 495  1065.775
 496  1140.051
 497  932.2196
 498  1241.638
 499  1271.494
 500  1159.73
 501  911.7618
 502  748.8759
 503  812.3932
 504  1328.913
 505  1440.476
 506  1497.952
 507  1037.494
 508  953.9167
 509  1126.365
 510  1319.265
 511  994.3267
