# Input file       =  1204219305.114126_cleaned.dat
# Candidate        =  PSR_0332+5434
# Telescope        =  AR
# Epoch_topo       =  58181.723658728311
# Epoch_bary       =  N/A
# T_sample         =  0.002
# Data Folded      =  7340032
# Data Avg         =  0.196768071644848
# Data StdDev      =  4.83483348444174 
# Profile Bins     =  1024
# Profile Avg      =  1410.21213064712 
# Profile StdDev   =  409.336544967703 
# Reduced chi-sqr  =  0.966
# Prob(Noise)      <  0.78   (~0.0 sigma)
# P_topo (ms)      =  714.580394828505  +/- 0.00133
# P'_topo (s/s)    =  -0                +/- 7.03e-10
# P''_topo (s/s^2) =  0                 +/- 3.1e-13
# P_bary (ms)      =  N/A
# P'_bary (s/s)    =  N/A
# P''_bary (s/s^2) =  N/A
# P_orb (s)        =  N/A
# asin(i)/c (s)    =  N/A
# eccentricity     =  N/A
# w (rad)          =  N/A
# T_peri           =  N/A
######################################################
   0  1327.953
   1  1542.603
   2  1577.521
   3  1695.333
   4  1713.825
   5  1759.124
   6  1756.804
   7  1641.436
   8  1593.318
   9  1656.049
  10  1724.126
  11  1728.211
  12  1495.228
  13  1524.52
  14  1502.717
  15  1549.139
  16  1554.728
  17  1446.15
  18  1508.923
  19  1493.359
  20  1525.301
  21  1592.381
  22  1541.315
  23  1506.955
  24  1609.281
  25  1762.045
  26  1824.88
  27  1789.319
  28  1703.811
  29  1536.647
  30  1465.866
  31  1484.787
  32  1622.091
  33  1659.313
  34  1791.422
  35  1830.741
  36  1843.898
  37  1887.006
  38  1789.592
  39  1754.065
  40  1722.666
  41  1766.757
  42  1678.79
  43  1531.738
  44  1557.892
  45  1608.444
  46  1686.82
  47  1619.493
  48  1575.199
  49  1587.95
  50  1568.133
  51  1535.262
  52  1650.534
  53  1633.604
  54  1569.141
  55  1484.748
  56  1501.033
  57  1653.186
  58  1776.779
  59  1873.29
  60  1876.657
  61  1770.61
  62  1663.288
  63  1659.963
  64  1724.797
  65  1776.25
  66  1811.62
  67  1845.876
  68  1719.864
  69  1530.35
  70  1419.1
  71  1467.516
  72  1338.509
  73  1455.196
  74  1530.849
  75  1550.957
  76  1580.891
  77  1633.837
  78  1649.366
  79  1482.135
  80  1401.967
  81  1439.873
  82  1587.777
  83  1583.676
  84  1617.04
  85  1584.847
  86  1633.735
  87  1532.502
  88  1520.426
  89  1458.973
  90  1471.871
  91  1497.728
  92  1634.583
  93  1766.954
  94  1865.213
  95  1749.596
  96  1665.857
  97  1618.311
  98  1595.828
  99  1656.289
 100  1663.318
 101  1695.578
 102  1620.543
 103  1594.972
 104  1528.154
 105  1571.373
 106  1590.546
 107  1692.817
 108  1659.911
 109  1707.553
 110  1652.167
 111  1600.286
 112  1685.39
 113  1742.327
 114  1671.153
 115  1588.247
 116  1574.845
 117  1608.205
 118  1534.387
 119  1445.638
 120  1580.039
 121  1695.913
 122  1724.584
 123  1576.071
 124  1633.274
 125  1607.42
 126  1550.446
 127  1480.209
 128  1530.454
 129  1633.725
 130  1603.006
 131  1652.172
 132  1683.878
 133  1618.237
 134  1675.419
 135  1527.518
 136  1492.228
 137  1367.45
 138  1390.664
 139  1360.621
 140  1424.795
 141  1524.764
 142  1560.072
 143  1636.397
 144  1726.929
 145  1880.927
 146  1863.556
 147  1640.634
 148  1485.35
 149  1549.558
 150  1616.293
 151  1646.567
 152  1693.457
 153  1674.685
 154  1758.353
 155  1793.464
 156  1877.013
 157  1778.832
 158  1640.793
 159  1542.545
 160  1547.641
 161  1491.091
 162  1497.725
 163  1548.449
 164  1565.184
 165  1605.077
 166  1608.429
 167  1673.921
 168  1596.434
 169  1572.817
 170  1639.425
 171  1675.404
 172  1515.171
 173  1406.996
 174  1473.782
 175  1467.185
 176  1516.648
 177  1616.4
 178  1729.571
 179  1734.214
 180  1740.97
 181  1637.721
 182  1692.118
 183  1669.179
 184  1621.421
 185  1651.552
 186  1698.758
 187  1740.429
 188  1641.702
 189  1537.584
 190  1523.187
 191  1486.98
 192  1348.51
 193  1268.351
 194  1358.081
 195  1543.34
 196  1646.941
 197  1644.673
 198  1632.626
 199  1624.812
 200  1560.263
 201  1661.388
 202  1684.965
 203  1681.753
 204  1675.078
 205  1593.566
 206  1629.558
 207  1579.683
 208  1613.107
 209  1578.189
 210  1629.828
 211  1707.273
 212  1740.785
 213  1710.064
 214  1610.512
 215  1526.108
 216  1506.952
 217  1595.495
 218  1743.123
 219  1797.243
 220  1757.301
 221  1684.696
 222  1601.854
 223  1605.794
 224  1636.626
 225  1768.418
 226  1807.29
 227  1751.872
 228  1741.732
 229  1718.484
 230  1622.824
 231  1488.026
 232  1543.913
 233  1601.559
 234  1665.865
 235  1651.035
 236  1628.772
 237  1660.491
 238  1589.081
 239  1560.475
 240  1556.153
 241  1668.041
 242  1672.647
 243  1639.131
 244  1537.781
 245  1475.809
 246  1465.132
 247  1505.181
 248  1532.852
 249  1410.117
 250  1444.483
 251  1559.029
 252  1627.226
 253  1619.989
 254  1510.542
 255  1482.547
 256  1546.066
 257  1711.5
 258  1833.069
 259  1841.556
 260  1777.067
 261  1745.109
 262  1751.24
 263  1798.669
 264  1746.905
 265  1694.317
 266  1698.572
 267  1733.613
 268  1826.777
 269  1718.314
 270  1699.126
 271  1533.562
 272  1477.346
 273  1577.844
 274  1582.814
 275  1495.8
 276  1398.755
 277  1496.703
 278  1542.315
 279  1634.751
 280  1532.769
 281  1517.493
 282  1504.36
 283  1418.117
 284  1366.05
 285  1329.013
 286  1444.369
 287  1614.653
 288  1680.78
 289  1679.428
 290  1756.088
 291  1727.786
 292  1732.025
 293  1704.625
 294  1737.242
 295  1680.33
 296  1698.488
 297  1607.964
 298  1586.182
 299  1647.852
 300  1859.545
 301  1896.625
 302  1711.572
 303  1674.998
 304  1710.752
 305  1797.109
 306  1815.89
 307  1719.961
 308  1616.831
 309  1618.371
 310  1542.056
 311  1558.204
 312  1467.408
 313  1458.962
 314  1430.189
 315  1542.703
 316  1570.403
 317  1527.035
 318  1520.546
 319  1526.546
 320  1617.951
 321  1584.556
 322  1378.36
 323  1266.832
 324  1283.108
 325  1517.176
 326  1558.547
 327  1513.774
 328  1358.157
 329  1260.565
 330  1337.899
 331  1414.077
 332  1385.973
 333  1342.181
 334  1354.095
 335  1371.659
 336  1423.187
 337  1443.189
 338  1396.219
 339  1374.096
 340  1309.179
 341  1204.365
 342  1190.306
 343  1229.56
 344  1368.043
 345  1460.67
 346  1541.774
 347  1514.253
 348  1538.147
 349  1394.202
 350  1457.171
 351  1486.772
 352  1482.208
 353  1290.393
 354  1089.416
 355  1082.911
 356  1176.068
 357  1269.09
 358  1430.298
 359  1427.572
 360  1353.369
 361  1119.287
 362  1084.338
 363  1144.304
 364  1176.168
 365  1232.866
 366  1141.941
 367  1216.995
 368  1319.369
 369  1467.195
 370  1486.812
 371  1486.715
 372  1383.115
 373  1275.063
 374  1242.036
 375  1298.734
 376  1437.732
 377  1471.547
 378  1527.988
 379  1605.725
 380  1540.693
 381  1431.51
 382  1331.469
 383  1368.982
 384  1333.383
 385  1308.74
 386  1400.15
 387  1539.38
 388  1484.779
 389  1413.471
 390  1358.687
 391  1359.901
 392  1172.305
 393  1158.67
 394  1097.453
 395  1236.801
 396  1235.522
 397  1220.315
 398  1096.425
 399  1142.028
 400  1275.54
 401  1347.034
 402  1212.828
 403  1139.327
 404  1221.398
 405  1213.111
 406  1199.559
 407  1161.931
 408  1225.757
 409  1288.546
 410  1244.097
 411  1204.617
 412  1257.682
 413  1302.279
 414  1252.875
 415  1216.04
 416  1150.999
 417  1125.935
 418  1031.248
 419  1092.198
 420  1211.122
 421  1195.664
 422  1247.427
 423  1223.242
 424  1251.766
 425  1275.744
 426  1293.777
 427  1342.174
 428  1435.328
 429  1403.41
 430  1378.023
 431  1404.457
 432  1320.276
 433  1357.544
 434  1367.153
 435  1427.198
 436  1415.564
 437  1396.492
 438  1283.532
 439  1265.112
 440  1247.494
 441  1291.812
 442  1241.884
 443  1275.289
 444  1142.242
 445  1060.83
 446  990.4588
 447  1081.702
 448  1116.186
 449  1108.923
 450  1124.741
 451  1116.882
 452  1113.788
 453  1116.759
 454  1047.062
 455  1097.662
 456  985.4707
 457  973.4608
 458  938.6697
 459  1063.354
 460  1127.101
 461  1186.359
 462  1140.138
 463  1238.398
 464  1226.365
 465  1172.564
 466  1155.883
 467  1233.183
 468  1253.537
 469  1151.391
 470  1151.833
 471  1158.783
 472  1294.041
 473  1248.871
 474  1218.884
 475  1102.654
 476  1058.985
 477  1075.88
 478  1215.983
 479  1206.363
 480  1273.746
 481  1231.367
 482  1261.333
 483  1202.338
 484  1161.215
 485  1113.797
 486  1136.977
 487  1223.651
 488  1291.797
 489  1218.44
 490  1181.108
 491  1157.376
 492  1266.23
 493  1336.215
 494  1387.918
 495  1396.141
 496  1199.916
 497  1121.284
 498  1128.333
 499  1174.272
 500  1125.946
 501  1049.235
 502  1135.792
 503  1202.121
 504  1263.598
 505  1311.598
 506  1343.185
 507  1267.087
 508  1134.432
 509  1057.647
 510  1138.004
 511  1275.908
 512  1356.606
 513  1270.031
 514  1179.205
 515  1136.138
 516  1146.918
 517  1141.419
 518  1258.249
 519  1292.932
 520  1247.122
 521  1104.198
 522  1081.749
 523  1103.055
 524  987.7509
 525  975.6747
 526  981.075
 527  1100.959
 528  1177.562
 529  1151.851
 530  1097.706
 531  981.1653
 532  999.4404
 533  1157.93
 534  1182.014
 535  1244.761
 536  1179.005
 537  1184.109
 538  1109.072
 539  1008.646
 540  972.0405
 541  994.691
 542  1094.776
 543  1195.827
 544  1215.315
 545  1211.926
 546  1196.019
 547  1184.749
 548  1081.42
 549  1030.475
 550  1097.746
 551  1081.585
 552  1010.422
 553  978.3714
 554  945.0552
 555  986.9388
 556  950.637
 557  918.8129
 558  897.5604
 559  912.8518
 560  985.3372
 561  972.6285
 562  942.0637
 563  848.0773
 564  820.9224
 565  749.9611
 566  814.5263
 567  893.0204
 568  832.1121
 569  852.7992
 570  844.3341
 571  1046.794
 572  1132.494
 573  1214.517
 574  1200.48
 575  1218.298
 576  1233.107
 577  1146.958
 578  1191.655
 579  1051.009
 580  1063.396
 581  984.3671
 582  1011.692
 583  1011.729
 584  1071.041
 585  1181.161
 586  1245.697
 587  1238.629
 588  1181.171
 589  1046.331
 590  1060.958
 591  1199.473
 592  1284.694
 593  1210.39
 594  1195.642
 595  1211.522
 596  1199.731
 597  1176.283
 598  1225.945
 599  1314.31
 600  1322.305
 601  1225.914
 602  1253.079
 603  1396.727
 604  1571.414
 605  1746.196
 606  1854.729
 607  1855.959
 608  1798.461
 609  1723.63
 610  1850.352
 611  1943.139
 612  1967.311
 613  1795.922
 614  1480.822
 615  1248.531
 616  1147.021
 617  1100.683
 618  1148.645
 619  1234.861
 620  1329.788
 621  1312.302
 622  1216.184
 623  1083.252
 624  960.5511
 625  1099.104
 626  1273.471
 627  1362.296
 628  1368.752
 629  1274.323
 630  1172.511
 631  1086.721
 632  1135.933
 633  1232.873
 634  1255.122
 635  1218.879
 636  1202.218
 637  1186.937
 638  1229.244
 639  1235.703
 640  1196.743
 641  1157.598
 642  1310.893
 643  1367.768
 644  1360.056
 645  1221.189
 646  1127.676
 647  1075.826
 648  1134.702
 649  1188.978
 650  1196.193
 651  1169.724
 652  1265.078
 653  1308.743
 654  1263.553
 655  1185.48
 656  1102.714
 657  1089.987
 658  1194.168
 659  1216.211
 660  1282.129
 661  1230.42
 662  1218.818
 663  1193.576
 664  1200.418
 665  1208.927
 666  1277.707
 667  1218.089
 668  1241.976
 669  1205.567
 670  1225.857
 671  1160.686
 672  1231.992
 673  1194.181
 674  1212.353
 675  1145.035
 676  1303.465
 677  1370.537
 678  1330.099
 679  1383.565
 680  1465.915
 681  1453.601
 682  1268.934
 683  1219.199
 684  1156.47
 685  1282.834
 686  1330.358
 687  1348.516
 688  1315.612
 689  1355.264
 690  1414.172
 691  1375.005
 692  1227.817
 693  1193.622
 694  1222.795
 695  1189.808
 696  1080.539
 697  1103.102
 698  1057.318
 699  1106.109
 700  1261.437
 701  1251.087
 702  1188.367
 703  1002.428
 704  1008.366
 705  1019.975
 706  998.6047
 707  1021.073
 708  1072.034
 709  1166.447
 710  1197.53
 711  1284.108
 712  1441.094
 713  1537.474
 714  1553.763
 715  1462.506
 716  1514.515
 717  1505.166
 718  1571.482
 719  1447.458
 720  1329.699
 721  1316.151
 722  1406.41
 723  1361.523
 724  1266.646
 725  1257.26
 726  1380.118
 727  1459.105
 728  1557.931
 729  1584.572
 730  1549.531
 731  1378.577
 732  1288.65
 733  1357.22
 734  1459.599
 735  1388.052
 736  1309.727
 737  1292.674
 738  1328.836
 739  1263.232
 740  1242.085
 741  1284.748
 742  1279.019
 743  1193.981
 744  1145.619
 745  1053.595
 746  1171.297
 747  1293.609
 748  1440.725
 749  1339.468
 750  1177.927
 751  1120.574
 752  1162.758
 753  1180.375
 754  1229.999
 755  1264.311
 756  1302.285
 757  1268.592
 758  1257.626
 759  1330.478
 760  1324.726
 761  1353.132
 762  1281.458
 763  1326.42
 764  1416.196
 765  1546.694
 766  1617.884
 767  1581.477
 768  1410.704
 769  1311.565
 770  1277.564
 771  1347.808
 772  1339.571
 773  1315.356
 774  1260.72
 775  1374.259
 776  1370.87
 777  1363.742
 778  1310.782
 779  1304.697
 780  1362.069
 781  1398.741
 782  1458.626
 783  1396.994
 784  1294.107
 785  1325.751
 786  1409.946
 787  1399.031
 788  1461.204
 789  1448.176
 790  1452.023
 791  1481.457
 792  1500.433
 793  1535.212
 794  1447.833
 795  1441.876
 796  1473.294
 797  1516.374
 798  1465.217
 799  1345.652
 800  1210.851
 801  1207.021
 802  1115.576
 803  1169.391
 804  1041.944
 805  1017.625
 806  1105.589
 807  1235.913
 808  1239.882
 809  1151.549
 810  1269.678
 811  1270.152
 812  1277.62
 813  1214.647
 814  1221.581
 815  1251.53
 816  1102.907
 817  999.1289
 818  1025.157
 819  1184.082
 820  1207.883
 821  1259.242
 822  1311.503
 823  1231.882
 824  1245.419
 825  1298.104
 826  1436.905
 827  1394.522
 828  1348.868
 829  1321.983
 830  1255.487
 831  1137.671
 832  1073.009
 833  1051.78
 834  1052.817
 835  1031.266
 836  1009.683
 837  1143.621
 838  1219.278
 839  1242.229
 840  1122.73
 841  1142.763
 842  1254.221
 843  1356.629
 844  1325.746
 845  1214.282
 846  1328.29
 847  1409.527
 848  1432.798
 849  1403.444
 850  1377.229
 851  1335.188
 852  1384.154
 853  1462.837
 854  1561.508
 855  1551.067
 856  1555.422
 857  1472.053
 858  1547.069
 859  1497.485
 860  1516.459
 861  1442.724
 862  1469.175
 863  1464.194
 864  1465.726
 865  1473.735
 866  1599.811
 867  1616.363
 868  1658.285
 869  1581.324
 870  1599.587
 871  1653.027
 872  1597.121
 873  1516.566
 874  1405.362
 875  1423.004
 876  1491.041
 877  1625.328
 878  1604.601
 879  1540.741
 880  1539.472
 881  1509.314
 882  1588.656
 883  1539.492
 884  1570.127
 885  1623.179
 886  1783.91
 887  1835.783
 888  1794.124
 889  1686.709
 890  1668.211
 891  1580.472
 892  1608.843
 893  1564.462
 894  1569.075
 895  1615.373
 896  1647.434
 897  1591.298
 898  1520.456
 899  1461.476
 900  1569.205
 901  1624.543
 902  1523.496
 903  1382.009
 904  1452.686
 905  1534.69
 906  1555.266
 907  1586.164
 908  1641.38
 909  1587.725
 910  1455.013
 911  1396.892
 912  1537.096
 913  1746.113
 914  1728.546
 915  1604.681
 916  1594.273
 917  1544.866
 918  1567.722
 919  1550.469
 920  1595.249
 921  1539.765
 922  1406.589
 923  1370.987
 924  1322.536
 925  1501.639
 926  1640.31
 927  1704.447
 928  1573.684
 929  1553.413
 930  1516.273
 931  1522.693
 932  1377.463
 933  1419.885
 934  1412.567
 935  1361.798
 936  1435.024
 937  1552.079
 938  1650.285
 939  1607.158
 940  1604.741
 941  1573.257
 942  1507.5
 943  1485.27
 944  1369.628
 945  1404.233
 946  1418.934
 947  1547.681
 948  1579.642
 949  1562.074
 950  1465.561
 951  1526.488
 952  1589.824
 953  1669.002
 954  1658.779
 955  1760.667
 956  1707.515
 957  1666.44
 958  1638.247
 959  1594.021
 960  1554.371
 961  1506.637
 962  1603.877
 963  1565.885
 964  1513.09
 965  1453.314
 966  1498.433
 967  1636.566
 968  1812.381
 969  1693.516
 970  1620.638
 971  1409.409
 972  1432.946
 973  1424.754
 974  1351.571
 975  1328.903
 976  1294.268
 977  1402.214
 978  1397.307
 979  1490.226
 980  1557.125
 981  1659.262
 982  1608.195
 983  1391.143
 984  1295.586
 985  1356.048
 986  1404.105
 987  1287.562
 988  1284.042
 989  1279.473
 990  1402.585
 991  1529.765
 992  1636.42
 993  1615.828
 994  1550.316
 995  1489.557
 996  1472.663
 997  1425.222
 998  1428.54
 999  1488.671
1000  1551.748
1001  1555.923
1002  1395.564
1003  1319.886
1004  1311.298
1005  1406.625
1006  1457.522
1007  1436.832
1008  1433.507
1009  1427.693
1010  1341.533
1011  1319.69
1012  1363.047
1013  1539.61
1014  1572.549
1015  1570.911
1016  1396.243
1017  1341.803
1018  1405.401
1019  1506.488
1020  1567.121
1021  1582.14
1022  1436.441
1023  1367.317
