# Input file       =  1204118180.101071_cleaned.dat
# Candidate        =  PSR_0332+5434
# Telescope        =  AR
# Epoch_topo       =  58180.553230336467
# Epoch_bary       =  N/A
# T_sample         =  0.002
# Data Folded      =  7340032
# Data Avg         =  0.726752869344117
# Data StdDev      =  8.78016524199429 
# Profile Bins     =  512
# Profile Avg      =  10417.793510028  
# Profile StdDev   =  1051.27584431372 
# Reduced chi-sqr  =  1.543
# Prob(Noise)      <  3.47e-14   (~7.5 sigma)
# P_topo (ms)      =  714.580223731953  +/- 0.000943
# P'_topo (s/s)    =  -0                +/- 4.97e-10
# P''_topo (s/s^2) =  0                 +/- 2.2e-13
# P_bary (ms)      =  N/A
# P'_bary (s/s)    =  N/A
# P''_bary (s/s^2) =  N/A
# P_orb (s)        =  N/A
# asin(i)/c (s)    =  N/A
# eccentricity     =  N/A
# w (rad)          =  N/A
# T_peri           =  N/A
######################################################
   0  10449.25
   1  10831.13
   2  10998.18
   3  10915.93
   4  11384.17
   5  11580.4
   6  11234.54
   7  11123.1
   8  11270.78
   9  10676.07
  10  10684.39
  11  10609.45
  12  10718.37
  13  10828.76
  14  10860.74
  15  10619.1
  16  10614.02
  17  10566.28
  18  10770.61
  19  10674.17
  20  10341.31
  21  10640.25
  22  10651.07
  23  10474.18
  24  10460.55
  25  10132.8
  26  10336.1
  27  9911.254
  28  9822.346
  29  10290.31
  30  10264.82
  31  10780.18
  32  10966.5
  33  10474.81
  34  10560.64
  35  10858.03
  36  11154.13
  37  11597.79
  38  11505.05
  39  11629.52
  40  11549.22
  41  11378.98
  42  11480.94
  43  11142.54
  44  11229.68
  45  11665.87
  46  11994.07
  47  12115.08
  48  11626.18
  49  11219.2
  50  11205.44
  51  11113.92
  52  11290.38
  53  11546.08
  54  11340.67
  55  11484.22
  56  11356.81
  57  11098.44
  58  11510.98
  59  11167.91
  60  11018.1
  61  10586.8
  62  10649.58
  63  10863.21
  64  10734.69
  65  10712.79
  66  10881.01
  67  11158.47
  68  11289.11
  69  11082.09
  70  10892.85
  71  10945.7
  72  11326.15
  73  11790.02
  74  11760.98
  75  11569.54
  76  11378.08
  77  11266.92
  78  11772.52
  79  12283.8
  80  12608.18
  81  12708.06
  82  12402.48
  83  11934.09
  84  12266.6
  85  12706.78
  86  12853.63
  87  12492.49
  88  12130.49
  89  12505.31
  90  12764.79
  91  12794.17
  92  12443.7
  93  12120.18
  94  11751.61
  95  11848.69
  96  11359.69
  97  11428.16
  98  11407.56
  99  11704.15
 100  11961.56
 101  11549.15
 102  11344.13
 103  11555.74
 104  11544.78
 105  11509.99
 106  11493.17
 107  11827.26
 108  11703.05
 109  11310.93
 110  10947.84
 111  11115.4
 112  11344.17
 113  11316.06
 114  11476.73
 115  11358.7
 116  11324.2
 117  11337.44
 118  11915.19
 119  11375.97
 120  10829.11
 121  11096.19
 122  11049.64
 123  10976.62
 124  11158.34
 125  11744.95
 126  11673.58
 127  11453.2
 128  11242.06
 129  11316.43
 130  11663.77
 131  11715.41
 132  11863.73
 133  12071.89
 134  12131.6
 135  11607.37
 136  11948.69
 137  12129.6
 138  11881.7
 139  11782.24
 140  11659.9
 141  11383.37
 142  11428.51
 143  11738.48
 144  11592.5
 145  11977.85
 146  11851.99
 147  12010.36
 148  12104.68
 149  12029.77
 150  11938.36
 151  12106.11
 152  12258.18
 153  12400.38
 154  12277.28
 155  12428.74
 156  12324.93
 157  12288.68
 158  11989
 159  11535.15
 160  11058.54
 161  10895.92
 162  11120.07
 163  11146.8
 164  11325.49
 165  11608.17
 166  11493.92
 167  11343.75
 168  11298.97
 169  11056.71
 170  11378.72
 171  11527.18
 172  11350.77
 173  11361.18
 174  11109.48
 175  11114.84
 176  10806.02
 177  11058.88
 178  11070.09
 179  10978.57
 180  11110.33
 181  10764.67
 182  10515.46
 183  10396.24
 184  10586.04
 185  10456.11
 186  10314.98
 187  10461.32
 188  10708.96
 189  10509.23
 190  10261.68
 191  10096.67
 192  10372.12
 193  10152.64
 194  9688.659
 195  9804.659
 196  9968.494
 197  9394.707
 198  9193.21
 199  9272.986
 200  9460.038
 201  9035.389
 202  8874.522
 203  9290.354
 204  9178.714
 205  9305.674
 206  9301.936
 207  9419.045
 208  9116.692
 209  9357.379
 210  9804.327
 211  10432.54
 212  11227.74
 213  11434.25
 214  11315.95
 215  10789.94
 216  10273.02
 217  9991.925
 218  10217.03
 219  9861.659
 220  9730.937
 221  9682.998
 222  9567.956
 223  9289.801
 224  9102.266
 225  9439.448
 226  9259.633
 227  9395.04
 228  10029.69
 229  9883.04
 230  9650.039
 231  9623.333
 232  9503.147
 233  9430.833
 234  9528.989
 235  9474.431
 236  9278.938
 237  9089.197
 238  9150.629
 239  9101.597
 240  9027.745
 241  9011.438
 242  9003.958
 243  8995.921
 244  9012.822
 245  8664.259
 246  8919.749
 247  9188.922
 248  8828.286
 249  9132.645
 250  9105.29
 251  9009.122
 252  9070.597
 253  9418.641
 254  9487.271
 255  9795.71
 256  9227.763
 257  9003.956
 258  9242.663
 259  9764.331
 260  10100.66
 261  10045.17
 262  9953.862
 263  9677.049
 264  9720.496
 265  9509.879
 266  9560.392
 267  9655.991
 268  9637.625
 269  9737.968
 270  9567.668
 271  9496.424
 272  9631.233
 273  9615.494
 274  9519.7
 275  9763.145
 276  9980.236
 277  9973.673
 278  10088.15
 279  10013.78
 280  9738.297
 281  9627.221
 282  9595.063
 283  9374.196
 284  9602.055
 285  10049.32
 286  9799.502
 287  9829.625
 288  9614.787
 289  9704.064
 290  9668.754
 291  10060.46
 292  10276.22
 293  10140.89
 294  10129.96
 295  10404.13
 296  10474.04
 297  10306.63
 298  10077.62
 299  9807.321
 300  9685.795
 301  9545.65
 302  9931.63
 303  10047.99
 304  10049.76
 305  9982.245
 306  10183.7
 307  10171.08
 308  10015.38
 309  9924.099
 310  9759.118
 311  9913.589
 312  9259.54
 313  9083.194
 314  8998.537
 315  9150.335
 316  9517.173
 317  9819.681
 318  9712.27
 319  9114.796
 320  9232.332
 321  9333.766
 322  9171.103
 323  8720.828
 324  8847.656
 325  8942.298
 326  9016.779
 327  9179.168
 328  9042.862
 329  8828.172
 330  8797.312
 331  8932.281
 332  8387.918
 333  8218.479
 334  8515.479
 335  8920.562
 336  9123.582
 337  9345.119
 338  9005.908
 339  8995.62
 340  8836.808
 341  8918.148
 342  9160.164
 343  9159.279
 344  9008.975
 345  8785.718
 346  8964.271
 347  9241.72
 348  9049.612
 349  8932.17
 350  9094.38
 351  9395.317
 352  9109.876
 353  9514.776
 354  9438.997
 355  9615.146
 356  10068.19
 357  9695.384
 358  9773.575
 359  9917.973
 360  10298.25
 361  10540.05
 362  9703.005
 363  9784.439
 364  10028.15
 365  10093.99
 366  10163.53
 367  10598.76
 368  10127.97
 369  9819.714
 370  9810.78
 371  9443.659
 372  9632.705
 373  10162.6
 374  10327.13
 375  10327.99
 376  10484.56
 377  10564
 378  10817.55
 379  10903
 380  10389.32
 381  10268.22
 382  10247.83
 383  10470.85
 384  10519.6
 385  10934.8
 386  10723.95
 387  10228.62
 388  10494.29
 389  10479.37
 390  10356.61
 391  10119.14
 392  10279.95
 393  10363.39
 394  10393.5
 395  10490.32
 396  10649
 397  10409.46
 398  9911.152
 399  9851.713
 400  10337.01
 401  10265.59
 402  10188.03
 403  10089.22
 404  10311.21
 405  10063.73
 406  10158.4
 407  9865.623
 408  10045
 409  10226.14
 410  9936.203
 411  9313.098
 412  9077.466
 413  9400.787
 414  9278.88
 415  9041.803
 416  9428.959
 417  9475.538
 418  8933.873
 419  9215.278
 420  9064.233
 421  9106.902
 422  9109.311
 423  9132.168
 424  9516.698
 425  9377.811
 426  9644.47
 427  9787.847
 428  9736.079
 429  9699.26
 430  9619.053
 431  9587.773
 432  9403.605
 433  9611.092
 434  10018.06
 435  10086.83
 436  10144.94
 437  10478.12
 438  9920.381
 439  10058.59
 440  10246.33
 441  10096.3
 442  9640.152
 443  9942.502
 444  10332.6
 445  10404.31
 446  10528.93
 447  10453.62
 448  10468.91
 449  10055.98
 450  9955.188
 451  10098.45
 452  10249.57
 453  10582
 454  10633.52
 455  10406.06
 456  10253.96
 457  10161.25
 458  10047.85
 459  10696.2
 460  10911.05
 461  10718.61
 462  10450.05
 463  10280
 464  10646.8
 465  10644.84
 466  10657.68
 467  10892.13
 468  10943.57
 469  10782.78
 470  10807.48
 471  10942.16
 472  11016.86
 473  11023.45
 474  11210.52
 475  11087.03
 476  11829.26
 477  11718.14
 478  11320.14
 479  10923.02
 480  11116.5
 481  10921.34
 482  10741.43
 483  10952.35
 484  10602.26
 485  10590.66
 486  10600.91
 487  10590.45
 488  10276.67
 489  10536.93
 490  10626.17
 491  9881.977
 492  10025.44
 493  10451.32
 494  10595.31
 495  10557.88
 496  10618.46
 497  10652.11
 498  10457.22
 499  10399.32
 500  10442.87
 501  10244.47
 502  10377.7
 503  10138.23
 504  10192.94
 505  9804.537
 506  9983.841
 507  10473.44
 508  10287.13
 509  10427.13
 510  10246
 511  10550.95
