# Input file       =  1204204392.112733_cleaned.dat
# Candidate        =  PSR_0332+5434
# Telescope        =  AR
# Epoch_topo       =  58181.551054545518
# Epoch_bary       =  N/A
# T_sample         =  0.002
# Data Folded      =  7340032
# Data Avg         =  0.0488648888309073
# Data StdDev      =  1.0002543633993  
# Profile Bins     =  512
# Profile Avg      =  700.541283562386 
# Profile StdDev   =  119.763492078908 
# Reduced chi-sqr  =  1.366
# Prob(Noise)      <  6.45e-08   (~5.3 sigma)
# P_topo (ms)      =  714.580085700851  +/- 0.000289
# P'_topo (s/s)    =  -0                +/- 1.52e-10
# P''_topo (s/s^2) =  0                 +/- 6.72e-14
# P_bary (ms)      =  N/A
# P'_bary (s/s)    =  N/A
# P''_bary (s/s^2) =  N/A
# P_orb (s)        =  N/A
# asin(i)/c (s)    =  N/A
# eccentricity     =  N/A
# w (rad)          =  N/A
# T_peri           =  N/A
######################################################
   0  700.3325
   1  754.1443
   2  715.3272
   3  729.026
   4  667.6176
   5  709.5954
   6  744.4812
   7  752.2302
   8  703.3877
   9  736.1231
  10  707.4521
  11  677.2184
  12  674.3158
  13  683.1606
  14  656.8345
  15  693.0314
  16  739.8788
  17  829.9765
  18  730.8542
  19  718.4064
  20  697.2213
  21  670.5252
  22  762.4956
  23  794.4168
  24  743.6745
  25  737.2083
  26  688.4636
  27  607.127
  28  639.7346
  29  642.0481
  30  689.8282
  31  690.1733
  32  676.2875
  33  677.4839
  34  632.2817
  35  623.191
  36  671.6491
  37  748.0149
  38  745.0432
  39  671.0062
  40  668.7778
  41  572.8087
  42  588.6255
  43  644.0812
  44  647.8177
  45  598.9187
  46  571.4276
  47  595.2231
  48  666.3854
  49  697.4133
  50  701.9976
  51  628.6126
  52  614.9688
  53  638.1266
  54  662.9451
  55  681.1775
  56  696.7293
  57  698.8754
  58  665.1716
  59  598.8948
  60  548.3084
  61  558.4178
  62  570.7738
  63  578.7117
  64  602.6137
  65  523.7672
  66  565.9531
  67  620.8088
  68  673.8708
  69  624.364
  70  587.3889
  71  645.861
  72  678.5814
  73  569.4462
  74  596.0009
  75  665.7559
  76  666.3596
  77  741.8071
  78  811.6111
  79  704.9391
  80  671.7947
  81  653.754
  82  679.9838
  83  668.2136
  84  707.4779
  85  738.2517
  86  745.6666
  87  795.4772
  88  743.4244
  89  721.567
  90  749.2551
  91  711.2191
  92  697.8352
  93  762.7817
  94  700.6733
  95  616.7217
  96  759.8188
  97  775.2979
  98  801.4207
  99  740.6776
 100  751.8299
 101  698.4045
 102  691.2234
 103  711.3192
 104  712.9566
 105  617.8937
 106  674.0361
 107  546.9866
 108  611.7811
 109  685.2687
 110  664.9414
 111  603.7094
 112  608.5891
 113  668.4149
 114  719.4069
 115  653.4039
 116  644.2318
 117  638.2978
 118  581.0739
 119  606.4586
 120  594.5403
 121  630.8504
 122  598.6651
 123  571.4694
 124  572.7098
 125  535.4405
 126  500.9826
 127  461.5459
 128  541.8381
 129  592.1501
 130  519.4348
 131  513.1973
 132  520.32
 133  474.5771
 134  437.3926
 135  531.9051
 136  492.0619
 137  461.3696
 138  511.6842
 139  478.3247
 140  512.9647
 141  573.1113
 142  509.7775
 143  474.9868
 144  523.5656
 145  585.9703
 146  687.6661
 147  746.5601
 148  736.0468
 149  713.8857
 150  706.4471
 151  729.4654
 152  684.7798
 153  691.3602
 154  747.9579
 155  760.1136
 156  742.487
 157  778.1604
 158  688.4847
 159  688.403
 160  734.6909
 161  758.6694
 162  780.1343
 163  721.2815
 164  742.0839
 165  783.9321
 166  758.2742
 167  730.6647
 168  719.7531
 169  698.9717
 170  715.0961
 171  757.6656
 172  790.5118
 173  759.8862
 174  726.3545
 175  689.8286
 176  668.6871
 177  791.0109
 178  805.9431
 179  766.1301
 180  724.3528
 181  731.7555
 182  701.3975
 183  632.5068
 184  592.5007
 185  621.758
 186  608.8264
 187  740.5817
 188  704.0674
 189  608.8752
 190  562.1646
 191  639.343
 192  711.4166
 193  651.9026
 194  759.1306
 195  839.703
 196  887.5023
 197  951.4695
 198  933.4554
 199  755.2115
 200  613.9822
 201  502.4752
 202  522.9613
 203  564.0477
 204  562.5397
 205  593.255
 206  590.9709
 207  544.6111
 208  550.4091
 209  634.36
 210  632.211
 211  642.4215
 212  677.408
 213  650.4537
 214  724.0987
 215  656.273
 216  679.6603
 217  720.9355
 218  706.4643
 219  628.108
 220  618.4698
 221  649.4402
 222  649.6344
 223  704.4997
 224  664.7612
 225  655.9597
 226  689.9284
 227  747.1933
 228  718.3957
 229  708.6787
 230  647.7776
 231  680.1747
 232  704.1622
 233  668.7776
 234  677.0695
 235  692.3509
 236  708.3887
 237  681.99
 238  715.8787
 239  772.5466
 240  782.7783
 241  767.1187
 242  810.085
 243  822.3228
 244  837.0826
 245  764.7303
 246  710.2724
 247  713.5317
 248  761.4121
 249  753.0804
 250  754.166
 251  822.494
 252  764.3868
 253  755.785
 254  751.1815
 255  723.7674
 256  687.5985
 257  619.9822
 258  590.329
 259  603.5724
 260  706.6057
 261  659.3878
 262  595.5793
 263  583.3842
 264  627.2787
 265  565.5002
 266  509.4498
 267  506.3541
 268  558.8727
 269  528.2687
 270  575.8442
 271  603.2252
 272  591.0542
 273  544.6545
 274  506.6468
 275  489.6438
 276  484.0318
 277  517.6194
 278  505.4893
 279  402.3974
 280  442.7188
 281  437.0161
 282  491.1179
 283  539.9431
 284  551.7654
 285  580.4689
 286  523.2247
 287  507.2857
 288  556.0834
 289  526.4344
 290  572.0852
 291  587.1224
 292  524.301
 293  523.9782
 294  490.3019
 295  678.2064
 296  649.7288
 297  680.4591
 298  716.0589
 299  687.4666
 300  620.93
 301  678.8858
 302  678.1703
 303  687.9601
 304  717.3393
 305  787.5641
 306  794.7942
 307  809.4305
 308  786.996
 309  809.6264
 310  789.2713
 311  752.4676
 312  803.6713
 313  744.795
 314  740.4545
 315  786.8795
 316  756.9841
 317  780.782
 318  794.7612
 319  863.0594
 320  858.2388
 321  839.6988
 322  876.0937
 323  749.7715
 324  809.597
 325  812.5301
 326  809.6441
 327  806.7889
 328  764.6118
 329  835.476
 330  759.9229
 331  762.7535
 332  684.5996
 333  588.3323
 334  643.1517
 335  756.6829
 336  729.0547
 337  655.3832
 338  687.0187
 339  651.5696
 340  646.329
 341  675.541
 342  657.6148
 343  673.1202
 344  629.7119
 345  601.0381
 346  631.304
 347  593.0369
 348  590.2117
 349  613.3582
 350  623.2874
 351  588.2729
 352  618.7071
 353  715.9977
 354  726.0917
 355  651.1695
 356  642.6633
 357  600.7735
 358  630.874
 359  616.1772
 360  637.4208
 361  642.4575
 362  669.0289
 363  699.6974
 364  764.7311
 365  778.2661
 366  741.8134
 367  661.3874
 368  686.2844
 369  792.6529
 370  789.1213
 371  809.5074
 372  839.1382
 373  839.8705
 374  796.1605
 375  803.1803
 376  911.5092
 377  816.6113
 378  844.0626
 379  890.7733
 380  852.3823
 381  843.1107
 382  906.2197
 383  940.5758
 384  916.7751
 385  783.3116
 386  842.458
 387  928.1902
 388  933.5145
 389  922.7025
 390  843.2751
 391  885.4354
 392  944.8876
 393  888.8372
 394  876.0456
 395  842.2785
 396  787.554
 397  797.3917
 398  831.9141
 399  861.4722
 400  811.048
 401  847.3412
 402  825.9838
 403  795.9064
 404  856.166
 405  848.3143
 406  789.0466
 407  851.8552
 408  795.3566
 409  763.9911
 410  813.8779
 411  748.2115
 412  756.175
 413  846.9063
 414  825.8289
 415  772.3555
 416  807.0407
 417  885.9952
 418  875.928
 419  822.7277
 420  732.0312
 421  705.117
 422  721.5189
 423  751.9762
 424  762.3732
 425  828.7516
 426  845.4056
 427  740.8804
 428  704.6417
 429  648.5106
 430  660.5453
 431  734.8867
 432  746.152
 433  684.4277
 434  642.5049
 435  696.3275
 436  752.263
 437  733.7659
 438  723.1512
 439  712.6666
 440  752.3323
 441  738.605
 442  767.8458
 443  749.0898
 444  764.5406
 445  825.7095
 446  872.129
 447  858.9971
 448  802.3888
 449  820.8881
 450  790.4437
 451  816.9532
 452  828.6989
 453  868.8591
 454  854.7656
 455  871.2283
 456  882.657
 457  823.3204
 458  819.168
 459  796.7975
 460  800.9988
 461  782.6221
 462  783.0374
 463  768.2147
 464  745.7468
 465  719.6846
 466  735.3127
 467  789.7479
 468  732.5906
 469  715.3312
 470  819.5723
 471  803.2694
 472  865.2687
 473  804.627
 474  719.1402
 475  750.3481
 476  710.6295
 477  786.5375
 478  808.6498
 479  767.2578
 480  792.492
 481  811.8016
 482  824.0851
 483  733.261
 484  726.6617
 485  779.7626
 486  753.5385
 487  741.2812
 488  735.468
 489  746.4181
 490  766.4544
 491  785.9896
 492  763.2618
 493  718.2557
 494  663.3735
 495  547.0428
 496  564.9144
 497  671.3967
 498  640.9474
 499  638.6012
 500  655.9274
 501  634.7651
 502  693.289
 503  681.8715
 504  763.343
 505  714.5122
 506  707.8141
 507  717.9326
 508  702.2231
 509  785.2524
 510  718.3625
 511  688.1235
