# Input file       =  1204635104.108858_cleaned.dat
# Candidate        =  PSR_0332+5434
# Telescope        =  AR
# Epoch_topo       =  58186.536147093262
# Epoch_bary       =  N/A
# T_sample         =  0.002
# Data Folded      =  7340032
# Data Avg         =  0.121109626776681
# Data StdDev      =  7.37065370263504 
# Profile Bins     =  1024
# Profile Avg      =  865.951992827376 
# Profile StdDev   =  624.029334308792 
# Reduced chi-sqr  =  0.599
# Prob(Noise)      <  1   (~0.0 sigma)
# P_topo (ms)      =  714.579136308872  +/- 0.00048
# P'_topo (s/s)    =  -0                +/- 2.53e-10
# P''_topo (s/s^2) =  0                 +/- 1.12e-13
# P_bary (ms)      =  N/A
# P'_bary (s/s)    =  N/A
# P''_bary (s/s^2) =  N/A
# P_orb (s)        =  N/A
# asin(i)/c (s)    =  N/A
# eccentricity     =  N/A
# w (rad)          =  N/A
# T_peri           =  N/A
######################################################
   0  1016.252
   1  927.6126
   2  758.4715
   3  743.5195
   4  832.9987
   5  971.824
   6  1220.28
   7  1241.025
   8  1291.972
   9  1250.546
  10  1136.395
  11  1131.568
  12  1030.121
  13  1065.032
  14  1258.449
  15  1378.003
  16  1477.479
  17  1405.566
  18  1186.238
  19  1190.93
  20  1075.44
  21  1207.121
  22  1369.796
  23  1372.799
  24  1409.276
  25  1253.504
  26  1271.083
  27  1555.378
  28  1600.364
  29  1487.504
  30  1117.785
  31  1016.414
  32  961.8418
  33  932.9602
  34  819.1763
  35  1085.451
  36  893.2172
  37  858.8286
  38  543.7981
  39  527.2847
  40  641.9587
  41  806.8215
  42  885.5466
  43  954.5907
  44  840.3627
  45  837.8049
  46  693.4995
  47  770.7869
  48  629.153
  49  642.8333
  50  834.8015
  51  870.1968
  52  879.2402
  53  749.811
  54  668.4284
  55  541.6563
  56  462.5782
  57  599.2438
  58  1058.194
  59  1241.561
  60  1249.439
  61  1091.412
  62  1017.336
  63  945.5611
  64  798.1941
  65  621.6865
  66  647.263
  67  608.0958
  68  761.5586
  69  832.0231
  70  902.0288
  71  821.4684
  72  688.6359
  73  738.7164
  74  793.3434
  75  823.0768
  76  953.9305
  77  909.2836
  78  738.6882
  79  678.5203
  80  701.2969
  81  814.4255
  82  971.6853
  83  890.9088
  84  866.5516
  85  913.9951
  86  1126.069
  87  999.6107
  88  843.1433
  89  910.902
  90  1104.478
  91  1138.604
  92  1300.217
  93  1173.85
  94  1139.938
  95  880.1433
  96  711.7339
  97  758.5917
  98  698.4847
  99  654.8961
 100  727.5234
 101  688.8618
 102  633.6298
 103  614.7983
 104  774.7375
 105  1066.441
 106  933.4344
 107  1041.208
 108  932.9413
 109  801.564
 110  909.8276
 111  740.2928
 112  766.9936
 113  927.7639
 114  1005.558
 115  1046.045
 116  901.282
 117  758.8369
 118  816.6161
 119  887.5015
 120  1143.504
 121  1366.072
 122  1236.08
 123  1078.161
 124  688.254
 125  601.6691
 126  621.9423
 127  815.4601
 128  1162.7
 129  1173.991
 130  865.1171
 131  943.0134
 132  1055.451
 133  1183.008
 134  1222.666
 135  1294.439
 136  1247.269
 137  966.8391
 138  782.4177
 139  703.8024
 140  603.9099
 141  684.3309
 142  841.9288
 143  822.3454
 144  781.7375
 145  699.8593
 146  742.5159
 147  817.9376
 148  793.6487
 149  1053.66
 150  1146.06
 151  1107.482
 152  875.4411
 153  446.8194
 154  352.4626
 155  375.6172
 156  680.4119
 157  965.2101
 158  1081.641
 159  1234.641
 160  1213.73
 161  1181.562
 162  1350.085
 163  1365.581
 164  1116.193
 165  870.9722
 166  738.4183
 167  726.6989
 168  702.9337
 169  685.4677
 170  836.6477
 171  841.3569
 172  900.7067
 173  873.5485
 174  984.1448
 175  965.9252
 176  861.43
 177  860.3361
 178  875.5554
 179  933.2827
 180  955.6459
 181  918.6815
 182  712.2577
 183  788.2601
 184  884.1242
 185  805.926
 186  847.1219
 187  863.929
 188  914.4777
 189  853.923
 190  901.2511
 191  906.7902
 192  800.8643
 193  952.4182
 194  1036.86
 195  972.4914
 196  921.3424
 197  767.0694
 198  842.4151
 199  854.2067
 200  868.5855
 201  793.1752
 202  646.7894
 203  344.9999
 204  326.2189
 205  424.4288
 206  703.3687
 207  794.6743
 208  857.4033
 209  845.0455
 210  749.1985
 211  660.0188
 212  750.4171
 213  826.7485
 214  711.8913
 215  774.5259
 216  548.4053
 217  664.5424
 218  483.3985
 219  638.9644
 220  841.7232
 221  949.8126
 222  1068.059
 223  995.3373
 224  822.1855
 225  739.73
 226  694.2871
 227  876.8107
 228  846.5478
 229  884.3043
 230  926.8633
 231  990.0137
 232  1020.68
 233  1011.381
 234  797.6202
 235  712.147
 236  721.1235
 237  858.8841
 238  761.0282
 239  601.2534
 240  566.5989
 241  616.3444
 242  580.0544
 243  696.6226
 244  773.4664
 245  998.8165
 246  969.7424
 247  879.3605
 248  746.2247
 249  803.022
 250  823.8553
 251  982.8438
 252  949.4878
 253  961.6834
 254  920.7341
 255  851.7526
 256  733.5875
 257  767.8986
 258  699.8961
 259  614.6814
 260  478.3718
 261  464.4428
 262  628.5873
 263  633.4902
 264  830.3317
 265  852.5997
 266  996.2496
 267  798.0479
 268  631.8148
 269  622.5133
 270  658.0309
 271  632.1119
 272  696.8516
 273  555.2488
 274  673.7099
 275  413.2045
 276  566.4827
 277  692.6415
 278  843.7181
 279  793.2752
 280  802.9222
 281  696.0783
 282  632.2814
 283  567.0246
 284  688.8598
 285  810.1317
 286  608.7002
 287  651.3096
 288  651.5894
 289  653.8853
 290  714.7645
 291  727.2612
 292  660.9083
 293  576.3903
 294  487.1491
 295  455.7374
 296  442.5739
 297  364.6358
 298  604.3996
 299  583.7886
 300  670.6606
 301  621.2555
 302  606.4969
 303  501.1802
 304  245.8848
 305  232.837
 306  378.5529
 307  525.6858
 308  664.905
 309  659.0004
 310  541.4893
 311  508.3315
 312  465.1907
 313  472.4186
 314  564.3552
 315  567.6215
 316  689.0519
 317  526.4489
 318  474.0873
 319  384.8731
 320  192.2924
 321  248.412
 322  431.3649
 323  539.051
 324  415.4134
 325  126.9611
 326  231.0746
 327  402.5999
 328  627.1539
 329  695.579
 330  649.5495
 331  681.1788
 332  846.3402
 333  897.6639
 334  857.1583
 335  630.1125
 336  560.5493
 337  564.5436
 338  604.9955
 339  525.1818
 340  433.045
 341  270.4921
 342  363.7509
 343  502.2961
 344  639.139
 345  725.4577
 346  507.3438
 347  314.73
 348  230.7234
 349  320.4177
 350  521.0129
 351  445.4708
 352  450.2396
 353  516.6106
 354  618.0575
 355  743.2835
 356  767.2393
 357  745.2855
 358  757.3348
 359  690.4973
 360  764.4528
 361  523.5172
 362  429.4332
 363  545.3868
 364  679.0141
 365  914.9028
 366  716.0432
 367  531.444
 368  665.6501
 369  867.6124
 370  1020.817
 371  956.5505
 372  907.8953
 373  772.8862
 374  676.0106
 375  570.3647
 376  712.574
 377  643.7097
 378  750.788
 379  1007.125
 380  1036.102
 381  1099.247
 382  874.0223
 383  805.2444
 384  837.5666
 385  854.9672
 386  926.399
 387  908.4553
 388  821.4719
 389  1051.76
 390  1147.984
 391  967.9422
 392  799.194
 393  966.9254
 394  1310.813
 395  1289.734
 396  1226.057
 397  911.4373
 398  709.4017
 399  626.842
 400  717.7816
 401  689.6724
 402  673.2192
 403  670.2035
 404  717.6816
 405  659.441
 406  595.1296
 407  698.393
 408  946.163
 409  1070.406
 410  1039.085
 411  790.319
 412  691.9077
 413  481.2748
 414  601.4576
 415  691.2715
 416  639.0174
 417  420.3311
 418  458.9384
 419  518.0923
 420  841.4037
 421  920.999
 422  922.1391
 423  684.2097
 424  464.298
 425  376.5685
 426  371.304
 427  530.012
 428  734.8602
 429  803.7465
 430  710.5034
 431  687.633
 432  739.322
 433  913.841
 434  836.8771
 435  853.2025
 436  1020.249
 437  1186.439
 438  1299.212
 439  1285.804
 440  1195.824
 441  1191.42
 442  1028.314
 443  904.7766
 444  876.5592
 445  776.2289
 446  916.1274
 447  918.2184
 448  947.294
 449  1134.803
 450  1071.882
 451  1334.07
 452  1360.086
 453  1356.282
 454  1143.7
 455  881.6871
 456  950.731
 457  1003.03
 458  1034.681
 459  956.4152
 460  846.5056
 461  697.5376
 462  595.9925
 463  519.6637
 464  598.2283
 465  820.4319
 466  832.1002
 467  870.7753
 468  824.6033
 469  849.209
 470  707.8218
 471  503.1462
 472  571.3767
 473  812.8317
 474  960.9193
 475  751.4335
 476  574.0529
 477  493.3437
 478  581.8247
 479  647.0187
 480  688.0173
 481  653.058
 482  670.6107
 483  949.0755
 484  811.97
 485  805.5377
 486  805.9786
 487  1051.404
 488  1201.747
 489  1012.059
 490  896.2081
 491  640.3678
 492  519.3464
 493  687.8329
 494  741.3612
 495  882.9054
 496  762.2371
 497  791.9708
 498  913.5012
 499  899.2256
 500  892.3356
 501  1128.778
 502  1317.286
 503  1226.879
 504  1245.753
 505  1054.698
 506  1035.81
 507  818.0632
 508  777.5239
 509  968.4211
 510  993.7573
 511  1041.377
 512  1054.935
 513  885.4208
 514  994.0704
 515  1044.652
 516  1111.457
 517  1098.126
 518  932.5433
 519  962.2654
 520  936.2982
 521  859.5815
 522  994.3011
 523  916.347
 524  930.6033
 525  683.4982
 526  405.836
 527  475.5278
 528  713.0346
 529  694.3004
 530  383.9213
 531  311.8524
 532  599.9412
 533  538.3558
 534  313.3187
 535  348.3897
 536  436.7249
 537  546.0888
 538  640.0289
 539  719.9522
 540  807.4996
 541  835.3842
 542  808.494
 543  622.1207
 544  506.5909
 545  594.9242
 546  726.6999
 547  672.9872
 548  583.491
 549  627.6174
 550  695.9141
 551  812.3247
 552  968.2114
 553  1063.949
 554  932.985
 555  809.1592
 556  1033.567
 557  1080.576
 558  1155.264
 559  1210.731
 560  1279.733
 561  1324.84
 562  1172.325
 563  1104.559
 564  1093.721
 565  1002.923
 566  1059.633
 567  1062.372
 568  1019.69
 569  1056.707
 570  1021.145
 571  1179.35
 572  1134.94
 573  1011.414
 574  855.5121
 575  677.8743
 576  728.8945
 577  874.7565
 578  951.2065
 579  890.9481
 580  931.6998
 581  1029.533
 582  1263.655
 583  1146.025
 584  974.8427
 585  836.0142
 586  827.4061
 587  831.166
 588  627.2648
 589  738.1867
 590  878.434
 591  929.6442
 592  866.8682
 593  912.9793
 594  1023.528
 595  1287.64
 596  1356.344
 597  1296.233
 598  1107.017
 599  1127.821
 600  1068.753
 601  948.6197
 602  1023.381
 603  1207.26
 604  1339.249
 605  1537.184
 606  1803.562
 607  2007.477
 608  2184.144
 609  1945.543
 610  1909.721
 611  1830.271
 612  1665.27
 613  1619.032
 614  1369.95
 615  1218.397
 616  1111.63
 617  1062.133
 618  1350.874
 619  1211.264
 620  1258.96
 621  1213.659
 622  1445.978
 623  1643.583
 624  1585.894
 625  1427.448
 626  1332.705
 627  1383.326
 628  1329.952
 629  1321.253
 630  1080.861
 631  1184.694
 632  1257.912
 633  1312.293
 634  1160.458
 635  1164.239
 636  1241.974
 637  1260.815
 638  1248.15
 639  1544.002
 640  1641.613
 641  1617.162
 642  1576.711
 643  1585.074
 644  1666.762
 645  1608.264
 646  1559.236
 647  1510.799
 648  1344.192
 649  1258.883
 650  1135.053
 651  1066.054
 652  1163.196
 653  1144.61
 654  1211.039
 655  1326.411
 656  1257.272
 657  1145.746
 658  1127.056
 659  1070.503
 660  1277.696
 661  1367.922
 662  1427.169
 663  1226.145
 664  1004.265
 665  1143.079
 666  1159.743
 667  1308.641
 668  1370.179
 669  1319.729
 670  1258.799
 671  1195.319
 672  1165.703
 673  1129.039
 674  1029.645
 675  1122.621
 676  1076.71
 677  1034.482
 678  1233.092
 679  1238.082
 680  1224.745
 681  924.2258
 682  759.0079
 683  759.8851
 684  867.3038
 685  972.2648
 686  907.2413
 687  872.8456
 688  762.4068
 689  687.4705
 690  551.0937
 691  619.0453
 692  842.7588
 693  1021.786
 694  1398.935
 695  1091.014
 696  920.8869
 697  566.1727
 698  433.8238
 699  444.963
 700  498.9521
 701  514.5386
 702  618.6821
 703  435.8618
 704  535.8655
 705  607.2656
 706  772.2286
 707  844.01
 708  652.7733
 709  646.9797
 710  574.1139
 711  681.3036
 712  624.7468
 713  583.0543
 714  717.4026
 715  804.4761
 716  722.5094
 717  760.3952
 718  781.1074
 719  826.8182
 720  1012.926
 721  932.175
 722  808.3535
 723  629.9897
 724  523.1315
 725  464.2148
 726  473.0236
 727  523.3904
 728  765.7086
 729  862.5765
 730  925.4024
 731  959.5446
 732  891.9243
 733  778.3145
 734  673.4601
 735  841.5369
 736  903.8954
 737  657.1299
 738  559.5113
 739  484.2192
 740  523.0261
 741  889.672
 742  829.5417
 743  832.2221
 744  670.0648
 745  825.4651
 746  856.3251
 747  694.7848
 748  697.3586
 749  817.6005
 750  1049.083
 751  1076.59
 752  896.2643
 753  886.0878
 754  1001.878
 755  1084.916
 756  1116.807
 757  975.3262
 758  797.7988
 759  776.4536
 760  661.66
 761  750.2253
 762  965.3556
 763  1053.011
 764  935.8846
 765  777.741
 766  761.1774
 767  810.035
 768  895.3054
 769  908.9196
 770  973.6173
 771  1014.876
 772  1097.801
 773  1036.043
 774  957.3657
 775  1244.363
 776  1145.165
 777  1187.595
 778  1020.345
 779  1025.896
 780  1028.137
 781  958.3998
 782  996.232
 783  814.8299
 784  699.4688
 785  823.116
 786  1003.612
 787  1122.422
 788  1072.139
 789  909.546
 790  1007.351
 791  905.9672
 792  925.6246
 793  984.5883
 794  932.351
 795  829.4919
 796  593.7474
 797  590.3268
 798  514.2434
 799  485.6617
 800  508.9622
 801  630.4478
 802  655.7161
 803  793.2077
 804  706.2734
 805  678.966
 806  619.8446
 807  724.7452
 808  862.0273
 809  741.1422
 810  459.7143
 811  598.9833
 812  516.204
 813  613.0881
 814  625.9675
 815  696.9201
 816  634.4792
 817  575.5273
 818  585.3804
 819  753.7147
 820  863.0475
 821  1003.761
 822  976.0045
 823  723.6575
 824  773.8682
 825  747.9647
 826  848.6288
 827  824.8119
 828  952.2487
 829  879.9216
 830  859.6763
 831  765.3042
 832  897.212
 833  956.296
 834  910.3276
 835  876.2681
 836  697.035
 837  703.5805
 838  656.9261
 839  759.4716
 840  830.6966
 841  755.3093
 842  794.1822
 843  686.2238
 844  764.5852
 845  849.1347
 846  967.212
 847  1046.317
 848  958.6311
 849  854.0198
 850  966.5593
 851  891.4142
 852  916.6783
 853  814.3266
 854  808.7899
 855  673.6086
 856  474.8337
 857  326.218
 858  481.5515
 859  613.7776
 860  760.3561
 861  779.3874
 862  783.7561
 863  1061.676
 864  1216.223
 865  1116.811
 866  1196.166
 867  1037.178
 868  1245.341
 869  1161.79
 870  1051.254
 871  910.8848
 872  936.4435
 873  1084.546
 874  1234.039
 875  1164.251
 876  1126.7
 877  1157.187
 878  1300.778
 879  1339.974
 880  1247.521
 881  1147.595
 882  941.0116
 883  781.1671
 884  809.4917
 885  1052.431
 886  993.3301
 887  935.8655
 888  648.8705
 889  792.1569
 890  754.2333
 891  766.7502
 892  782.3854
 893  711.4844
 894  789.6042
 895  915.7617
 896  908.6787
 897  938.0523
 898  658.8081
 899  629.3906
 900  576.4579
 901  527.5998
 902  467.945
 903  654.6729
 904  842.963
 905  1026.184
 906  736.5388
 907  777.1556
 908  594.8976
 909  690.6242
 910  869.7519
 911  990.4312
 912  944.1163
 913  811.2275
 914  743.7436
 915  790.0567
 916  816.7489
 917  699.7715
 918  739.1958
 919  736.2346
 920  828.184
 921  758.4041
 922  669.3558
 923  892.877
 924  1046.636
 925  1276.092
 926  1343.343
 927  1322.229
 928  1414.965
 929  1391.761
 930  1206.301
 931  1016.126
 932  912.1133
 933  820.5319
 934  662.4902
 935  581.1956
 936  722.8029
 937  837.8815
 938  883.8266
 939  847.6776
 940  634.6591
 941  885.6788
 942  885.6099
 943  808.1781
 944  844.6671
 945  945.4049
 946  1212.122
 947  1119.841
 948  904.5518
 949  802.7708
 950  691.7336
 951  519.667
 952  609.3215
 953  818.9558
 954  1046.29
 955  818.7752
 956  767.6982
 957  752.7171
 958  747.2888
 959  964.7351
 960  1059.709
 961  908.1708
 962  726.6633
 963  644.0641
 964  674.8537
 965  641.5095
 966  789.5386
 967  798.7707
 968  924.2565
 969  936.5945
 970  861.7115
 971  818.752
 972  749.0753
 973  940.4064
 974  860.657
 975  772.6186
 976  641.6144
 977  565.1182
 978  620.615
 979  619.0244
 980  651.086
 981  707.4446
 982  796.8011
 983  982.0574
 984  906.4925
 985  963.5726
 986  919.5781
 987  884.0061
 988  914.9657
 989  926.7778
 990  842.1445
 991  640.8738
 992  595.5729
 993  762.3052
 994  885.2397
 995  646.9868
 996  639.2827
 997  659.6526
 998  803.0845
 999  942.3114
1000  815.2204
1001  842.2437
1002  766.9973
1003  767.8298
1004  755.8128
1005  610.5502
1006  704.8691
1007  761.4163
1008  918.8568
1009  1051.028
1010  1112.221
1011  1029.896
1012  833.3164
1013  890.6241
1014  1143.657
1015  1159.45
1016  991.4911
1017  680.8386
1018  583.8989
1019  740.1263
1020  765.0593
1021  680.4172
1022  734.3361
1023  879.9839
