# Input file       =  1204965093.116856_cleaned.dat
# Candidate        =  PSR_0332+5434
# Telescope        =  AR
# Epoch_topo       =  58190.355464315464
# Epoch_bary       =  N/A
# T_sample         =  0.002
# Data Folded      =  7208960
# Data Avg         =  0.0534158386332395
# Data StdDev      =  1.00006298906037 
# Profile Bins     =  512
# Profile Avg      =  752.101350618961 
# Profile StdDev   =  118.666650023519 
# Reduced chi-sqr  =  1.627
# Prob(Noise)      <  1.04e-17   (~8.5 sigma)
# P_topo (ms)      =  714.578106210492  +/- 2.94e-05
# P'_topo (s/s)    =  -0                +/- 1.58e-11
# P''_topo (s/s^2) =  0                 +/- 7.11e-15
# P_bary (ms)      =  N/A
# P'_bary (s/s)    =  N/A
# P''_bary (s/s^2) =  N/A
# P_orb (s)        =  N/A
# asin(i)/c (s)    =  N/A
# eccentricity     =  N/A
# w (rad)          =  N/A
# T_peri           =  N/A
######################################################
   0  766.5008
   1  784.6183
   2  832.3097
   3  769.9771
   4  692.831
   5  695.6927
   6  748.5306
   7  826.2687
   8  750.2288
   9  934.9852
  10  945.2119
  11  869.7056
  12  750.3718
  13  603.5247
  14  500.1175
  15  665.5751
  16  664.6497
  17  716.0652
  18  762.3003
  19  784.7772
  20  781.023
  21  683.2714
  22  650.9959
  23  672.887
  24  766.4066
  25  772.1717
  26  819.688
  27  860.2854
  28  820.5901
  29  761.2917
  30  665.4581
  31  788.3751
  32  719.1501
  33  780.9899
  34  752.0847
  35  779.4337
  36  750.906
  37  617.5533
  38  616.8593
  39  705.2602
  40  687.562
  41  763.2395
  42  706.7667
  43  699.6082
  44  632.0806
  45  679.5059
  46  669.3889
  47  693.3143
  48  801.576
  49  722.1161
  50  707.8891
  51  815.4182
  52  693.431
  53  575.735
  54  538.009
  55  605.1546
  56  612.0718
  57  581.7479
  58  727.2505
  59  862.7602
  60  846.608
  61  765.5989
  62  656.8397
  63  715.5953
  64  715.0848
  65  729.5673
  66  798.1733
  67  825.916
  68  793.3943
  69  710.8677
  70  708.7534
  71  560.1851
  72  632.3637
  73  729.0345
  74  788.7648
  75  770.8082
  76  826.9918
  77  827.8457
  78  736.2908
  79  633.9214
  80  688.6954
  81  686.1193
  82  626.7966
  83  774.6241
  84  861.4449
  85  782.0264
  86  726.7471
  87  632.5516
  88  731.8262
  89  773.5856
  90  677.0854
  91  801.1201
  92  926.8574
  93  872.4396
  94  714.4463
  95  673.1934
  96  701.0854
  97  742.8737
  98  723.768
  99  876.5649
 100  863.8214
 101  777.6294
 102  671.113
 103  652.2646
 104  660.1052
 105  652.92
 106  581.425
 107  638.827
 108  782.767
 109  878.0333
 110  911.194
 111  818.7977
 112  617.644
 113  587.6722
 114  698.6622
 115  760.8877
 116  610.8138
 117  680.3367
 118  758.4122
 119  728.9001
 120  657.9639
 121  609.0775
 122  553.389
 123  607.2253
 124  823.6018
 125  839.06
 126  727.8793
 127  746.6286
 128  633.4494
 129  563.9135
 130  629.4944
 131  657.7889
 132  519.8763
 133  665.9063
 134  820.2734
 135  679.913
 136  531.8387
 137  512.5676
 138  426.1086
 139  424.2301
 140  624.8497
 141  755.8376
 142  788.356
 143  721.5702
 144  645.7177
 145  612.8308
 146  629.7929
 147  653.7468
 148  610.6072
 149  591.4492
 150  679.1783
 151  686.0985
 152  663.1358
 153  546.7431
 154  469.8825
 155  512.0683
 156  620.9176
 157  796.6299
 158  795.9393
 159  776.9079
 160  764.3347
 161  711.5363
 162  646.3217
 163  641.2955
 164  696.2275
 165  791.8821
 166  814.7567
 167  821.5905
 168  857.4643
 169  699.851
 170  590.3961
 171  676.4252
 172  768.9142
 173  805.1292
 174  798.3579
 175  854.2164
 176  898.7671
 177  770.3116
 178  738.2858
 179  737.0813
 180  703.3054
 181  763.7969
 182  924.812
 183  837.04
 184  835.7306
 185  809.0609
 186  607.3573
 187  609.5379
 188  653.877
 189  773.0226
 190  748.9299
 191  846.5834
 192  992.852
 193  825.6652
 194  702.1986
 195  704.9114
 196  716.9492
 197  758.2621
 198  782.7443
 199  875.4852
 200  825.9641
 201  856.7256
 202  835.2329
 203  735.9369
 204  627.4968
 205  608.5813
 206  759.4454
 207  868.323
 208  813.4823
 209  805.0262
 210  802.1827
 211  858.8927
 212  760.2443
 213  684.1287
 214  655.6279
 215  748.0028
 216  875.3772
 217  971.4334
 218  899.9776
 219  682.8893
 220  753.929
 221  797.9688
 222  810.779
 223  845.1938
 224  885.5271
 225  735.6127
 226  729.348
 227  766.3815
 228  737.2632
 229  740.4761
 230  814.7999
 231  889.9319
 232  806.8095
 233  850.8042
 234  782.5654
 235  640.6532
 236  727.2997
 237  816.1283
 238  842.3622
 239  962.8753
 240  1052.171
 241  1020.587
 242  941.1728
 243  891.623
 244  853.0033
 245  866.5411
 246  896.1257
 247  997.1483
 248  907.0687
 249  845.9523
 250  848.8318
 251  789.6724
 252  768.9039
 253  858.506
 254  870.7851
 255  926.5173
 256  1039.154
 257  866.6729
 258  852.8079
 259  752.291
 260  797.397
 261  812.9454
 262  779.9396
 263  820.8058
 264  805.9488
 265  861.8677
 266  830.3401
 267  780.0904
 268  674.4558
 269  783.2911
 270  799.418
 271  662.1298
 272  758.7006
 273  937.9332
 274  965.8749
 275  873.5771
 276  778.5182
 277  687.705
 278  586.0571
 279  673.8698
 280  825.1846
 281  833.8609
 282  761.5995
 283  816.7693
 284  722.3875
 285  665.4354
 286  786.1384
 287  738.7322
 288  779.8004
 289  787.9691
 290  826.1407
 291  903.34
 292  799.3257
 293  695.1376
 294  630.9106
 295  661.4027
 296  699.0066
 297  766.4904
 298  911.3073
 299  885.2916
 300  844.8071
 301  702.7388
 302  575.3814
 303  655.6104
 304  726.2175
 305  769.9803
 306  833.1497
 307  860.3398
 308  804.1335
 309  830.3374
 310  751.3098
 311  675.0757
 312  714.4554
 313  759.8318
 314  810.6243
 315  765.2548
 316  693.243
 317  816.834
 318  731.2348
 319  748.0978
 320  753.5619
 321  723.4448
 322  811.3268
 323  883.4408
 324  880.5792
 325  844.0847
 326  635.4493
 327  608.8444
 328  648.7283
 329  734.7831
 330  800.8674
 331  821.7159
 332  894.3336
 333  866.9112
 334  748.1448
 335  649.8777
 336  639.148
 337  725.1236
 338  854.2379
 339  1014.92
 340  925.3637
 341  791.6464
 342  780.608
 343  609.2932
 344  593.3388
 345  660.5469
 346  876.256
 347  912.4077
 348  807.2204
 349  718.097
 350  755.0157
 351  707.62
 352  693.6792
 353  791.1442
 354  856.5957
 355  821.808
 356  789.1022
 357  802.1886
 358  820.1643
 359  787.8924
 360  764.1333
 361  759.7919
 362  751.8417
 363  809.3747
 364  874.5631
 365  901.5529
 366  771.3393
 367  720.3625
 368  804.529
 369  756.7928
 370  671.2609
 371  825.5859
 372  947.1844
 373  925.2242
 374  923.6492
 375  832.066
 376  739.9546
 377  615.8554
 378  761.2181
 379  787.9278
 380  860.3015
 381  898.9128
 382  727.3607
 383  691.7037
 384  681.7477
 385  648.2083
 386  645.3281
 387  714.558
 388  810.5449
 389  916.3833
 390  1021.125
 391  877.9
 392  781.3473
 393  701.1718
 394  844.8765
 395  834.2057
 396  827.1553
 397  856.1362
 398  872.6842
 399  828.9771
 400  685.6666
 401  701.3313
 402  725.8104
 403  695.4569
 404  715.2487
 405  784.9579
 406  901.0543
 407  805.0499
 408  746.2896
 409  721.6343
 410  753.6392
 411  689.5089
 412  684.571
 413  658.3104
 414  702.3572
 415  654.6304
 416  650.5965
 417  636.6337
 418  509.6143
 419  527.4028
 420  671.6678
 421  832.2974
 422  879.6899
 423  841.1933
 424  785.1151
 425  626.21
 426  577.5098
 427  582.2791
 428  566.9218
 429  627.737
 430  776.4397
 431  777.5342
 432  733.3741
 433  670.7304
 434  553.0209
 435  615.9507
 436  653.6436
 437  723.6908
 438  962.6122
 439  1188.09
 440  1146.981
 441  1143.562
 442  1165.826
 443  1061.635
 444  851.5287
 445  608.9951
 446  622.5889
 447  745.9495
 448  720.493
 449  707.4258
 450  472.352
 451  628.5686
 452  692.7232
 453  685.1278
 454  676.8902
 455  637.0717
 456  668.8303
 457  766.1312
 458  690.194
 459  695.7069
 460  691.8834
 461  681.765
 462  721.4001
 463  825.718
 464  800.8292
 465  742.6825
 466  632.5723
 467  537.4332
 468  532.5978
 469  655.2961
 470  818.7349
 471  788.4244
 472  776.5073
 473  740.7808
 474  681.6509
 475  636.3345
 476  669.9484
 477  814.6874
 478  880.3227
 479  838.4489
 480  850.4474
 481  810.4057
 482  633.6339
 483  598.9734
 484  652.7625
 485  764.3446
 486  693.3898
 487  714.4393
 488  816.6668
 489  876.5316
 490  979.0775
 491  855.7942
 492  703.2405
 493  699.5651
 494  782.1561
 495  750.283
 496  814.3396
 497  878.7605
 498  763.8166
 499  605.8041
 500  616.9535
 501  620.4472
 502  748.5219
 503  790.312
 504  797.8251
 505  823.9297
 506  808.4384
 507  775.9913
 508  693.6323
 509  605.2333
 510  604.2013
 511  706.6423
