# Input file       =  1204189742.101555_cleaned.dat
# Candidate        =  PSR_0332+5434
# Telescope        =  AR
# Epoch_topo       =  58181.381494230962
# Epoch_bary       =  N/A
# T_sample         =  0.002
# Data Folded      =  7208960
# Data Avg         =  0.713543522998224
# Data StdDev      =  6.42992759867393 
# Profile Bins     =  512
# Profile Avg      =  10046.4982392832 
# Profile StdDev   =  762.969909270725 
# Reduced chi-sqr  =  2.858
# Prob(Noise)      <  3.08e-92   (~20.3 sigma)
# P_topo (ms)      =  714.58009694559   +/- 3.38e-05
# P'_topo (s/s)    =  -0                +/- 1.82e-11
# P''_topo (s/s^2) =  0                 +/- 8.16e-15
# P_bary (ms)      =  N/A
# P'_bary (s/s)    =  N/A
# P''_bary (s/s^2) =  N/A
# P_orb (s)        =  N/A
# asin(i)/c (s)    =  N/A
# eccentricity     =  N/A
# w (rad)          =  N/A
# T_peri           =  N/A
######################################################
   0  10648.25
   1  10350.6
   2  10442.36
   3  10647.74
   4  10516.84
   5  10310.6
   6  9873.212
   7  10057.42
   8  10308.58
   9  10717.32
  10  11126.32
  11  11542.01
  12  11494.64
  13  11097.32
  14  10857.48
  15  10816.07
  16  10855.22
  17  10520.98
  18  10579.84
  19  11109.67
  20  10948.24
  21  10246.42
  22  9822.077
  23  9611.458
  24  9939.862
  25  10327.23
  26  11094.43
  27  11164.67
  28  11237.38
  29  11163.53
  30  10518.83
  31  9965.999
  32  9846.551
  33  9849.604
  34  9972.957
  35  10446.05
  36  10989.68
  37  10872.85
  38  10093.47
  39  9645.441
  40  9768.327
  41  10058.15
  42  10215.38
  43  10781.06
  44  11538.27
  45  11688.94
  46  11166.29
  47  10565.96
  48  10389.49
  49  10609.87
  50  10733.38
  51  10731.17
  52  10877.42
  53  11021.42
  54  10671.53
  55  10766.69
  56  10327.08
  57  10282.9
  58  10678.33
  59  11203.42
  60  11802.84
  61  12175.5
  62  11646.92
  63  10358.78
  64  10114.85
  65  10566.83
  66  10372.15
  67  10472.39
  68  10550.83
  69  11004.7
  70  10489.35
  71  10201.87
  72  10050.81
  73  9678.216
  74  9652.169
  75  9866.227
  76  10366.61
  77  11115.12
  78  11769.89
  79  11389.41
  80  10790.6
  81  10788.93
  82  10722.15
  83  10614.12
  84  10565.65
  85  10773.7
  86  10577.13
  87  10392
  88  10012.02
  89  9997.44
  90  10651.95
  91  10525.13
  92  10219.13
  93  10874.32
  94  11130.49
  95  10916.56
  96  10524.85
  97  9968.694
  98  9562.362
  99  9980.845
 100  10275.12
 101  10474.15
 102  10657.63
 103  10716.06
 104  10285.81
 105  9825.472
 106  9454.709
 107  9776.857
 108  9846.321
 109  10337.88
 110  10756.63
 111  11138.44
 112  10816.09
 113  10362.83
 114  9848.53
 115  9805.944
 116  9512.38
 117  9416.612
 118  9877.732
 119  10062.55
 120  9461.805
 121  8812.716
 122  8994.155
 123  9358.849
 124  9392.2
 125  9875.59
 126  10100.22
 127  10060.09
 128  10292.91
 129  9448.37
 130  9281.589
 131  9314.042
 132  9260.938
 133  9294.087
 134  9828.269
 135  10198.16
 136  9840.851
 137  9370.819
 138  8748.79
 139  8626.106
 140  8929.606
 141  9191.641
 142  9710.555
 143  10449.46
 144  10587.47
 145  10167.15
 146  9385.348
 147  9201.24
 148  8920.95
 149  8919.867
 150  8794.995
 151  9223.896
 152  9516.037
 153  9622.18
 154  9219.896
 155  8741.726
 156  8656.352
 157  8735.079
 158  9002.435
 159  9371.65
 160  10021.53
 161  10155.22
 162  9773.367
 163  8993.009
 164  8833.976
 165  9239.5
 166  9392.46
 167  8843.55
 168  9259.805
 169  9593.938
 170  9121.272
 171  8679.92
 172  8759.358
 173  9140.987
 174  9103.942
 175  9535.907
 176  9890.706
 177  10312.54
 178  10063.22
 179  9962.271
 180  9266.339
 181  9002.713
 182  8919.433
 183  8799.496
 184  9180.157
 185  10006.3
 186  9560.397
 187  9009.702
 188  8874.392
 189  8853.315
 190  8874.516
 191  9007.185
 192  9676.971
 193  9974.519
 194  9961.19
 195  9398.067
 196  9084.29
 197  8910.57
 198  9101.375
 199  9215.618
 200  9358.806
 201  9625.385
 202  9413.966
 203  8343.889
 204  8010.565
 205  8374.46
 206  8840.278
 207  9285.744
 208  9877.886
 209  10004.93
 210  10395.34
 211  9879.42
 212  9091.912
 213  8819.681
 214  9085.907
 215  9255.705
 216  9238.575
 217  9665.987
 218  10076.03
 219  10048.57
 220  9036.877
 221  8450.73
 222  8153.749
 223  9193.246
 224  9452.821
 225  9701.343
 226  10782.2
 227  10593.99
 228  9640.564
 229  9353.867
 230  9253.449
 231  8964.271
 232  9419.891
 233  9293.397
 234  9615.385
 235  10076.78
 236  9732.145
 237  9671.322
 238  9282.387
 239  9669.48
 240  10369.24
 241  10303.27
 242  10897.91
 243  11236.98
 244  11239.26
 245  10542.39
 246  9854.791
 247  9842.716
 248  9948.779
 249  9800.673
 250  9981.375
 251  10665.43
 252  10684.03
 253  9988.909
 254  9335.633
 255  9152.579
 256  9307.255
 257  9374.629
 258  9790.662
 259  10637.9
 260  10825.63
 261  10670.06
 262  9967.019
 263  9823.863
 264  9665.764
 265  9310.981
 266  9395.789
 267  9570.935
 268  9564.811
 269  9416.693
 270  8664.474
 271  8480.199
 272  8657.341
 273  8969.238
 274  9246.254
 275  9630.54
 276  10224.68
 277  9876.275
 278  9330.494
 279  8917.528
 280  8740.532
 281  9122.175
 282  9335.293
 283  9574.008
 284  9761.568
 285  9746.305
 286  8982.92
 287  8178.4
 288  8100.758
 289  8660.983
 290  8949.164
 291  9214.98
 292  9516.981
 293  9748.666
 294  9301.983
 295  8771.007
 296  8701.379
 297  8961.862
 298  8896.469
 299  8735.242
 300  9239.116
 301  9260.877
 302  8713.29
 303  8202.462
 304  8281.892
 305  8635.411
 306  8680.944
 307  9423.279
 308  9566.647
 309  9498.785
 310  9350.463
 311  9042.689
 312  8884.141
 313  8879.919
 314  8577.529
 315  9065.358
 316  9091.827
 317  9805.656
 318  9685.103
 319  9012.078
 320  8477.717
 321  8444.914
 322  9165.403
 323  9269.015
 324  9487.374
 325  10286.98
 326  10528.22
 327  9986.729
 328  9353.633
 329  9126.413
 330  9061.925
 331  8932.09
 332  8951.387
 333  9340.238
 334  9807.843
 335  9645.49
 336  9224.348
 337  8851.302
 338  9125.569
 339  9277.978
 340  9673.674
 341  10234.31
 342  10629.2
 343  10392.16
 344  9986.595
 345  9489.607
 346  9530.755
 347  9671.141
 348  9688.121
 349  9645.92
 350  10159
 351  10408.05
 352  9935.284
 353  9432.88
 354  9458.39
 355  9464.382
 356  10134.27
 357  10049.83
 358  10553.93
 359  10393.22
 360  9894.472
 361  9303.577
 362  8999.731
 363  9247.858
 364  9282.061
 365  9431.904
 366  9429.995
 367  9555.497
 368  9478.534
 369  9062.868
 370  8968.85
 371  9128.714
 372  9653.639
 373  9579.09
 374  9733.587
 375  10347.46
 376  10081.22
 377  9418.66
 378  9362.704
 379  9217.823
 380  9311.714
 381  9343.791
 382  9382.382
 383  9563.228
 384  9616.834
 385  9094.392
 386  8868.454
 387  9087.978
 388  9480.132
 389  9620.029
 390  10217.12
 391  10811.03
 392  10704
 393  10091.56
 394  9469.834
 395  8989.271
 396  9270.948
 397  9317.533
 398  9282.791
 399  9652.125
 400  9819.461
 401  9793.399
 402  8976.131
 403  8703.525
 404  8823.967
 405  9403.454
 406  10019.78
 407  10705.33
 408  11143.24
 409  11072.97
 410  9973.188
 411  9711.552
 412  9319.047
 413  9631.369
 414  9978.093
 415  10016.05
 416  10633.43
 417  10546.09
 418  10114.39
 419  9771.611
 420  9836.019
 421  9989.242
 422  10831.8
 423  11255.18
 424  11384.63
 425  11330.31
 426  10988.35
 427  10530.45
 428  10423.71
 429  10389.19
 430  10318.87
 431  10266.69
 432  10848.79
 433  11419.97
 434  11085.85
 435  10292.36
 436  10108.97
 437  10513.51
 438  10859.2
 439  11221.42
 440  11502.42
 441  12199.64
 442  12112.09
 443  11015.05
 444  10651.48
 445  10677.6
 446  10826.08
 447  10879.2
 448  11215.87
 449  11508
 450  11214.86
 451  11449.11
 452  11136.08
 453  10673.64
 454  10788.08
 455  11460.56
 456  12172.34
 457  12323.93
 458  12696.12
 459  12172.84
 460  11121.57
 461  10979.58
 462  11430.23
 463  11579.79
 464  11569.12
 465  12084.94
 466  12283.95
 467  12205.59
 468  11410.3
 469  11113.05
 470  10946.19
 471  11116.16
 472  11924.15
 473  12243.2
 474  12782.97
 475  12662.35
 476  12043.92
 477  11329.5
 478  11355.53
 479  11265.08
 480  10861.64
 481  11076.96
 482  11617.33
 483  11938.22
 484  11654.37
 485  11753.05
 486  11861.46
 487  11878.92
 488  12287.44
 489  12889.25
 490  12550.3
 491  12566.62
 492  11434.64
 493  10669.92
 494  10758.23
 495  10740.28
 496  10837.47
 497  10952.68
 498  11212.52
 499  11438.14
 500  11017.14
 501  10475.68
 502  10389.89
 503  10500.15
 504  10433.09
 505  10916.39
 506  11572.71
 507  12085.03
 508  11464.83
 509  10739.95
 510  10439.13
 511  10453.5
