# Input file       =  1204118180.101071_cleaned.dat
# Candidate        =  PSR_0332+5434
# Telescope        =  AR
# Epoch_topo       =  58180.553230336467
# Epoch_bary       =  N/A
# T_sample         =  0.002
# Data Folded      =  7340032
# Data Avg         =  0.726752869344117
# Data StdDev      =  8.78016524199429 
# Profile Bins     =  512
# Profile Avg      =  10417.7935100035 
# Profile StdDev   =  1051.27584431372 
# Reduced chi-sqr  =  1.543
# Prob(Noise)      <  3.41e-14   (~7.5 sigma)
# P_topo (ms)      =  714.580223796126  +/- 0.000943
# P'_topo (s/s)    =  -0                +/- 4.97e-10
# P''_topo (s/s^2) =  0                 +/- 2.2e-13
# P_bary (ms)      =  N/A
# P'_bary (s/s)    =  N/A
# P''_bary (s/s^2) =  N/A
# P_orb (s)        =  N/A
# asin(i)/c (s)    =  N/A
# eccentricity     =  N/A
# w (rad)          =  N/A
# T_peri           =  N/A
######################################################
   0  9090.933
   1  9127.95
   2  9109.217
   3  9520.798
   4  9373.541
   5  9625.96
   6  9793.561
   7  9735.375
   8  9700.728
   9  9622.416
  10  9587.519
  11  9414.644
  12  9589.863
  13  9997.457
  14  10096.84
  15  10127.98
  16  10480.73
  17  9932.326
  18  10055.89
  19  10229.97
  20  10129.96
  21  9640.782
  22  9919.775
  23  10312.87
  24  10409.46
  25  10515.26
  26  10459.36
  27  10491.96
  28  10063.17
  29  9957.226
  30  10084
  31  10245.27
  32  10563.11
  33  10642.76
  34  10424.31
  35  10260.04
  36  10159.63
  37  10027.56
  38  10668.45
  39  10921.38
  40  10728.31
  41  10484.31
  42  10247.79
  43  10628.78
  44  10666.87
  45  10643.58
  46  10884.3
  47  10947.56
  48  10785.31
  49  10801.08
  50  10934.83
  51  11016.01
  52  11011.65
  53  11221.95
  54  11065.2
  55  11797.53
  56  11747.36
  57  11340.17
  58  10927.4
  59  11106.18
  60  10953.07
  61  10732.44
  62  10951.34
  63  10618.08
  64  10596.05
  65  10587.1
  66  10609.06
  67  10282.62
  68  10503.41
  69  10661.2
  70  9900.812
  71  10008.55
  72  10419.92
  73  10617.21
  74  10536.85
  75  10624.2
  76  10652.63
  77  10466.62
  78  10398.04
  79  10452.34
  80  10240.85
  81  10384.92
  82  10149.63
  83  10183.03
  84  9836.985
  85  9942.451
  86  10464.8
  87  10293.89
  88  10424.26
  89  10258.93
  90  10522
  91  10458.68
  92  10800.53
  93  11001.8
  94  10922.41
  95  11352.72
  96  11589.19
  97  11260.25
  98  11115.36
  99  11272.72
 100  10699
 101  10680.89
 102  10609.01
 103  10713.05
 104  10809.44
 105  10885.52
 106  10611.01
 107  10625.5
 108  10565.34
 109  10762.14
 110  10687.16
 111  10357.17
 112  10601.52
 113  10673.71
 114  10472.06
 115  10479.36
 116  10142.49
 117  10328.28
 118  9953.815
 119  9785.286
 120  10284.8
 121  10250.06
 122  10744.74
 123  10988.09
 124  10484.62
 125  10549.9
 126  10843.19
 127  11141.11
 128  11569.41
 129  11522.77
 130  11611.95
 131  11574.23
 132  11359.48
 133  11491.56
 134  11153.97
 135  11217.02
 136  11652.45
 137  11972.85
 138  12116.44
 139  11656.82
 140  11228.34
 141  11222.07
 142  11115.81
 143  11269.56
 144  11545.12
 145  11345.92
 146  11476.95
 147  11383.13
 148  11084.98
 149  11506.07
 150  11166.51
 151  11048.61
 152  10595.69
 153  10648.07
 154  10855.83
 155  10736.75
 156  10705.56
 157  10863.98
 158  11154.74
 159  11285.71
 160  11090.34
 161  10909.75
 162  10934.16
 163  11296.88
 164  11777.97
 165  11773.24
 166  11572.93
 167  11386.27
 168  11260.4
 169  11746.24
 170  12257.41
 171  12603.81
 172  12698.51
 173  12430.82
 174  11949.61
 175  12233.26
 176  12691.16
 177  12855.67
 178  12511.27
 179  12145.23
 180  12476.57
 181  12750.88
 182  12820.08
 183  12440.97
 184  12163.9
 185  11737.74
 186  11875.51
 187  11362.27
 188  11431.52
 189  11404.04
 190  11669.38
 191  11976.34
 192  11566.52
 193  11363.4
 194  11530.12
 195  11546.77
 196  11508.45
 197  11494.85
 198  11809.37
 199  11716.09
 200  11348.16
 201  10952.59
 202  11097.46
 203  11333.3
 204  11313.89
 205  11474.39
 206  11370.02
 207  11315.07
 208  11337.66
 209  11902.08
 210  11418.55
 211  10832.52
 212  11085.49
 213  11047.31
 214  10980.85
 215  11128.34
 216  11732.31
 217  11684.87
 218  11470.97
 219  11240.96
 220  11306.02
 221  11648.99
 222  11722.52
 223  11853.18
 224  12042.39
 225  12162.35
 226  11609.89
 227  11933.64
 228  12130.86
 229  11905.47
 230  11776.78
 231  11663.67
 232  11394.86
 233  11410.76
 234  11751.85
 235  11576.43
 236  11959.38
 237  11868.78
 238  11996.23
 239  12095.46
 240  12039.41
 241  11929.47
 242  12108.5
 243  12258.49
 244  12380.64
 245  12279.6
 246  12426.55
 247  12334.03
 248  12306.96
 249  12004.39
 250  11548.82
 251  11092.55
 252  10886.33
 253  11116.96
 254  11154.08
 255  11297.49
 256  11609.26
 257  11503.15
 258  11335.34
 259  11310.89
 260  11064.91
 261  11349.95
 262  11537.45
 263  11353.59
 264  11368.79
 265  11117.67
 266  11105.83
 267  10828.9
 268  11038.09
 269  11082.27
 270  10961.55
 271  11127.82
 272  10781.6
 273  10532.12
 274  10389.22
 275  10588.65
 276  10462.09
 277  10299.88
 278  10465.22
 279  10695.93
 280  10530.49
 281  10282.83
 282  10082.29
 283  10369.55
 284  10171.82
 285  9698.974
 286  9798.428
 287  9973.493
 288  9429.609
 289  9175.199
 290  9272.336
 291  9468.637
 292  9062.273
 293  8865.291
 294  9278.354
 295  9182.186
 296  9295.722
 297  9300.384
 298  9427.812
 299  9121.069
 300  9331.615
 301  9777.983
 302  10387.6
 303  11209.52
 304  11415.49
 305  11348.94
 306  10814.15
 307  10310.08
 308  9964.971
 309  10238.55
 310  9864.277
 311  9747.877
 312  9684.334
 313  9563.837
 314  9322.396
 315  9082.238
 316  9431.107
 317  9289.563
 318  9349.494
 319  10018.49
 320  9903.398
 321  9647.343
 322  9626.396
 323  9529.224
 324  9417.983
 325  9526.394
 326  9479.558
 327  9291.208
 328  9095.497
 329  9151.494
 330  9100.282
 331  9044.526
 332  8997.369
 333  9007.145
 334  8980.876
 335  9030.161
 336  8691.566
 337  8864.822
 338  9224.381
 339  8812.272
 340  9132.722
 341  9101.939
 342  9017.368
 343  9049.948
 344  9413.15
 345  9473.625
 346  9786.501
 347  9278.909
 348  8994.446
 349  9212.748
 350  9740.392
 351  10105.88
 352  10047.12
 353  9962.92
 354  9676.611
 355  9732.986
 356  9519.777
 357  9548.875
 358  9649.221
 359  9641.953
 360  9729.624
 361  9587.604
 362  9485.877
 363  9625.741
 364  9622.45
 365  9518.261
 366  9753.48
 367  9965.497
 368  9991.146
 369  10064.1
 370  10030.7
 371  9748.114
 372  9634.331
 373  9595.344
 374  9381.282
 375  9575.237
 376  10056.62
 377  9803.843
 378  9822.049
 379  9630.784
 380  9706.65
 381  9642.587
 382  10044.12
 383  10286.38
 384  10147.18
 385  10121.01
 386  10378.34
 387  10473.07
 388  10329.25
 389  10090.69
 390  9819.362
 391  9687.652
 392  9550.245
 393  9908.371
 394  10050.61
 395  10060.1
 396  9965.835
 397  10176.37
 398  10174.89
 399  10029.99
 400  9930.994
 401  9761.688
 402  9918.892
 403  9295.961
 404  9082.94
 405  8994.002
 406  9146.054
 407  9485.516
 408  9811.236
 409  9746.039
 410  9122.31
 411  9223.963
 412  9331.396
 413  9201.36
 414  8725.869
 415  8835.399
 416  8943.821
 417  9005.382
 418  9176.459
 419  9058.627
 420  8829.755
 421  8794.941
 422  8932.382
 423  8421.23
 424  8218.922
 425  8490.543
 426  8920.066
 427  9093.505
 428  9351.583
 429  9008.039
 430  9005.977
 431  8843.125
 432  8902.422
 433  9165.637
 434  9148.66
 435  9030.594
 436  8779.884
 437  8962.962
 438  9221.688
 439  9068.206
 440  8921.306
 441  9080.561
 442  9394.083
 443  9124.391
 444  9490.507
 445  9446.319
 446  9599.6
 447  10049.06
 448  9721.727
 449  9751.755
 450  9915.177
 451  10271.67
 452  10558.93
 453  9740.086
 454  9761.039
 455  10020.06
 456  10105.54
 457  10131.89
 458  10597.79
 459  10167.4
 460  9818.277
 461  9818.987
 462  9459.447
 463  9589.981
 464  10172.39
 465  10294.31
 466  10346.19
 467  10470.8
 468  10563.21
 469  10791.93
 470  10921.76
 471  10409.74
 472  10271.24
 473  10242.98
 474  10461.12
 475  10518.44
 476  10907.85
 477  10762.37
 478  10222.56
 479  10482.35
 480  10495.66
 481  10365.79
 482  10114.28
 483  10265.78
 484  10366.5
 485  10391.49
 486  10493.14
 487  10639.47
 488  10441.15
 489  9920.231
 490  9823.257
 491  10337.09
 492  10271.26
 493  10205.16
 494  10075.63
 495  10305.54
 496  10062.79
 497  10172.07
 498  9876.354
 499  10028.9
 500  10231.56
 501  9955.799
 502  9350.01
 503  9059.391
 504  9392.623
 505  9296.126
 506  9046.068
 507  9394.29
 508  9500.509
 509  8952.069
 510  9198.166
 511  9076.074
