# Input file       =  1204893568.118315_cleaned.dat
# Candidate        =  PSR_0332+5434
# Telescope        =  AR
# Epoch_topo       =  58189.527628684198
# Epoch_bary       =  N/A
# T_sample         =  0.002
# Data Folded      =  7340032
# Data Avg         =  0.497925515791782
# Data StdDev      =  6.28346375967871 
# Profile Bins     =  512
# Profile Avg      =  7137.83287337207 
# Profile StdDev   =  752.338194909702 
# Reduced chi-sqr  =  0.786
# Prob(Noise)      <  1   (~0.0 sigma)
# P_topo (ms)      =  714.578359210045  +/- 0.000725
# P'_topo (s/s)    =  -0                +/- 3.82e-10
# P''_topo (s/s^2) =  0                 +/- 1.69e-13
# P_bary (ms)      =  N/A
# P'_bary (s/s)    =  N/A
# P''_bary (s/s^2) =  N/A
# P_orb (s)        =  N/A
# asin(i)/c (s)    =  N/A
# eccentricity     =  N/A
# w (rad)          =  N/A
# T_peri           =  N/A
######################################################
   0  6999.552
   1  7035.351
   2  7139.469
   3  7174.283
   4  6988.83
   5  6877.39
   6  6710.604
   7  7012.241
   8  7194.69
   9  7168.604
  10  7013.798
  11  7154.399
  12  7280.155
  13  7181.935
  14  6910.358
  15  6978.448
  16  7141.714
  17  7177.728
  18  7270.414
  19  7136.099
  20  7227.667
  21  6930.698
  22  6996.976
  23  6948.983
  24  6682.443
  25  7053.427
  26  7070.73
  27  7196.689
  28  7149.792
  29  7527.312
  30  7256.284
  31  7498.339
  32  7245.967
  33  7338.915
  34  7325.601
  35  7268.531
  36  7159.56
  37  6993.675
  38  6954.801
  39  7020.661
  40  6830.768
  41  6852.009
  42  7066.535
  43  7169.012
  44  6886.089
  45  6717.463
  46  6758.609
  47  6668.156
  48  6696.958
  49  6914.911
  50  7021.14
  51  6880.336
  52  7089.589
  53  7364.734
  54  7265.619
  55  7223.417
  56  7197.857
  57  7368.555
  58  7584.023
  59  7426.914
  60  7383.071
  61  7359.413
  62  7191.764
  63  6880.255
  64  7204.41
  65  7547.753
  66  7401.747
  67  7340.864
  68  7069.107
  69  6817.41
  70  6870.042
  71  6950.741
  72  6894.35
  73  6735.985
  74  6648.732
  75  6495.355
  76  6727.083
  77  7218.35
  78  6982.068
  79  6809.126
  80  6862.745
  81  6705.062
  82  6764.552
  83  6426.07
  84  6540.204
  85  6118.281
  86  5923.835
  87  6433.49
  88  6312.016
  89  6247.318
  90  6395.779
  91  6399.476
  92  6459.591
  93  6708.054
  94  6811.744
  95  6572.939
  96  6230.067
  97  6304.284
  98  6652.733
  99  6467.441
 100  6548.178
 101  6661.934
 102  6272.431
 103  6234.862
 104  6402.297
 105  6267.513
 106  6550.427
 107  6582.423
 108  6642.148
 109  6568.47
 110  7205.649
 111  7226.661
 112  6950.213
 113  7322.145
 114  7482.696
 115  7198.997
 116  7481.182
 117  7305.586
 118  7051.005
 119  7178.648
 120  7552.731
 121  7703.152
 122  7745.178
 123  7707.55
 124  7367.921
 125  7239
 126  7447.496
 127  7348.58
 128  7240.614
 129  7073.998
 130  6932.091
 131  6917.039
 132  7090.773
 133  7140.519
 134  7181.522
 135  7087.463
 136  6458.326
 137  6830.735
 138  6964.23
 139  6970.05
 140  6936.382
 141  6756.917
 142  7190.043
 143  7405.051
 144  7494.207
 145  7480.153
 146  7349.833
 147  7239.609
 148  7001.676
 149  7052.549
 150  7217.081
 151  7176.709
 152  6913.729
 153  7146.748
 154  6947.044
 155  6854.761
 156  7086.357
 157  7199.553
 158  7115.227
 159  7087.242
 160  7111.431
 161  6896.561
 162  6968.385
 163  7205.869
 164  6964.121
 165  7196.907
 166  7452.545
 167  7507.747
 168  7386.842
 169  6789.271
 170  7048.63
 171  7236.023
 172  7307.12
 173  7409.562
 174  7349.547
 175  7510.098
 176  7736.73
 177  7445.911
 178  7596.712
 179  7363.532
 180  7288.48
 181  7041.498
 182  7028.133
 183  7647.759
 184  7561.097
 185  7640.808
 186  7619.208
 187  7142.418
 188  7393.112
 189  7751.036
 190  7927.529
 191  7659.104
 192  7424.601
 193  7552.44
 194  7410.815
 195  7808.333
 196  7473.034
 197  7383.277
 198  7366.553
 199  7459.632
 200  7298.602
 201  7106.367
 202  6904.586
 203  7054.645
 204  7087.38
 205  7384.02
 206  7602.766
 207  7698.542
 208  7995.708
 209  8053.176
 210  7430.814
 211  7302.312
 212  7083.354
 213  6640.403
 214  6630.884
 215  7016.816
 216  6972.473
 217  6413.287
 218  6369.597
 219  6436.69
 220  6669.846
 221  6549.704
 222  6619.16
 223  6536.637
 224  6234.369
 225  6369.128
 226  6507.849
 227  6746.696
 228  6462.107
 229  6642.604
 230  6595.923
 231  6845.124
 232  7160.9
 233  6840.901
 234  6763.843
 235  6764.803
 236  6456.349
 237  6538.168
 238  6693.161
 239  6720.929
 240  6638.755
 241  6529.033
 242  6808.647
 243  7087.132
 244  7062.37
 245  6969.208
 246  6781.705
 247  6699.431
 248  6555.175
 249  6505.647
 250  6983.338
 251  6916.884
 252  7096.045
 253  7021.715
 254  6515.603
 255  6567.993
 256  6425.878
 257  6678.549
 258  7016.374
 259  7011.161
 260  6892.85
 261  6772.064
 262  6940.062
 263  7297.12
 264  7485.283
 265  7350.769
 266  7122.273
 267  7445.048
 268  7544.898
 269  7337.064
 270  6889.028
 271  6894.271
 272  7489.759
 273  7353.408
 274  7299.145
 275  7561.373
 276  7951.675
 277  7998.847
 278  7668.575
 279  7598.705
 280  7650.48
 281  7586.334
 282  7825.47
 283  7668.972
 284  7213.705
 285  6919.652
 286  6907.614
 287  7066.025
 288  6838.848
 289  6988.201
 290  7064.288
 291  7037.804
 292  7096.73
 293  6687.789
 294  6632.439
 295  6733.079
 296  7231.846
 297  7224.115
 298  7204.205
 299  7525.288
 300  7392.972
 301  7124.635
 302  7118.515
 303  6817.35
 304  7047.094
 305  7110.136
 306  7147.979
 307  6989.167
 308  7195.17
 309  7173.216
 310  6888.786
 311  6780.958
 312  7051.618
 313  6927.446
 314  6703.035
 315  6920.005
 316  6711.415
 317  6682.734
 318  6869.536
 319  6886.927
 320  7012.698
 321  7415.675
 322  7074.227
 323  7115.594
 324  6931.57
 325  7289.766
 326  6919.878
 327  6815.552
 328  6960.7
 329  7068.078
 330  6826.827
 331  6795.127
 332  7163.406
 333  7059.149
 334  7351.96
 335  7353.571
 336  6989.754
 337  6804.139
 338  6959.314
 339  7100.021
 340  7187.44
 341  7104.553
 342  7062.025
 343  6971.946
 344  6912.431
 345  6744.088
 346  6689.186
 347  6888.992
 348  7021.989
 349  7419.04
 350  7205.719
 351  7609.496
 352  7651.477
 353  7488.802
 354  7407.525
 355  7515.553
 356  7604.625
 357  7505.565
 358  7404.34
 359  7510.609
 360  7722.44
 361  7428.033
 362  6681.882
 363  6571.761
 364  6798.831
 365  6636.997
 366  6830.167
 367  7271.7
 368  7417.326
 369  6969.278
 370  6759.007
 371  6630.744
 372  6585.311
 373  6895.282
 374  6904.276
 375  6625.295
 376  6879.292
 377  6964.316
 378  6996.236
 379  6837.061
 380  6866.716
 381  6717.445
 382  6791.671
 383  7081.974
 384  6730.191
 385  6529.545
 386  6602.867
 387  6455.848
 388  6166.242
 389  6526.919
 390  6368.149
 391  6480.28
 392  6567.548
 393  6740.261
 394  7050.96
 395  6993.14
 396  6776.295
 397  6601.604
 398  6889.168
 399  7111.489
 400  7399.02
 401  7039.833
 402  7025.694
 403  7376.325
 404  7427.307
 405  7114.614
 406  6921.153
 407  6846.255
 408  7351.49
 409  7339.247
 410  7360.57
 411  7434.54
 412  7533.627
 413  7769.853
 414  7765.934
 415  8330.317
 416  8746.056
 417  9082.467
 418  8976.279
 419  8672.687
 420  8058.534
 421  7716.206
 422  7411.694
 423  7210.968
 424  7346.96
 425  7348.302
 426  7178.536
 427  7212.685
 428  7632.793
 429  7727.834
 430  7664.342
 431  7622.264
 432  7112.888
 433  7363.076
 434  7535.698
 435  7673.147
 436  7770.873
 437  7541.472
 438  7140.773
 439  7385.005
 440  7438.794
 441  7275.729
 442  7133.108
 443  7311.364
 444  7440.041
 445  7174.818
 446  7439.365
 447  7636.44
 448  7600.978
 449  7624.071
 450  7783.44
 451  7935.849
 452  8147.339
 453  8158.42
 454  8147.33
 455  8270.595
 456  8240.115
 457  8382.274
 458  8521.324
 459  8537.982
 460  8383.087
 461  8467.099
 462  8119.725
 463  8364.089
 464  8774.702
 465  8784.065
 466  8263.59
 467  8283.806
 468  8568.628
 469  8274.568
 470  8099.673
 471  7930.449
 472  8188.272
 473  8016.188
 474  7799.55
 475  7963.779
 476  8105.634
 477  7853.552
 478  7467.254
 479  7357.112
 480  7513.365
 481  7589.258
 482  7497.617
 483  7247.163
 484  7387.964
 485  7319.381
 486  7078.876
 487  7121.01
 488  7027.99
 489  6763.808
 490  6669.284
 491  6625.245
 492  6614.195
 493  6677.739
 494  6378.96
 495  6251.828
 496  6380.462
 497  6464.721
 498  6669.445
 499  6260.747
 500  6251.956
 501  6456.998
 502  6656.334
 503  6802.89
 504  7107.836
 505  7073.423
 506  6830.434
 507  6817.135
 508  6982.79
 509  6850.703
 510  6755.035
 511  6958.471
