# Input file       =  1204549517.10465_cleaned.dat
# Candidate        =  PSR_0332+5434
# Telescope        =  AR
# Epoch_topo       =  58185.545556766781
# Epoch_bary       =  N/A
# T_sample         =  0.002
# Data Folded      =  7340032
# Data Avg         =  0.0511882017678685
# Data StdDev      =  1.00030339486315 
# Profile Bins     =  512
# Profile Avg      =  733.899291173048 
# Profile StdDev   =  119.769362764952 
# Reduced chi-sqr  =  1.049
# Prob(Noise)      <  0.216   (~0.8 sigma)
# P_topo (ms)      =  714.579367240103  +/- 0.000287
# P'_topo (s/s)    =  -0                +/- 1.51e-10
# P''_topo (s/s^2) =  0                 +/- 6.69e-14
# P_bary (ms)      =  N/A
# P'_bary (s/s)    =  N/A
# P''_bary (s/s^2) =  N/A
# P_orb (s)        =  N/A
# asin(i)/c (s)    =  N/A
# eccentricity     =  N/A
# w (rad)          =  N/A
# T_peri           =  N/A
######################################################
   0  666.0916
   1  672.6049
   2  692.9995
   3  656.4639
   4  706.2061
   5  672.3377
   6  653.6394
   7  634.7913
   8  647.426
   9  646.0062
  10  560.5015
  11  644.7946
  12  672.2691
  13  751.3116
  14  747.3199
  15  703.162
  16  695.878
  17  703.5363
  18  748.8831
  19  736.3182
  20  791.0703
  21  823.2167
  22  854.5167
  23  868.6116
  24  875.3068
  25  847.8207
  26  829.5069
  27  781.0187
  28  828.5768
  29  872.1176
  30  871.9001
  31  821.7881
  32  907.8482
  33  892.6111
  34  781.5092
  35  707.4601
  36  778.2465
  37  749.7924
  38  798.0011
  39  766.6472
  40  796.7566
  41  807.0915
  42  699.4905
  43  642.4719
  44  736.2055
  45  791.4487
  46  735.1198
  47  725.2242
  48  675.1337
  49  657.392
  50  674.6549
  51  680.84
  52  767.2686
  53  791.6515
  54  859.7145
  55  738.0175
  56  724.7824
  57  888.3096
  58  1002.989
  59  837.5322
  60  771.0036
  61  770.2791
  62  776.65
  63  830.7418
  64  812.1572
  65  806.3841
  66  769.7419
  67  771.1163
  68  724.1339
  69  706.2523
  70  748.7465
  71  730.0564
  72  784.3472
  73  692.4542
  74  740.3798
  75  762.6643
  76  669.1061
  77  636.3097
  78  688.6705
  79  734.4969
  80  742.1445
  81  682.8907
  82  685.0775
  83  800.5374
  84  789.3084
  85  747.7048
  86  766.6254
  87  776.9165
  88  722.2852
  89  737.4341
  90  773.2817
  91  818.6019
  92  765.0699
  93  744.5961
  94  744.5697
  95  805.6608
  96  814.9499
  97  768.8785
  98  805.789
  99  783.1319
 100  763.8795
 101  711.4031
 102  791.9272
 103  880.1688
 104  890.9834
 105  859.6536
 106  806.4299
 107  756.4277
 108  770.4071
 109  736.6887
 110  696.5808
 111  623.4329
 112  640.7899
 113  747.0219
 114  770.6636
 115  765.6761
 116  735.149
 117  709.2504
 118  678.7485
 119  681.8186
 120  736.994
 121  687.9465
 122  648.253
 123  675.1794
 124  639.3709
 125  630.6538
 126  660.2537
 127  707.6892
 128  743.7623
 129  723.8416
 130  770.1572
 131  843.9619
 132  855.6
 133  786.4162
 134  875.6735
 135  882.9006
 136  850.1274
 137  781.3395
 138  714.819
 139  771.4858
 140  829.3046
 141  780.0259
 142  685.3958
 143  740.0014
 144  798.1031
 145  739.2322
 146  784.4066
 147  835.7108
 148  773.3397
 149  790.2515
 150  784.2646
 151  707.4691
 152  667.9839
 153  685.5845
 154  775.1968
 155  727.1013
 156  741.9299
 157  815.967
 158  773.1779
 159  730.8201
 160  753.9307
 161  831.6212
 162  753.5323
 163  766.8226
 164  801.5229
 165  850.4766
 166  857.8501
 167  832.5014
 168  787.5707
 169  850.3788
 170  821.8898
 171  915.7975
 172  900.1813
 173  821.457
 174  821.5171
 175  877.0027
 176  870.9502
 177  842.1998
 178  787.7367
 179  831.0351
 180  841.701
 181  836.8717
 182  784.265
 183  872.7361
 184  838.4493
 185  808.1889
 186  767.1568
 187  704.8781
 188  711.6226
 189  656.1605
 190  625.0926
 191  734.6863
 192  759.4764
 193  798.056
 194  645.4324
 195  632.1175
 196  644.8248
 197  643.4612
 198  641.4465
 199  675.9753
 200  721.972
 201  734.7161
 202  727.0352
 203  752.0936
 204  845.7921
 205  804.7831
 206  775.5098
 207  805.6883
 208  865.1093
 209  911.1873
 210  1068.485
 211  1117.139
 212  1153.578
 213  1165.561
 214  1137.856
 215  1010.53
 216  795.3332
 217  772.5253
 218  713.4669
 219  712.9265
 220  724.9245
 221  729.5508
 222  722.3318
 223  774.0133
 224  654.8472
 225  711.5924
 226  696.1489
 227  694.1202
 228  722.8821
 229  766.3857
 230  766.5349
 231  689.7461
 232  667.1086
 233  675.8039
 234  700.5875
 235  711.6185
 236  798.2657
 237  823.3563
 238  852.7383
 239  854.2881
 240  857.7675
 241  852.7306
 242  724.8689
 243  820.7206
 244  807.4473
 245  779.186
 246  878.4717
 247  855.8286
 248  764.3347
 249  765.6181
 250  669.1116
 251  768.6205
 252  753.908
 253  708.7531
 254  798.9633
 255  803.1269
 256  748.9061
 257  695.9245
 258  728.1146
 259  801.1896
 260  759.9243
 261  716.8138
 262  737.1114
 263  762.9731
 264  760.2786
 265  731.9069
 266  659.2091
 267  663.6127
 268  752.713
 269  849.34
 270  759.1009
 271  743.165
 272  644.6714
 273  622.0869
 274  681.5118
 275  716.4445
 276  621.1581
 277  604.5331
 278  704.6063
 279  721.5495
 280  705.9742
 281  758.6445
 282  735.5472
 283  674.2554
 284  586.3717
 285  581.1549
 286  610.5588
 287  646.412
 288  624.5898
 289  643.2564
 290  664.1237
 291  614.3211
 292  607.1534
 293  627.1011
 294  687.3969
 295  645.4905
 296  638.7065
 297  675.1974
 298  662.9984
 299  666.6273
 300  607.2403
 301  581.4433
 302  635.4853
 303  645.8094
 304  626.8586
 305  564.1118
 306  606.8086
 307  592.6436
 308  612.7459
 309  642.6552
 310  666.2234
 311  678.1334
 312  695.025
 313  648.0435
 314  620.5107
 315  597.3475
 316  740.6442
 317  673.2471
 318  571.6736
 319  626.1693
 320  619.6376
 321  682.8009
 322  659.173
 323  648.9077
 324  636.9612
 325  718.3525
 326  615.2238
 327  638.3494
 328  661.3414
 329  691.3665
 330  678.0893
 331  633.976
 332  605.6998
 333  729.8132
 334  714.0627
 335  661.871
 336  633.9784
 337  572.8632
 338  600.6194
 339  658.9179
 340  619.2682
 341  604.6384
 342  592.0585
 343  649.7817
 344  683.2181
 345  681.5138
 346  642.1562
 347  569.2081
 348  567.5027
 349  639.6248
 350  642.2675
 351  652.5285
 352  701.7687
 353  740.279
 354  703.2292
 355  758.1241
 356  732.3531
 357  714.1627
 358  590.6386
 359  549.675
 360  578.6126
 361  564.4509
 362  551.8604
 363  689.2178
 364  758.9605
 365  694.9877
 366  651.4396
 367  610.3284
 368  577.9937
 369  530.3961
 370  633.9938
 371  769.2614
 372  774.8278
 373  655.6871
 374  658.9152
 375  732.4953
 376  781.4086
 377  825.0834
 378  732.4172
 379  716.5928
 380  681.3099
 381  804.5463
 382  779.5247
 383  690.8063
 384  723.6669
 385  688.0251
 386  740.3504
 387  751.6486
 388  757.298
 389  698.1033
 390  677.8279
 391  697.3154
 392  660.8923
 393  701.4185
 394  711.7283
 395  728.0558
 396  736.7249
 397  762.882
 398  699.3112
 399  670.7155
 400  671.0704
 401  739.4328
 402  729.7802
 403  765.7312
 404  752.4625
 405  800.3112
 406  781.6
 407  722.9963
 408  701.5541
 409  735.3432
 410  650.1597
 411  687.0883
 412  743.5219
 413  721.23
 414  817.8102
 415  725.5328
 416  751.2038
 417  766.0992
 418  744.6315
 419  780.9057
 420  853.9052
 421  823.1505
 422  728.9772
 423  799.8659
 424  805.0726
 425  889.1558
 426  845.1146
 427  844.1807
 428  798.4429
 429  831.1669
 430  851.0182
 431  826.6882
 432  883.652
 433  889.9405
 434  843.1006
 435  786.625
 436  740.1421
 437  812.4866
 438  760.7189
 439  748.6137
 440  711.431
 441  749.1258
 442  773.1267
 443  819.3199
 444  814.0816
 445  701.3399
 446  643.3409
 447  671.2975
 448  749.809
 449  775.8516
 450  664.2914
 451  644.1697
 452  737.8034
 453  741.7471
 454  753.6943
 455  784.5405
 456  723.3656
 457  729.0728
 458  711.1188
 459  702.2748
 460  753.8558
 461  751.5798
 462  782.0161
 463  728.1676
 464  715.1146
 465  762.6758
 466  788.3695
 467  809.9466
 468  843.9478
 469  817.5464
 470  813.7431
 471  787.9655
 472  813.1911
 473  824.5409
 474  775.2283
 475  722.1299
 476  702.1787
 477  600.7947
 478  571.7887
 479  628.2029
 480  688.9581
 481  695.6868
 482  673.2171
 483  614.1204
 484  630.2097
 485  569.3865
 486  560.8632
 487  623.8223
 488  644.8453
 489  609.3735
 490  500.1213
 491  596.0444
 492  598.8846
 493  635.4186
 494  665.6008
 495  713.6035
 496  718.4622
 497  716.387
 498  675.9454
 499  697.8928
 500  616.83
 501  699.7515
 502  741.6631
 503  768.3293
 504  740.5112
 505  773.3163
 506  736.5788
 507  698.8175
 508  684.0504
 509  740.623
 510  697.989
 511  663.9299
