# Input file       =  1204448258.101844_cleaned.dat
# Candidate        =  PSR_0332+5434
# Telescope        =  AR
# Epoch_topo       =  58184.373577567640
# Epoch_bary       =  N/A
# T_sample         =  0.002
# Data Folded      =  7143424
# Data Avg         =  0.201505300598517
# Data StdDev      =  6.73169602975892 
# Profile Bins     =  1024
# Profile Avg      =  1405.76225911691 
# Profile StdDev   =  562.247759003995 
# Reduced chi-sqr  =  4.212
# Prob(Noise)      <  0   (~0.0 sigma)
# P_topo (ms)      =  714.579587722926  +/- 1.47e-05
# P'_topo (s/s)    =  -0                +/- 7.95e-12
# P''_topo (s/s^2) =  0                 +/- 3.6e-15
# P_bary (ms)      =  N/A
# P'_bary (s/s)    =  N/A
# P''_bary (s/s^2) =  N/A
# P_orb (s)        =  N/A
# asin(i)/c (s)    =  N/A
# eccentricity     =  N/A
# w (rad)          =  N/A
# T_peri           =  N/A
######################################################
   0  891.1855
   1  1017.576
   2  1120.088
   3  1243.88
   4  1284.493
   5  1405.565
   6  1411.562
   7  1568.802
   8  1580.766
   9  1582.892
  10  1290.36
  11  1023.274
  12  720.3088
  13  683.1219
  14  446.7136
  15  339.5302
  16  473.8849
  17  737.1341
  18  1041.016
  19  1343.892
  20  1834.619
  21  2358.241
  22  2492.889
  23  2699.53
  24  2743.255
  25  2760.485
  26  2633.653
  27  2427.229
  28  2123.409
  29  1685.209
  30  1493.772
  31  1390.294
  32  1231.231
  33  860.9315
  34  626.3631
  35  649.1205
  36  865.7047
  37  1008.204
  38  1320.03
  39  1396.28
  40  1423.359
  41  1539.149
  42  1542.713
  43  1647.332
  44  1356.817
  45  988.9919
  46  787.0309
  47  687.6475
  48  591.3743
  49  454.6086
  50  527.2267
  51  851.7725
  52  1089.581
  53  1423.382
  54  1776.496
  55  2246.595
  56  2636.037
  57  2707.04
  58  2739.19
  59  2584.869
  60  2389.974
  61  2003.283
  62  1558.71
  63  1207.308
  64  1006.045
  65  921.3631
  66  790.5579
  67  864.8842
  68  1055.423
  69  1226.634
  70  1414.816
  71  1468.017
  72  1345.835
  73  1274.374
  74  1137.751
  75  1304.204
  76  1196.011
  77  898.5504
  78  631.5607
  79  516.7186
  80  602.8618
  81  603.0552
  82  774.8695
  83  954.2982
  84  1123.59
  85  1443.391
  86  1972.494
  87  2254.988
  88  2511.044
  89  2546.512
  90  2699.815
  91  2518.613
  92  2243.498
  93  1979.23
  94  1645.464
  95  1593.026
  96  1430.334
  97  1315.56
  98  1120.07
  99  1062.751
 100  1103.948
 101  1036.573
 102  1060.498
 103  1269.509
 104  1314.297
 105  1419.671
 106  1374.913
 107  1446.083
 108  1376.623
 109  1232.553
 110  1070.42
 111  923.0031
 112  679.9672
 113  514.8182
 114  472.9142
 115  814.1147
 116  955.1987
 117  1039.589
 118  1318.534
 119  1830.947
 120  2254.836
 121  2473.291
 122  2507.737
 123  2729.798
 124  2624.653
 125  2290.105
 126  1971.567
 127  1713.126
 128  1570.232
 129  1373.376
 130  1338.676
 131  1260.121
 132  1180.282
 133  1250.545
 134  1337.215
 135  1397.473
 136  1497.65
 137  1516.006
 138  1496.005
 139  1361.564
 140  1257.657
 141  1051.865
 142  917.0659
 143  976.1321
 144  803.3135
 145  647.8607
 146  446.4054
 147  504.4489
 148  737.1202
 149  929.6223
 150  1301.342
 151  1609.237
 152  1832.294
 153  2094.343
 154  2285.21
 155  2607.353
 156  2696.424
 157  2570.895
 158  2441.448
 159  2264.364
 160  2044.39
 161  1636.365
 162  1143.663
 163  952.0654
 164  910.1744
 165  1011.605
 166  963.2382
 167  998.8694
 168  1150.938
 169  1178.124
 170  1234.068
 171  1461.432
 172  1461.319
 173  1464.81
 174  1358.724
 175  1438.958
 176  1201.661
 177  729.6581
 178  422.7549
 179  415.6148
 180  335.5496
 181  238.9305
 182  405.2379
 183  906.5457
 184  1336.658
 185  1608.409
 186  2052.741
 187  2391.005
 188  2835.533
 189  2912.203
 190  2829.115
 191  2618.733
 192  2386.363
 193  2172.576
 194  1651.282
 195  1233.85
 196  993.1353
 197  795.923
 198  750.8841
 199  775.0295
 200  890.5687
 201  959.3226
 202  929.4193
 203  1086.06
 204  1278.264
 205  1346.82
 206  1460.293
 207  1474.041
 208  1398.82
 209  1225.057
 210  985.0505
 211  867.8894
 212  585.0739
 213  399.7913
 214  419.0425
 215  510.9871
 216  838.8068
 217  1157.465
 218  1632.316
 219  2052.538
 220  2208.146
 221  2519.78
 222  2680.269
 223  2803.161
 224  2645.184
 225  2372.504
 226  2044.111
 227  1479.078
 228  1097.574
 229  847.8901
 230  916.98
 231  899.4158
 232  975.79
 233  934.4686
 234  1134.033
 235  1220.934
 236  1394.214
 237  1239.215
 238  1374.161
 239  1481.953
 240  1449.354
 241  1331.732
 242  1112.893
 243  986.8088
 244  701.6713
 245  390.0577
 246  316.6389
 247  468.5125
 248  763.1338
 249  1186.858
 250  1482.487
 251  1805.671
 252  2189.121
 253  2546.322
 254  2737.862
 255  2696.775
 256  2593.178
 257  2493.008
 258  2302.728
 259  2115.274
 260  1841.167
 261  1482.157
 262  1215.451
 263  1153.218
 264  1092.589
 265  993.373
 266  1110.799
 267  1256.506
 268  1351.208
 269  1300.431
 270  1269.398
 271  1396.423
 272  1429.748
 273  1297.536
 274  1208.454
 275  1045.771
 276  968.4417
 277  700.8838
 278  516.0185
 279  356.7287
 280  488.5204
 281  788.6967
 282  1217.666
 283  1441.369
 284  1733.358
 285  1843.382
 286  2298.678
 287  2399.799
 288  2568.567
 289  2466.047
 290  2440.169
 291  2209.743
 292  1893.062
 293  1593.244
 294  1368.099
 295  1093.181
 296  926.6644
 297  965.8888
 298  1125.869
 299  1289.768
 300  1338.335
 301  1372.022
 302  1192.927
 303  1304.285
 304  1444.736
 305  1396.445
 306  1266.239
 307  1133.647
 308  1118.535
 309  956.8618
 310  609.4912
 311  435.5624
 312  293.1316
 313  461.9927
 314  663.669
 315  1029.417
 316  1365.747
 317  1705.422
 318  2063.972
 319  2294.056
 320  2392.561
 321  2538.748
 322  2591.576
 323  2472.764
 324  2150.665
 325  1902.219
 326  1748.845
 327  1575.045
 328  1324.137
 329  1089.425
 330  971.4443
 331  1050.315
 332  1027.146
 333  1079.723
 334  1175.924
 335  1197.672
 336  1439.974
 337  1341.047
 338  1413.533
 339  1388.215
 340  1416.996
 341  1422.031
 342  1167.072
 343  765.2413
 344  459.1758
 345  345.3494
 346  601.9202
 347  873.6179
 348  1195.047
 349  1481.929
 350  1721.87
 351  2100.866
 352  2361.987
 353  2613.862
 354  2791.583
 355  2772.389
 356  2766.166
 357  2551.812
 358  2361.708
 359  2072.452
 360  1759.477
 361  1432.156
 362  1003.869
 363  940.6097
 364  947.8704
 365  1127.432
 366  1215.55
 367  1326.351
 368  1425.445
 369  1545.399
 370  1542.426
 371  1661.794
 372  1680.009
 373  1548.84
 374  1183.279
 375  641.5145
 376  567.0911
 377  507.2731
 378  535.3685
 379  564.2379
 380  829.5898
 381  1269.665
 382  1696.957
 383  2078.877
 384  2259.657
 385  2294.973
 386  2546.608
 387  2689.22
 388  2840.269
 389  2705.167
 390  2435.101
 391  1916.045
 392  1508.088
 393  1414.054
 394  1363.448
 395  1270.952
 396  1309.446
 397  1300.569
 398  1245.805
 399  1079.771
 400  1157.954
 401  1469.081
 402  1512.606
 403  1520.868
 404  1551.234
 405  1464.77
 406  1361.32
 407  1139.938
 408  886.7681
 409  705.92
 410  672.2605
 411  851.9324
 412  996.1178
 413  1118.981
 414  1196.814
 415  1359.612
 416  1686.476
 417  2091.182
 418  2398.288
 419  2767.602
 420  2733.831
 421  2677.053
 422  2432.541
 423  2360.582
 424  2171.248
 425  1946.706
 426  1673.982
 427  1328.066
 428  1205.438
 429  1096.979
 430  1204.726
 431  1218.707
 432  1313.166
 433  1414.294
 434  1511.972
 435  1507.268
 436  1569.033
 437  1501.519
 438  1384.634
 439  1191.843
 440  1015.161
 441  843.7619
 442  611.5775
 443  373.2326
 444  469.7553
 445  597.9871
 446  1046.412
 447  1381.177
 448  1794.839
 449  1927.05
 450  1901.191
 451  2100.976
 452  2362.847
 453  2662.574
 454  2709.279
 455  2555.135
 456  2342.683
 457  1988.439
 458  1673.318
 459  1296.382
 460  1137.294
 461  1023.637
 462  857.1246
 463  938.8127
 464  1014.331
 465  1294.874
 466  1279.418
 467  1256.623
 468  1122.089
 469  1236.433
 470  1124.647
 471  1068.448
 472  952.1107
 473  954.0582
 474  932.887
 475  732.774
 476  545.4691
 477  401.528
 478  416.6987
 479  668.3257
 480  1008.044
 481  1347.713
 482  1635.436
 483  1842.903
 484  2285.698
 485  2428.917
 486  2718.948
 487  2627.466
 488  2502.04
 489  2143.209
 490  1837.173
 491  1600.874
 492  1303.305
 493  1164.274
 494  1155.463
 495  1123.139
 496  1100.601
 497  1068.241
 498  1169.821
 499  1194.147
 500  1174.627
 501  1286.885
 502  1365.963
 503  1416.92
 504  1378.659
 505  1281.752
 506  1065.223
 507  839.4589
 508  686.3732
 509  609.6986
 510  399.1106
 511  360.3556
 512  481.9435
 513  834.1913
 514  1229.828
 515  1723.793
 516  2051.446
 517  2158.275
 518  2399.329
 519  2811.063
 520  2962.453
 521  2958.519
 522  2535.729
 523  2322.426
 524  1832.983
 525  1599.887
 526  1218.522
 527  988.2053
 528  823.7065
 529  787.7737
 530  865.284
 531  896.3936
 532  905.2057
 533  984.8014
 534  1316.862
 535  1392.672
 536  1643.324
 537  1560.448
 538  1477.006
 539  1203.488
 540  950.326
 541  702.5527
 542  372.3903
 543  284.8183
 544  296.3746
 545  545.0522
 546  816.5319
 547  1094.995
 548  1458.004
 549  1817.131
 550  2144.463
 551  2442.185
 552  2631.66
 553  2604.6
 554  2455.86
 555  2086.401
 556  1815.462
 557  1446.918
 558  1242.039
 559  1133.594
 560  1188.889
 561  1285.108
 562  1165.501
 563  1049.69
 564  1005.827
 565  1223.381
 566  1396.968
 567  1559.836
 568  1459.208
 569  1401.46
 570  1294.782
 571  1157.119
 572  902.1068
 573  591.3041
 574  572.5275
 575  616.8663
 576  612.5847
 577  471.7439
 578  577.6949
 579  1019.183
 580  1419.65
 581  1711.951
 582  1781.192
 583  1917.548
 584  2178.438
 585  2349.44
 586  2403.119
 587  2190.643
 588  2031.068
 589  1831.32
 590  1771.155
 591  1695.641
 592  1430.009
 593  1183.745
 594  1073.986
 595  1121.843
 596  1121.549
 597  1018.698
 598  1112.78
 599  1311.748
 600  1342.711
 601  1280.99
 602  1259.426
 603  1312.456
 604  1589.462
 605  1509.697
 606  1379.384
 607  1274.588
 608  1290.036
 609  1230.19
 610  1180.105
 611  1237.866
 612  1490.385
 613  1651.129
 614  1830.598
 615  2001.266
 616  2090.879
 617  2294.134
 618  2323.042
 619  2562.569
 620  2441.589
 621  2368.82
 622  1928.634
 623  1670.193
 624  1381.773
 625  1291.779
 626  1126.174
 627  1005.816
 628  942.9286
 629  1017.451
 630  1096.995
 631  1185.944
 632  1319.767
 633  1304.818
 634  1582.382
 635  1591.551
 636  1471.075
 637  1085.079
 638  835.7421
 639  806.7574
 640  679.1247
 641  517.2632
 642  484.2801
 643  531.1592
 644  677.0576
 645  968.4386
 646  1303.547
 647  1400.895
 648  1800.383
 649  2355
 650  2721.434
 651  2783.779
 652  2819.715
 653  2726.753
 654  2510.532
 655  2014.504
 656  1737.293
 657  1197.016
 658  1018.073
 659  917.3718
 660  1054.852
 661  1064.462
 662  937.7265
 663  972.6464
 664  1230.287
 665  1379.309
 666  1562.355
 667  1621.126
 668  1666.203
 669  1669.789
 670  1379.297
 671  1194.658
 672  960.5313
 673  681.0936
 674  427.4496
 675  244.7281
 676  399.7978
 677  513.8306
 678  806.7015
 679  1136.105
 680  1490.851
 681  1835.843
 682  2166.427
 683  2381.039
 684  2673.552
 685  2800.3
 686  2675.993
 687  2304.931
 688  2120.545
 689  1784.309
 690  1374.885
 691  1096.028
 692  914.8561
 693  1018.758
 694  1020.279
 695  1047.83
 696  1019.044
 697  1083.016
 698  1235.393
 699  1554.597
 700  1514.494
 701  1422.067
 702  1245.383
 703  1107.666
 704  976.019
 705  832.0328
 706  789.4571
 707  733.4055
 708  601.6505
 709  627.3815
 710  773.612
 711  925.4761
 712  1069.173
 713  1381.802
 714  1840.208
 715  2088.56
 716  2324.545
 717  2542.46
 718  2548.882
 719  2434.122
 720  2217.398
 721  2104.452
 722  1849.581
 723  1525.981
 724  1251.968
 725  952.5083
 726  934.71
 727  928.8469
 728  1018.242
 729  1097.527
 730  1044.9
 731  1179.233
 732  1239.424
 733  1336.155
 734  1218.863
 735  1125.823
 736  1039.838
 737  898.259
 738  686.6257
 739  512.8273
 740  411.5279
 741  369.817
 742  494.973
 743  757.4451
 744  862.2344
 745  993.6319
 746  1310.981
 747  1835.797
 748  2157.448
 749  2220.513
 750  2446.016
 751  2599.754
 752  2752.009
 753  2427.782
 754  2102.316
 755  1641.922
 756  1367.859
 757  1078.947
 758  1059.887
 759  970.03
 760  910.0908
 761  833.2662
 762  846.7524
 763  878.6828
 764  993.6331
 765  1107.797
 766  1280.97
 767  1391.375
 768  1269.406
 769  1180.935
 770  1037.241
 771  874.6906
 772  783.7492
 773  544.2352
 774  503.4537
 775  551.4895
 776  814.5814
 777  926.9579
 778  1033.022
 779  1363.946
 780  1573.07
 781  1974.855
 782  2334.651
 783  2666.144
 784  2664.512
 785  2411.153
 786  2144.992
 787  1826.493
 788  1618.17
 789  1423.276
 790  1236.619
 791  1024.218
 792  903.5423
 793  962.0417
 794  1190.848
 795  1187.706
 796  1382.77
 797  1526.945
 798  1655.706
 799  1524.615
 800  1483.497
 801  1529.125
 802  1480.825
 803  981.4895
 804  590.1361
 805  266.9407
 806  357.7797
 807  326.2307
 808  532.2426
 809  739.3757
 810  977.3784
 811  1316.478
 812  1832.8
 813  2033.994
 814  2260.502
 815  2306.596
 816  2702.035
 817  2729.152
 818  2551.816
 819  2049.708
 820  1544.234
 821  1393.49
 822  1181.903
 823  1060.508
 824  767.5405
 825  644.6412
 826  782.8502
 827  909.3962
 828  1088.168
 829  1278.99
 830  1479.18
 831  1758.849
 832  1791.704
 833  1723.472
 834  1512.342
 835  1344.897
 836  1098.546
 837  932.1721
 838  644.5716
 839  569.7386
 840  367.0665
 841  538.9238
 842  659.724
 843  1044.693
 844  1395.843
 845  1636.859
 846  1943.446
 847  2329.135
 848  2584.727
 849  2785.577
 850  2680.819
 851  2490.048
 852  2242.674
 853  1983.218
 854  1792.891
 855  1321.151
 856  1159.911
 857  878.6838
 858  865.0025
 859  834.3382
 860  884.7487
 861  1068.282
 862  1141.098
 863  1091.223
 864  1030.478
 865  1218.232
 866  1463.229
 867  1629.917
 868  1565.619
 869  1374.642
 870  1030.28
 871  688.939
 872  435.6922
 873  223.7791
 874  198.5031
 875  332.4324
 876  684.2365
 877  1128.57
 878  1348.001
 879  1548.542
 880  1755.069
 881  2173.587
 882  2434.447
 883  2658.626
 884  2652.838
 885  2510.152
 886  2099.307
 887  1896.459
 888  1574.588
 889  1326.418
 890  1077.628
 891  885.5538
 892  878.2695
 893  721.3113
 894  908.6697
 895  1009.728
 896  1175.283
 897  1265.017
 898  1278.713
 899  1464.747
 900  1516.873
 901  1369.201
 902  1262.414
 903  1046.435
 904  899.1732
 905  675.461
 906  476.0146
 907  354.6155
 908  430.1023
 909  621.4353
 910  906.7034
 911  1182.233
 912  1580.396
 913  1840.754
 914  2110.647
 915  2379.826
 916  2575.714
 917  2779.833
 918  2685.502
 919  2516.008
 920  2039.069
 921  1604.642
 922  1463.297
 923  1267.019
 924  1140.763
 925  779.3564
 926  785.4871
 927  806.5043
 928  854.6782
 929  913.8499
 930  967.6809
 931  1066.998
 932  1111.107
 933  1067.372
 934  951.46
 935  1063.885
 936  1022.73
 937  959.2477
 938  673.4207
 939  463.3351
 940  478.8781
 941  623.2154
 942  1014.647
 943  1074.8
 944  1372.291
 945  1643.427
 946  2138.617
 947  2378.59
 948  2578.061
 949  2645.762
 950  2478.835
 951  2171.929
 952  1942.874
 953  1598.155
 954  1359.954
 955  959.308
 956  759.6597
 957  604.4031
 958  718.6534
 959  1070.402
 960  1182.504
 961  1233.241
 962  1250.05
 963  1187.773
 964  1394.359
 965  1517.754
 966  1623.977
 967  1494.505
 968  1219.657
 969  845.4825
 970  374.2039
 971  174.0004
 972  182.7934
 973  351.8331
 974  346.8343
 975  650.9518
 976  1306.37
 977  1869.533
 978  2033.528
 979  2078.362
 980  2274.989
 981  2499.494
 982  2546.848
 983  2607.092
 984  2359.525
 985  2000.532
 986  1716.018
 987  1530.226
 988  1281.909
 989  1063.149
 990  995.4869
 991  1007.936
 992  942.2742
 993  905.9535
 994  1086.253
 995  1301.143
 996  1492.807
 997  1577.906
 998  1533.442
 999  1345.325
1000  1170.347
1001  983.8365
1002  982.5037
1003  751.9877
1004  604.9516
1005  487.6025
1006  579.4516
1007  747.6647
1008  983.2775
1009  1303.98
1010  1628.285
1011  1975.157
1012  2197.397
1013  2444.872
1014  2550.159
1015  2670.191
1016  2558.371
1017  2331.303
1018  1919.623
1019  1589.447
1020  1322.687
1021  1161.042
1022  867.6365
1023  800.9507
