# Input file       =  1204047531.110057_cleaned.dat
# Candidate        =  PSR_0332+5434
# Telescope        =  AR
# Epoch_topo       =  58179.735533681218
# Epoch_bary       =  N/A
# T_sample         =  0.002
# Data Folded      =  7340032
# Data Avg         =  0.143956726815045
# Data StdDev      =  5.35435477284368 
# Profile Bins     =  1024
# Profile Avg      =  1031.8992698272  
# Profile StdDev   =  453.321317124996 
# Reduced chi-sqr  =  0.474
# Prob(Noise)      <  1   (~0.0 sigma)
# P_topo (ms)      =  714.58067532883   +/- 0.000344
# P'_topo (s/s)    =  -0                +/- 1.82e-10
# P''_topo (s/s^2) =  0                 +/- 8.02e-14
# P_bary (ms)      =  N/A
# P'_bary (s/s)    =  N/A
# P''_bary (s/s^2) =  N/A
# P_orb (s)        =  N/A
# asin(i)/c (s)    =  N/A
# eccentricity     =  N/A
# w (rad)          =  N/A
# T_peri           =  N/A
######################################################
   0  884.1234
   1  909.424
   2  881.9289
   3  803.7237
   4  847.8601
   5  980.5302
   6  1063.9
   7  1096.713
   8  1139.77
   9  1109.475
  10  1127.975
  11  1112.755
  12  1119.211
  13  1090.934
  14  1116.587
  15  1117.726
  16  1061.036
  17  1043.422
  18  1002.142
  19  1017.36
  20  1002.333
  21  1093.587
  22  1102.18
  23  1191.786
  24  1158.107
  25  1055.684
  26  1060.839
  27  1145.381
  28  1158.86
  29  1029.603
  30  976.3612
  31  937.7223
  32  943.5424
  33  870.8779
  34  860.7023
  35  811.243
  36  814.7123
  37  901.1124
  38  1031.358
  39  993.5716
  40  1015.54
  41  963.801
  42  1029.727
  43  958.7198
  44  1030.386
  45  1016.252
  46  952.9331
  47  929.533
  48  882.0656
  49  912.2067
  50  830.2358
  51  901.7569
  52  1029.331
  53  1133.404
  54  1223.083
  55  1095.665
  56  1002.812
  57  854.3188
  58  874.2064
  59  1025.512
  60  1069.997
  61  1080.582
  62  1105.498
  63  1143.391
  64  1304.553
  65  1265.456
  66  1175.763
  67  1000.716
  68  1001.762
  69  916.1316
  70  928.0995
  71  988.2382
  72  1073.837
  73  1141.722
  74  1123.557
  75  1060.996
  76  990.3651
  77  982.8059
  78  1051.468
  79  1018.71
  80  1013.994
  81  930.9218
  82  836.9528
  83  745.4911
  84  845.2198
  85  921.177
  86  872.2584
  87  960.7666
  88  1009.118
  89  958.6616
  90  922.8214
  91  955.4088
  92  959.8776
  93  904.2659
  94  876.6136
  95  931.4507
  96  843.6457
  97  718.8193
  98  676.8024
  99  806.8387
 100  1001.547
 101  1104.353
 102  1043.673
 103  1124.771
 104  1176.564
 105  1210.638
 106  1164.85
 107  1245.907
 108  1302.927
 109  1134.901
 110  986.7969
 111  947.1951
 112  1023.712
 113  1105.689
 114  1175.949
 115  1150.207
 116  988.2817
 117  796.5309
 118  821.8034
 119  918.6666
 120  1115.812
 121  1113.265
 122  1132.353
 123  1040.863
 124  1105.8
 125  1072.855
 126  1080.835
 127  926.1121
 128  801.4727
 129  908.8308
 130  969.8036
 131  960.5981
 132  935.6179
 133  983.5432
 134  1060.818
 135  986.1883
 136  1036.38
 137  1101.404
 138  1249.188
 139  1302.014
 140  1316.619
 141  1169.502
 142  1054.232
 143  971.4498
 144  1014.84
 145  1111.397
 146  1170.318
 147  1065.568
 148  972.9506
 149  1022.729
 150  1106.956
 151  1074.786
 152  1166.075
 153  1110.161
 154  1030.957
 155  859.019
 156  889.0394
 157  986.0386
 158  1009.396
 159  1085.382
 160  932.562
 161  834.2747
 162  734.6307
 163  1002.477
 164  1137.779
 165  1235.195
 166  1227.264
 167  1176.812
 168  1133.935
 169  1043.146
 170  1130.399
 171  1079.412
 172  999.1819
 173  1010.91
 174  1113.846
 175  1043.292
 176  964.5953
 177  1205.518
 178  1427.516
 179  1432.14
 180  1288.149
 181  1131.516
 182  1106.81
 183  1069.812
 184  1066.846
 185  929.1558
 186  875.4855
 187  843.1671
 188  850.8688
 189  835.8386
 190  754.5865
 191  885.2377
 192  936.6741
 193  932.2141
 194  782.8443
 195  823.2679
 196  967.1307
 197  977.7689
 198  930.0415
 199  969.8944
 200  929.3195
 201  941.4894
 202  952.2045
 203  1102.04
 204  1054.059
 205  1019.476
 206  898.0903
 207  1020.687
 208  1032.269
 209  1066.425
 210  1155.04
 211  1060.496
 212  1055.879
 213  914.9066
 214  916.9008
 215  852.0854
 216  757.5344
 217  798.3358
 218  841.4622
 219  969.5154
 220  924.6046
 221  855.3911
 222  711.3038
 223  681.696
 224  819.5502
 225  1017.44
 226  1009.765
 227  958.9667
 228  892.0986
 229  852.3551
 230  893.719
 231  910.4875
 232  1067.996
 233  1132.638
 234  1157.408
 235  1033.856
 236  1115.38
 237  1078.239
 238  1174.962
 239  1103.446
 240  1034.922
 241  1000.896
 242  1205.955
 243  1383.756
 244  1368.529
 245  1080.82
 246  1009.542
 247  1059.929
 248  1170.19
 249  1095.794
 250  1088.403
 251  1157.819
 252  1177.042
 253  1150.505
 254  1171.386
 255  1240.684
 256  1099.008
 257  1074.196
 258  1035.13
 259  1116.023
 260  1014.974
 261  897.8726
 262  860.2117
 263  977.4622
 264  1005.423
 265  1048.956
 266  1002.958
 267  1076.404
 268  1164.789
 269  1118.222
 270  982.7172
 271  858.7769
 272  911.1274
 273  988.8768
 274  960.1761
 275  937.0202
 276  888.16
 277  1012.727
 278  1144.358
 279  1277.169
 280  1246.88
 281  1188.333
 282  1032.997
 283  977.1379
 284  951.2244
 285  1097.395
 286  1136.174
 287  1028.293
 288  1054.239
 289  1207.917
 290  1278.62
 291  1057.298
 292  931.0479
 293  1058.85
 294  1091.713
 295  1122.146
 296  1067.904
 297  1023.286
 298  1005.897
 299  1007.969
 300  1026.516
 301  981.3306
 302  966.2752
 303  1000.129
 304  1065.411
 305  1025.821
 306  1014.882
 307  1042.493
 308  1134.178
 309  1113.466
 310  1121.176
 311  1084.961
 312  1094.534
 313  997.2618
 314  989.4604
 315  1123.866
 316  1165.742
 317  993.03
 318  826.4988
 319  822.4148
 320  960.0543
 321  984.6226
 322  994.4959
 323  1030.365
 324  1039.877
 325  1111.845
 326  1109.908
 327  1026.667
 328  1009.911
 329  907.8052
 330  963.8568
 331  919.6282
 332  975.6
 333  730.5755
 334  762.4938
 335  838.0131
 336  1007.436
 337  932.3398
 338  972.2032
 339  964.5188
 340  942.5132
 341  880.1276
 342  853.0167
 343  1018.832
 344  982.2057
 345  973.1379
 346  960.0992
 347  1042.313
 348  1070.656
 349  941.0298
 350  1004.322
 351  1064.832
 352  1170.217
 353  1189.395
 354  1137.051
 355  947.0291
 356  873.4519
 357  795.0803
 358  840.6292
 359  815.1368
 360  880.3527
 361  887.1735
 362  824.6943
 363  724.7546
 364  753.6893
 365  760.4293
 366  807.3496
 367  882.4921
 368  921.3561
 369  807.3052
 370  843.0757
 371  926.6071
 372  896.9376
 373  740.7965
 374  694.0633
 375  814.0643
 376  862.3172
 377  831.7314
 378  874.1052
 379  1054.003
 380  1219.086
 381  1209.703
 382  1169.66
 383  1184.456
 384  1182.358
 385  1104.508
 386  1095.07
 387  1094.812
 388  1191.128
 389  1099.24
 390  1031.367
 391  997.0388
 392  1022.311
 393  1054.75
 394  1116.26
 395  1205.154
 396  1176.185
 397  1084.199
 398  1044.864
 399  1081.019
 400  1147.671
 401  1163.466
 402  1216.424
 403  1065.87
 404  973.3406
 405  907.3368
 406  1022.241
 407  1053.36
 408  977.4326
 409  1022.019
 410  1219.991
 411  1258.734
 412  1260.668
 413  1167.689
 414  1275.593
 415  1185.199
 416  1114.887
 417  1071.225
 418  1054.306
 419  1156.823
 420  1091.593
 421  1144.717
 422  1147.064
 423  1120.528
 424  1094.84
 425  1007.515
 426  1206.023
 427  1262.207
 428  1282.466
 429  1095.298
 430  985.407
 431  964.0726
 432  1040
 433  1152.002
 434  1269.169
 435  1397.534
 436  1476.336
 437  1525.767
 438  1414.399
 439  1183.706
 440  1120.763
 441  1117.734
 442  1283.265
 443  1321.321
 444  1142.265
 445  930.8873
 446  864.3042
 447  917.1965
 448  862.4592
 449  873.983
 450  1015.837
 451  1005.932
 452  933.4188
 453  921.1474
 454  910.2247
 455  961.8277
 456  1035.752
 457  1163.147
 458  1238.437
 459  1275.366
 460  1336.565
 461  1315.395
 462  1256.724
 463  1316.995
 464  1268.958
 465  1264.847
 466  1311.792
 467  1317.967
 468  1403.065
 469  1241.332
 470  1142.83
 471  1137.297
 472  1230.452
 473  1285.107
 474  1363.324
 475  1338.655
 476  1285.503
 477  1163.959
 478  1249.305
 479  1217.184
 480  1152.777
 481  1103.658
 482  1206.514
 483  1187.094
 484  1025.568
 485  988.8826
 486  1100.451
 487  1112.687
 488  1063.654
 489  1171.684
 490  1155.802
 491  1102.208
 492  1060.378
 493  1166.079
 494  1136.462
 495  1157.157
 496  1103.577
 497  1137.09
 498  1158.892
 499  1198.639
 500  1125.022
 501  1092.481
 502  1194.473
 503  1113.739
 504  928.2786
 505  803.5206
 506  955.0023
 507  959.1111
 508  962.6428
 509  1043.741
 510  1024.709
 511  1076.197
 512  1080.974
 513  1118.948
 514  1141.156
 515  1143.653
 516  1242.752
 517  1077.523
 518  1010.115
 519  999.3235
 520  1158.324
 521  1166.224
 522  1084.627
 523  953.5449
 524  1017.689
 525  1032.073
 526  1133.555
 527  1184.159
 528  1365.82
 529  1387.361
 530  1357.92
 531  1340.378
 532  1233.123
 533  1234.516
 534  1102.432
 535  1147.925
 536  1176.53
 537  1326.005
 538  1429.708
 539  1347.791
 540  1182.725
 541  1066.911
 542  959.0947
 543  1068.329
 544  1028.284
 545  1094.269
 546  962.6411
 547  899.9955
 548  791.9346
 549  741.5006
 550  757.9818
 551  794.6821
 552  964.3993
 553  998.3337
 554  1073.426
 555  997.2549
 556  985.8704
 557  980.7114
 558  965.332
 559  879.9128
 560  674.018
 561  561.0904
 562  571.8469
 563  636.9786
 564  835.2764
 565  1008.729
 566  1103.073
 567  1156.115
 568  1079.488
 569  1153.898
 570  1179.207
 571  1231.726
 572  1103.338
 573  973.5493
 574  1019.94
 575  1023.716
 576  997.815
 577  1028.773
 578  1153.512
 579  1212.208
 580  1257.581
 581  1238.143
 582  1128.811
 583  1054.989
 584  1032.213
 585  989.3999
 586  1032.737
 587  991.9775
 588  1191.371
 589  1285.712
 590  1314.777
 591  1279.165
 592  1295.553
 593  1255.527
 594  1292.452
 595  1256.666
 596  1234.952
 597  1255.051
 598  1271.649
 599  1250.233
 600  1227.232
 601  1294.284
 602  1268.286
 603  1220.704
 604  1384.7
 605  1579.57
 606  1578.494
 607  1482.932
 608  1420.324
 609  1441.935
 610  1668.625
 611  1646.379
 612  1630.714
 613  1420.851
 614  1323.376
 615  1118.356
 616  1067.28
 617  1125.654
 618  1222.216
 619  1182.679
 620  1006.782
 621  902.5549
 622  985.3845
 623  935.0104
 624  845.2338
 625  772.769
 626  852.6566
 627  902.4774
 628  875.327
 629  866.0007
 630  930.2552
 631  983.8268
 632  931.3817
 633  865.4486
 634  844.2479
 635  977.4877
 636  1022.846
 637  1055.788
 638  1030.363
 639  1126.429
 640  1001.506
 641  916.0391
 642  799.8464
 643  889.7794
 644  774.8736
 645  797.9547
 646  800.8462
 647  990.1905
 648  1141.861
 649  1161.161
 650  1018.3
 651  923.6319
 652  912.2571
 653  997.8956
 654  1035.357
 655  987.4255
 656  917.6525
 657  864.019
 658  981.9107
 659  1051.474
 660  962.001
 661  855.8657
 662  818.7202
 663  874.0419
 664  1052.614
 665  1186.767
 666  1233.327
 667  1180.199
 668  1130.919
 669  1119.849
 670  1003.938
 671  1063.533
 672  1195.172
 673  1204.087
 674  1163.952
 675  1084.115
 676  1124.223
 677  1112.334
 678  1090.413
 679  1154.075
 680  1018.491
 681  996.0468
 682  870.9575
 683  915.5624
 684  930.4235
 685  953.3569
 686  892.8566
 687  793.7112
 688  843.4111
 689  831.4599
 690  948.2205
 691  843.2858
 692  937.5049
 693  966.2664
 694  1052.801
 695  1060.079
 696  959.0437
 697  882.595
 698  897.7604
 699  1103.874
 700  1197.924
 701  1215.382
 702  1190.521
 703  1227.705
 704  1157.048
 705  1062.255
 706  1003.07
 707  911.3748
 708  976.5085
 709  993.5018
 710  1049.603
 711  989.9948
 712  1012.068
 713  948.6245
 714  1010.683
 715  976.6054
 716  999.3391
 717  993.1641
 718  988.9285
 719  981.0627
 720  902.4785
 721  882.9821
 722  914.9907
 723  999.4701
 724  980.8029
 725  1036.058
 726  974.9449
 727  987.0976
 728  1054.075
 729  1102.354
 730  1223.227
 731  1317.285
 732  1353.744
 733  1210.772
 734  963.2375
 735  922.5629
 736  897.3911
 737  1102.295
 738  1152.919
 739  1064.237
 740  972.0348
 741  951.4997
 742  1162.772
 743  1297.774
 744  1353.723
 745  1300.133
 746  1178.877
 747  1242.865
 748  1233.31
 749  1365.47
 750  1284.441
 751  1288.389
 752  1314.05
 753  1377.303
 754  1392.136
 755  1282.834
 756  1248.6
 757  1288.265
 758  1379.897
 759  1380.449
 760  1332.34
 761  1312.613
 762  1443.73
 763  1521.036
 764  1582.393
 765  1474.535
 766  1409.163
 767  1281.235
 768  1340.116
 769  1233.523
 770  1133.591
 771  1030.542
 772  950.5849
 773  990.4059
 774  1097.003
 775  1147.552
 776  1096.167
 777  1003.153
 778  1139.387
 779  1221.546
 780  1100.849
 781  979.6544
 782  831.3738
 783  877.3277
 784  870.7418
 785  922.0552
 786  928.3209
 787  797.8019
 788  720.2288
 789  838.4217
 790  932.6055
 791  933.3065
 792  1043.283
 793  1028.816
 794  968.3409
 795  789.3824
 796  737.0538
 797  826.1339
 798  1063.076
 799  1118.7
 800  1097.391
 801  916.2923
 802  808.3714
 803  767.9641
 804  783.3865
 805  883.3457
 806  1063.407
 807  1186.841
 808  1317.6
 809  1282.343
 810  1135.284
 811  1049.022
 812  1122.397
 813  1255.21
 814  1325.911
 815  1315.645
 816  1231.195
 817  1235.586
 818  1191.162
 819  1108.24
 820  1045.727
 821  1173.096
 822  1148.265
 823  1073.294
 824  1188.897
 825  1232.396
 826  1214.503
 827  1063.604
 828  995.5739
 829  941.237
 830  900.2678
 831  870.7672
 832  896.1671
 833  899.6477
 834  940.6013
 835  841.4025
 836  922.741
 837  961.1231
 838  1057.965
 839  984.9586
 840  901.7031
 841  752.4011
 842  811.6094
 843  909.8096
 844  1006.637
 845  1095.101
 846  1072.815
 847  1082.278
 848  1023.695
 849  1027.057
 850  1174.513
 851  1172.89
 852  1202.923
 853  1076.179
 854  1090.28
 855  1219.243
 856  1357.026
 857  1508.014
 858  1358.953
 859  1324.217
 860  1176.053
 861  1305.319
 862  1274.471
 863  1175.617
 864  988.8787
 865  839.1627
 866  748.6458
 867  783.4187
 868  752.8862
 869  866.8524
 870  815.2772
 871  914.4567
 872  965.5834
 873  930.7298
 874  875.6818
 875  907.0585
 876  832.9778
 877  761.0236
 878  639.5887
 879  667.1017
 880  660.4215
 881  739.8967
 882  834.5051
 883  952.0442
 884  918.8619
 885  847.8085
 886  805.2045
 887  714.4925
 888  793.4532
 889  734.3984
 890  872.4695
 891  889.4646
 892  977.6656
 893  952.1135
 894  1046.984
 895  1088.084
 896  1133.58
 897  1040.744
 898  1102.394
 899  1215.276
 900  1351.241
 901  1405.273
 902  1379.128
 903  1188.312
 904  1155.292
 905  1192.816
 906  1183.472
 907  1081.587
 908  947.4932
 909  969.2047
 910  935.7083
 911  929.1921
 912  865.6838
 913  955.8568
 914  1007.952
 915  1048.777
 916  930.0721
 917  946.8104
 918  869.1785
 919  934.4467
 920  884.7491
 921  771.1492
 922  739.3406
 923  741.8616
 924  834.4485
 925  950.5015
 926  1004.94
 927  929.4694
 928  730.4727
 929  711.4695
 930  634.9688
 931  684.4753
 932  742.9962
 933  895.7819
 934  871.4193
 935  871.1315
 936  751.9275
 937  825.1932
 938  918.131
 939  963.0415
 940  925.7291
 941  800.5899
 942  828.8956
 943  810.7664
 944  830.998
 945  800.1832
 946  799.5854
 947  922.5639
 948  905.0823
 949  997.6147
 950  981.9865
 951  979.451
 952  992.8426
 953  1075.506
 954  1052.281
 955  939.684
 956  946.9694
 957  950.7247
 958  833.1736
 959  688.5737
 960  684.6592
 961  706.1608
 962  791.2951
 963  601.8039
 964  641.5422
 965  746.3524
 966  762.5273
 967  697.835
 968  750.7955
 969  886.2203
 970  879.3054
 971  684.614
 972  587.5027
 973  558.1161
 974  599.7542
 975  664.7845
 976  735.0872
 977  797.0406
 978  876.4388
 979  896.0963
 980  926.2747
 981  870.2708
 982  863.2707
 983  742.5697
 984  712.871
 985  622.7596
 986  815.6771
 987  937.2431
 988  1009.254
 989  817.1458
 990  810.236
 991  811.6445
 992  1011.848
 993  1108.784
 994  1102.809
 995  1172.874
 996  1094.714
 997  999.4921
 998  889.8289
 999  903.9016
1000  917.2272
1001  759.7356
1002  817.5726
1003  890.8506
1004  977.7481
1005  1042.618
1006  1137.28
1007  1195.909
1008  1139.38
1009  1125.497
1010  1217.691
1011  1048.104
1012  796.7385
1013  801.8626
1014  885.0891
1015  897.6398
1016  715.1041
1017  748.7647
1018  735.4707
1019  953.8534
1020  1032.311
1021  1106.04
1022  1004.165
1023  977.627
