# Input file       =  1204290524.108213_cleaned.dat
# Candidate        =  PSR_0332+5434
# Telescope        =  AR
# Epoch_topo       =  58182.547952641355
# Epoch_bary       =  N/A
# T_sample         =  0.002
# Data Folded      =  7340032
# Data Avg         =  0.367390037716957
# Data StdDev      =  6.47627451150161 
# Profile Bins     =  512
# Profile Avg      =  5267.85346887803 
# Profile StdDev   =  775.424011671546 
# Reduced chi-sqr  =  0.644
# Prob(Noise)      <  1   (~0.0 sigma)
# P_topo (ms)      =  714.579929665159  +/- 0.000428
# P'_topo (s/s)    =  -0                +/- 2.26e-10
# P''_topo (s/s^2) =  0                 +/- 9.97e-14
# P_bary (ms)      =  N/A
# P'_bary (s/s)    =  N/A
# P''_bary (s/s^2) =  N/A
# P_orb (s)        =  N/A
# asin(i)/c (s)    =  N/A
# eccentricity     =  N/A
# w (rad)          =  N/A
# T_peri           =  N/A
######################################################
   0  5599.219
   1  5700.077
   2  5515.646
   3  5265.78
   4  5371.453
   5  5545.885
   6  5242.93
   7  5150.527
   8  5243.666
   9  5076.632
  10  5556.854
  11  5908.982
  12  5768.916
  13  5307.301
  14  5414.397
  15  5655.912
  16  5738.115
  17  5611.838
  18  5877.775
  19  5846.599
  20  6001.244
  21  6115.087
  22  5867.687
  23  5515.602
  24  5691.497
  25  5447.437
  26  5026.064
  27  5085.403
  28  4871.929
  29  5331.271
  30  5379.122
  31  5413.805
  32  5541.398
  33  5396.408
  34  5570.523
  35  5357.575
  36  5353.642
  37  5660.001
  38  6056.269
  39  6027.392
  40  5600.992
  41  5413.219
  42  5555.572
  43  5412.157
  44  5397.523
  45  5524.978
  46  5606.793
  47  5569.587
  48  5327.349
  49  5212.632
  50  5400.185
  51  5462.922
  52  5669.786
  53  5739.601
  54  5909.353
  55  5701.281
  56  5224.258
  57  5608.562
  58  5482.085
  59  5629.467
  60  5962.136
  61  5977.198
  62  4978.229
  63  4744.672
  64  5269.696
  65  5508.677
  66  5204.92
  67  5214.268
  68  5511.077
  69  5326.739
  70  5374.262
  71  5228.673
  72  5270.107
  73  6050.358
  74  6411.849
  75  6247.991
  76  5935.658
  77  5585.216
  78  5357.015
  79  5774.722
  80  5615.428
  81  5693.059
  82  5763.309
  83  5483.041
  84  5200.428
  85  4758.757
  86  5125.55
  87  5231.3
  88  4962.145
  89  4991.887
  90  4720.41
  91  4828.758
  92  5255.254
  93  5528.924
  94  5137.848
  95  5081.746
  96  5051.028
  97  5127.851
  98  5446.913
  99  5721.294
 100  6198.154
 101  6263.944
 102  6151.319
 103  6140.388
 104  6153.515
 105  6071.426
 106  6248.158
 107  6100.419
 108  5743.883
 109  5739.497
 110  5892.657
 111  6212.458
 112  6021.775
 113  5572.381
 114  5647.021
 115  5768.842
 116  5910.142
 117  5822.214
 118  5715.271
 119  5284.489
 120  5222.116
 121  5064.229
 122  5118.807
 123  5494.666
 124  5517.109
 125  5822.018
 126  5539.646
 127  5227.509
 128  5544.845
 129  5710.806
 130  5828.646
 131  5506.531
 132  5585.556
 133  5809.559
 134  5213.377
 135  5496.186
 136  5467.366
 137  5077.932
 138  5085.913
 139  5537.369
 140  5596.905
 141  5482.365
 142  5368.68
 143  4894.426
 144  4913.37
 145  5266.914
 146  5122.673
 147  5148.578
 148  5021.301
 149  5229.055
 150  5351.156
 151  5306.264
 152  5565.342
 153  5943.512
 154  6327.614
 155  6631.073
 156  7082.381
 157  6982.904
 158  6068.815
 159  5577.561
 160  5242.912
 161  4984.222
 162  5074.052
 163  4894.08
 164  4889.976
 165  4751.28
 166  4941.839
 167  4953.45
 168  4550.056
 169  4570.732
 170  4618.463
 171  4843.194
 172  4776.994
 173  4414.102
 174  4394.257
 175  4314.292
 176  4333.448
 177  4265.696
 178  4531.188
 179  4505.329
 180  4698.278
 181  4803.094
 182  5019.063
 183  4901.24
 184  4675.766
 185  4710.016
 186  4842.173
 187  4928.448
 188  4873.525
 189  4903.869
 190  5177.329
 191  5128.561
 192  4847.353
 193  4615.181
 194  4387.845
 195  4534.625
 196  4838.102
 197  4854.221
 198  5247.358
 199  5295.874
 200  5606.489
 201  5177.814
 202  4863.034
 203  4829.092
 204  4866.483
 205  4806.865
 206  4962.846
 207  4732.373
 208  4904.407
 209  4789.246
 210  4562.625
 211  4817.197
 212  4699.243
 213  4688.906
 214  4880.905
 215  4797.012
 216  4970.068
 217  5009.016
 218  5135.684
 219  5208.679
 220  5294.987
 221  5360.521
 222  5346.711
 223  5024.006
 224  5023.935
 225  5353.656
 226  5614.835
 227  5538.413
 228  5393.146
 229  5558.862
 230  5605.105
 231  5650.376
 232  5743.945
 233  5444.942
 234  5523.359
 235  5270.932
 236  4838.072
 237  4633.175
 238  4588.904
 239  4885.804
 240  5208.015
 241  5106.741
 242  5035.371
 243  4854.853
 244  4911.363
 245  5102.479
 246  4871.152
 247  4922.491
 248  4523.11
 249  4918.999
 250  4827.789
 251  4735.889
 252  4847.647
 253  5028.8
 254  5219.49
 255  5197.255
 256  5255.229
 257  5394.548
 258  5095.153
 259  5068.5
 260  4916.267
 261  5475.803
 262  5825.184
 263  5608.934
 264  5658.808
 265  5767.396
 266  5444.872
 267  5128.112
 268  4584.042
 269  4697.889
 270  4816.136
 271  4601.56
 272  4735.158
 273  4720.964
 274  5080.589
 275  4766.935
 276  4524.312
 277  4698.182
 278  4676.312
 279  4940.164
 280  5097.234
 281  5063.845
 282  5250.002
 283  4875.956
 284  4292.98
 285  4500.466
 286  4882.463
 287  5271.826
 288  5383.645
 289  5235.474
 290  5048.28
 291  5030.452
 292  4750.457
 293  4919.197
 294  4859.291
 295  5163.169
 296  5199.25
 297  5411.222
 298  5392.279
 299  5047.464
 300  4933.347
 301  4807.814
 302  4785.546
 303  5025.891
 304  4672.076
 305  4776.233
 306  4722.295
 307  4906.62
 308  4842.902
 309  4720.02
 310  4843.042
 311  4804.901
 312  4734.208
 313  5224.554
 314  5103.641
 315  5106.702
 316  4590.092
 317  5051.982
 318  5163.576
 319  5222.872
 320  5243.305
 321  4479.561
 322  4643.721
 323  4943.287
 324  4949.968
 325  5026.252
 326  5463.662
 327  5109.385
 328  4864.343
 329  5107.461
 330  5139.628
 331  4810.132
 332  5117.814
 333  5214.454
 334  5084.166
 335  4962.303
 336  5297.21
 337  5395.337
 338  5675.055
 339  5869.938
 340  5770.185
 341  5845.839
 342  5299.379
 343  5329.753
 344  5586.896
 345  5788.905
 346  5764.709
 347  5212.325
 348  4836.645
 349  4898.071
 350  4954.286
 351  4874.859
 352  4995.196
 353  4676.492
 354  4713.72
 355  4656.6
 356  4545.791
 357  4945.665
 358  4972.921
 359  4868.908
 360  4700.949
 361  4627.498
 362  4747.217
 363  4785.12
 364  4537.286
 365  4987.02
 366  4884.84
 367  4798.267
 368  5173.929
 369  4998.404
 370  4874.141
 371  5394.884
 372  5378.728
 373  5409.773
 374  5069.005
 375  4803.467
 376  4855.209
 377  4943.929
 378  5243.31
 379  5184.357
 380  5168.705
 381  5063.452
 382  4998.412
 383  5095.14
 384  4828.059
 385  4683.701
 386  4625.958
 387  4430.845
 388  4711.267
 389  4675.845
 390  5011.502
 391  5170.557
 392  5106.051
 393  5104.726
 394  5275.104
 395  5326.657
 396  5138.992
 397  5406.457
 398  5901.678
 399  6190.115
 400  5938.526
 401  6004.824
 402  6006.399
 403  5953.689
 404  6045.948
 405  6412.122
 406  6463.403
 407  6424.362
 408  5842.375
 409  5916.847
 410  6079.418
 411  5838.794
 412  5781.179
 413  5879.439
 414  5841.489
 415  5889.692
 416  5641.81
 417  5359.543
 418  5598.726
 419  5664.372
 420  5645.495
 421  5589.561
 422  5666.924
 423  5864.56
 424  5576.545
 425  5522.104
 426  5919.339
 427  5763.354
 428  5443.393
 429  4890.413
 430  4887.554
 431  5101.748
 432  5239.471
 433  5202.769
 434  4963.317
 435  4940.62
 436  5175.371
 437  5248.062
 438  5331.479
 439  5607.074
 440  5637.602
 441  5295.235
 442  4978.187
 443  4729.079
 444  5043.958
 445  5294.715
 446  5182.353
 447  4835.493
 448  5395.114
 449  5355.369
 450  5051.018
 451  5286.618
 452  5334.871
 453  5345.28
 454  5202.81
 455  5397.864
 456  5343.601
 457  5309.835
 458  5673.044
 459  5152.936
 460  5243.702
 461  5191.362
 462  4808.067
 463  4935.76
 464  4798.105
 465  5165.811
 466  5243.278
 467  4833.541
 468  4828.393
 469  4876.4
 470  4999.855
 471  4631.728
 472  4750.214
 473  4778.953
 474  4856.229
 475  4859.475
 476  5117.992
 477  5178.813
 478  5282.348
 479  5027.25
 480  4987.215
 481  5370.716
 482  5588.481
 483  5660.683
 484  5615.863
 485  5339.829
 486  5416.776
 487  5559.181
 488  5504.415
 489  5269.079
 490  5557.339
 491  5339.96
 492  5319.708
 493  5435.518
 494  5298.252
 495  5461.203
 496  5211.899
 497  5030.129
 498  5442.795
 499  5845.931
 500  5633.536
 501  5532.683
 502  5215.846
 503  5861.185
 504  5952.139
 505  6146.753
 506  6216.128
 507  6285.395
 508  6266.046
 509  6035.595
 510  5370.173
 511  5448.993
