# Input file       =  1204564430.106454_cleaned.dat
# Candidate        =  PSR_0332+5434
# Telescope        =  AR
# Epoch_topo       =  58185.718160954326
# Epoch_bary       =  N/A
# T_sample         =  0.002
# Data Folded      =  7340032
# Data Avg         =  0.118043882249497
# Data StdDev      =  4.4164298092762  
# Profile Bins     =  1024
# Profile Avg      =  846.261246651401 
# Profile StdDev   =  373.912798659752 
# Reduced chi-sqr  =  0.755
# Prob(Noise)      <  1   (~0.0 sigma)
# P_topo (ms)      =  714.579670176078  +/- 0.000561
# P'_topo (s/s)    =  -0                +/- 2.96e-10
# P''_topo (s/s^2) =  0                 +/- 1.31e-13
# P_bary (ms)      =  N/A
# P'_bary (s/s)    =  N/A
# P''_bary (s/s^2) =  N/A
# P_orb (s)        =  N/A
# asin(i)/c (s)    =  N/A
# eccentricity     =  N/A
# w (rad)          =  N/A
# T_peri           =  N/A
######################################################
   0  911.6465
   1  838.2161
   2  820.8374
   3  879.6931
   4  1075.277
   5  1263.889
   6  1360.727
   7  1299.44
   8  1191.948
   9  1029.324
  10  861.7207
  11  706.028
  12  758.4908
  13  884.2834
  14  896.8362
  15  841.8177
  16  777.2884
  17  801.1097
  18  933.0007
  19  1004.753
  20  1008.365
  21  942.7169
  22  859.1238
  23  833.966
  24  847.4416
  25  920.1634
  26  1013.331
  27  927.534
  28  790.6533
  29  687.5397
  30  720.6414
  31  775.1537
  32  873.108
  33  909.7557
  34  913.2009
  35  921.3995
  36  910.4651
  37  901.2547
  38  810.828
  39  779.1248
  40  747.2399
  41  694.1536
  42  696.8141
  43  681.965
  44  687.5704
  45  721.0623
  46  902.1606
  47  1017.358
  48  980.1141
  49  926.5095
  50  856.1807
  51  799.0169
  52  698.4293
  53  557.7037
  54  467.748
  55  502.8414
  56  723.9681
  57  842.5626
  58  891.4531
  59  913.6269
  60  899.7091
  61  866.8185
  62  791.447
  63  789.4896
  64  870.2006
  65  847.437
  66  904.1264
  67  846.1234
  68  765.268
  69  728.1481
  70  701.314
  71  669.6737
  72  561.8414
  73  504.1684
  74  741.5465
  75  850.9139
  76  788.1005
  77  584.5015
  78  621.3789
  79  688.0064
  80  786.6334
  81  923.2344
  82  1105.844
  83  1102.019
  84  1027.453
  85  956.4788
  86  868.1696
  87  872.1006
  88  947.3487
  89  1063.405
  90  1075.815
  91  941.0663
  92  860.2831
  93  893.1241
  94  957.6368
  95  932.3575
  96  847.1275
  97  739.6918
  98  684.6387
  99  817.9254
 100  875.3294
 101  917.8193
 102  805.083
 103  861.0062
 104  797.7931
 105  857.6066
 106  930.5485
 107  965.4214
 108  894.2816
 109  912.8357
 110  967.7605
 111  1081.39
 112  1049.678
 113  952.3769
 114  926.2245
 115  937.2859
 116  990.9513
 117  992.8338
 118  1003.721
 119  1030.612
 120  1100.108
 121  1117.236
 122  1145.144
 123  1006.982
 124  951.4258
 125  822.5704
 126  806.2088
 127  773.822
 128  833.155
 129  839.6674
 130  768.0466
 131  722.3182
 132  705.3406
 133  798.8032
 134  937.1415
 135  943.2753
 136  936.0308
 137  875.1107
 138  898.0189
 139  948.5671
 140  1061.466
 141  1113.413
 142  1121.875
 143  968.2371
 144  832.4122
 145  803.5102
 146  885.6211
 147  930.9393
 148  912.0911
 149  937.1638
 150  1019.305
 151  1146.116
 152  1160.804
 153  1102.123
 154  849.3848
 155  770.9468
 156  800.3442
 157  844.1643
 158  841.8141
 159  880.7744
 160  1041.915
 161  1034.407
 162  951.7634
 163  881.5811
 164  774.0289
 165  733.4929
 166  718.0717
 167  813.8237
 168  846.2115
 169  855.889
 170  707.2076
 171  617.4835
 172  435.6734
 173  494.2686
 174  517.6453
 175  575.3065
 176  619.1634
 177  686.197
 178  717.9567
 179  733.8548
 180  631.6334
 181  727.8368
 182  718.8019
 183  809.7903
 184  883.5445
 185  899.6696
 186  938.6714
 187  896.4371
 188  960.8244
 189  1059.445
 190  1115.774
 191  964.3076
 192  948.3688
 193  830.1957
 194  873.2071
 195  800.6839
 196  805.9368
 197  821.3164
 198  869.5756
 199  862.9437
 200  990.9681
 201  981.4936
 202  1014.567
 203  862.2379
 204  968.1573
 205  1015.47
 206  1064.073
 207  878.9503
 208  807.0856
 209  786.6351
 210  798.4047
 211  783.9609
 212  756.6191
 213  862.6654
 214  954.1883
 215  982.9902
 216  1014.125
 217  944.8983
 218  765.021
 219  651.2617
 220  695.8385
 221  863.6226
 222  1042.213
 223  1031.908
 224  1046.488
 225  886.7168
 226  845.0804
 227  741.99
 228  798.0912
 229  816.3832
 230  768.6901
 231  725.2023
 232  777.2803
 233  792.4748
 234  678.2621
 235  622.1486
 236  597.804
 237  795.1733
 238  760.5386
 239  838.7244
 240  797.5493
 241  922.1758
 242  700.4403
 243  594.2956
 244  519.6675
 245  597.9565
 246  600.6763
 247  687.8716
 248  695.452
 249  751.1394
 250  700.0543
 251  778.0535
 252  737.5002
 253  750.2297
 254  757.2046
 255  874.3179
 256  903.8489
 257  868.3165
 258  845.8616
 259  806.4825
 260  797.8439
 261  732.8193
 262  780.056
 263  725.5487
 264  756.6095
 265  697.2382
 266  674.6801
 267  695.5009
 268  635.4608
 269  665.3824
 270  787.1429
 271  865.4091
 272  775.5488
 273  756.7532
 274  787.7231
 275  889.3755
 276  944.3882
 277  1055.236
 278  1090.027
 279  949.0599
 280  887.4931
 281  864.588
 282  1044.24
 283  1112.689
 284  1179.184
 285  924.2063
 286  850.3976
 287  1032.417
 288  1252.889
 289  1243.738
 290  1193.698
 291  1179.769
 292  1128.653
 293  1055.906
 294  1079.863
 295  1242.155
 296  1350.036
 297  1211.523
 298  985.8775
 299  849.1729
 300  908.8276
 301  947.6755
 302  830.3928
 303  895.8649
 304  971.3405
 305  1217.884
 306  1200.429
 307  1071.328
 308  778.5187
 309  667.1487
 310  714.9941
 311  784.8113
 312  863.2308
 313  722.8307
 314  814.0698
 315  808.8235
 316  949.712
 317  760.1735
 318  680.9127
 319  683.6106
 320  817.475
 321  902.0952
 322  871.0603
 323  844.8389
 324  822.2686
 325  765.1002
 326  817.226
 327  847.0059
 328  958.2933
 329  947.7001
 330  905.4639
 331  821.1202
 332  803.9302
 333  687.8774
 334  686.5096
 335  773.866
 336  900.1838
 337  840.0847
 338  876.5396
 339  856.8116
 340  915.3546
 341  775.2606
 342  891.0955
 343  878.5931
 344  909.9609
 345  786.6086
 346  713.2793
 347  562.4499
 348  615.6206
 349  668.4839
 350  718.2309
 351  580.8504
 352  605.382
 353  727.3821
 354  855.9686
 355  790.7081
 356  742.8141
 357  869.5961
 358  870.9478
 359  817.6701
 360  550.8201
 361  515.5406
 362  601.0319
 363  666.761
 364  711.6325
 365  818.9622
 366  936.4527
 367  852.4442
 368  696.8431
 369  702.5487
 370  753.9922
 371  684.0341
 372  661.7637
 373  739.2267
 374  810.0334
 375  858.5717
 376  659.4232
 377  563.0964
 378  483.2235
 379  573.66
 380  560.5994
 381  568.351
 382  549.5436
 383  649.874
 384  624.42
 385  679.6871
 386  749.5404
 387  913.382
 388  873.0897
 389  917.1106
 390  880.4086
 391  871.7014
 392  677.0725
 393  669.9921
 394  694.4738
 395  752.8632
 396  716.3815
 397  659.5625
 398  541.3674
 399  542.9559
 400  601.5023
 401  639.6194
 402  622.1288
 403  707.2029
 404  669.4804
 405  610.2659
 406  417.2861
 407  388.0882
 408  463.7587
 409  514.5582
 410  527.2226
 411  402.2833
 412  423.954
 413  424.172
 414  589.3662
 415  610.584
 416  713.1174
 417  705.0557
 418  767.5151
 419  667.5692
 420  684.0361
 421  661.9433
 422  697.899
 423  617.4648
 424  656.9448
 425  740.9111
 426  888.66
 427  963.1684
 428  937.5943
 429  831.627
 430  690.6642
 431  630.558
 432  610.1426
 433  718.374
 434  868.4241
 435  854.7327
 436  803.2344
 437  723.0216
 438  808.6362
 439  875.3007
 440  789.675
 441  797.4304
 442  865.0857
 443  974.5211
 444  892.4781
 445  859.9721
 446  837.5396
 447  856.1636
 448  843.303
 449  841.1788
 450  962.1492
 451  917.68
 452  845.0659
 453  797.5369
 454  883.6174
 455  849.9392
 456  801.1419
 457  839.3928
 458  971.6477
 459  940.2679
 460  929.1987
 461  884.4307
 462  958.5745
 463  930.1546
 464  973.5656
 465  947.7333
 466  920.3286
 467  876.1363
 468  812.0552
 469  841.4083
 470  715.0441
 471  589.3699
 472  540.1819
 473  647.0039
 474  711.6452
 475  574.7534
 476  515.6951
 477  598.3452
 478  657.4405
 479  641.814
 480  589.3636
 481  564.2475
 482  610.8373
 483  670.9402
 484  830.5009
 485  777.8377
 486  741.8865
 487  719.6223
 488  636.4697
 489  591.3925
 490  525.6825
 491  587.3125
 492  636.0421
 493  604.9435
 494  471.0587
 495  368.9862
 496  374.463
 497  410.2919
 498  455.0898
 499  556.1467
 500  736.0434
 501  614.6442
 502  523.9791
 503  457.4828
 504  526.3475
 505  614.8966
 506  676.1502
 507  657.7433
 508  602.372
 509  619.6525
 510  715.097
 511  759.439
 512  681.7448
 513  709.1764
 514  593.9003
 515  590.4391
 516  459.272
 517  503.5124
 518  591.8568
 519  734.1263
 520  763.1794
 521  644.1353
 522  611.5405
 523  631.1249
 524  753.1584
 525  724.3581
 526  630.8259
 527  628.3042
 528  609.6348
 529  696.7396
 530  621.9647
 531  505.7485
 532  420.2568
 533  470.9286
 534  496.0457
 535  381.5079
 536  490.2681
 537  562.4182
 538  735.0197
 539  725.6541
 540  730.1684
 541  715.3403
 542  704.0917
 543  682.9413
 544  628.4094
 545  460.8065
 546  538.8082
 547  541.221
 548  715.7001
 549  682.2819
 550  728.2409
 551  746.7497
 552  749.4847
 553  724.3356
 554  714.2261
 555  749.1826
 556  754.9757
 557  713.34
 558  790.2056
 559  707.9337
 560  719.1679
 561  717.6395
 562  750.9499
 563  699.2721
 564  764.8864
 565  826.8668
 566  863.4279
 567  736.4454
 568  705.4169
 569  665.5745
 570  706.3776
 571  850.7248
 572  977.7046
 573  1070.11
 574  991.3046
 575  935.9062
 576  831.7647
 577  768.944
 578  856.7817
 579  810.8646
 580  884.4545
 581  763.1439
 582  706.6762
 583  721.5605
 584  893.8139
 585  1112.546
 586  1096.224
 587  949.4803
 588  776.7892
 589  725.0133
 590  947.2501
 591  1003.212
 592  1081.573
 593  977.3512
 594  895.4703
 595  912.1719
 596  874.6417
 597  874.5259
 598  796.6631
 599  815.6348
 600  814.5203
 601  903.7271
 602  961.6827
 603  1092.597
 604  1233.959
 605  1360.417
 606  1418.229
 607  1516.895
 608  1686.051
 609  1722.478
 610  1769.919
 611  1690.236
 612  1659.899
 613  1301.774
 614  1111.087
 615  974.4172
 616  1103.926
 617  958.8369
 618  842.3979
 619  601.343
 620  717.7623
 621  866.4695
 622  1023.468
 623  987.1131
 624  939.4634
 625  862.3575
 626  946.501
 627  939.3943
 628  965.3753
 629  932.8156
 630  870.0513
 631  889.6877
 632  866.5881
 633  921.4708
 634  822.5973
 635  711.4818
 636  669.6519
 637  716.3674
 638  894.5389
 639  976.196
 640  991.3793
 641  900.9943
 642  774.3946
 643  847.0978
 644  860.7986
 645  879.2991
 646  769.7672
 647  922.5791
 648  867.5276
 649  951.1709
 650  880.4014
 651  798.3622
 652  755.711
 653  863.3105
 654  1016.545
 655  898.8909
 656  756.8984
 657  727.1802
 658  719.3412
 659  843.618
 660  876.7703
 661  956.2899
 662  758.3167
 663  738.7262
 664  753.5932
 665  829.8344
 666  787.2646
 667  884.2626
 668  858.2644
 669  914.4327
 670  971.0767
 671  1098.896
 672  944.7026
 673  814.0759
 674  840.2632
 675  864.5597
 676  842.0482
 677  843.3528
 678  845.8796
 679  878.2153
 680  951.3356
 681  983.857
 682  908.3959
 683  873.1354
 684  829.6354
 685  872.8361
 686  889.221
 687  962.5424
 688  975.6106
 689  826.1597
 690  834.0969
 691  903.2634
 692  990.9972
 693  805.189
 694  720.122
 695  765.2786
 696  796.5035
 697  834.6665
 698  921.5479
 699  854.2763
 700  895.9523
 701  929.8909
 702  1075.158
 703  965.9417
 704  855.9656
 705  798.7371
 706  869.6934
 707  1011.234
 708  1078.019
 709  1132.849
 710  1099.412
 711  1018.548
 712  1003.571
 713  977.1825
 714  1024.027
 715  965.8942
 716  885.35
 717  880.5327
 718  906.8856
 719  963.5744
 720  901.4282
 721  1048.073
 722  1083.026
 723  1030.39
 724  1064.469
 725  1008.901
 726  936.6778
 727  795.6144
 728  819.9689
 729  1048.789
 730  1149.738
 731  1124.899
 732  1012.001
 733  915.6915
 734  927.9833
 735  927.9834
 736  875.1408
 737  991.5393
 738  1113.649
 739  1156.618
 740  1045.845
 741  861.004
 742  836.3451
 743  839.2801
 744  868.2687
 745  850.1503
 746  920.6166
 747  901.2686
 748  954.6616
 749  954.6337
 750  1031.229
 751  969.0215
 752  957.8154
 753  991.5999
 754  1051.893
 755  1058.691
 756  990.1146
 757  872.3314
 758  847.423
 759  857.9811
 760  915.0125
 761  739.7999
 762  662.2648
 763  587.4546
 764  747.6307
 765  849.2515
 766  807.0385
 767  769.9723
 768  746.3542
 769  775.905
 770  671.0974
 771  535.1324
 772  602.2057
 773  660.1152
 774  780.9926
 775  741.5021
 776  780.4351
 777  835.1301
 778  858.3032
 779  959.0074
 780  937.9632
 781  949.9643
 782  778.7535
 783  821.2355
 784  837.7336
 785  866.1664
 786  710.2444
 787  628.9268
 788  593.3044
 789  648.803
 790  610.0692
 791  664.0009
 792  693.749
 793  751.8912
 794  627.179
 795  527.7384
 796  485.5012
 797  636.882
 798  686.7902
 799  803.3179
 800  810.8051
 801  837.1547
 802  918.9929
 803  958.1318
 804  948.9967
 805  840.115
 806  754.1738
 807  869.118
 808  760.3881
 809  746.019
 810  663.6262
 811  822.0511
 812  947.0352
 813  895.7684
 814  803.3344
 815  812.0109
 816  832.0417
 817  907.1355
 818  872.6848
 819  916.1041
 820  974.0759
 821  855.0107
 822  733.951
 823  667.5216
 824  671.9718
 825  703.9894
 826  694.4575
 827  794.7104
 828  737.8169
 829  801.2137
 830  672.0698
 831  736.2054
 832  715.656
 833  791.0529
 834  846.5051
 835  891.6644
 836  914.5226
 837  831.3871
 838  813.3855
 839  852.0325
 840  894.8401
 841  850.7337
 842  789.486
 843  793.4769
 844  717.1792
 845  805.482
 846  756.3246
 847  854.0801
 848  903.455
 849  895.3304
 850  961.0327
 851  920.2726
 852  848.3067
 853  855.4222
 854  899.7087
 855  977.1378
 856  912.1027
 857  960.3658
 858  1005.812
 859  994.6173
 860  1040.671
 861  1191.803
 862  1272.531
 863  1258.876
 864  1187.802
 865  1174.316
 866  1227.53
 867  1457.589
 868  1484.854
 869  1384.09
 870  1212.991
 871  1192.499
 872  1192.442
 873  1127.541
 874  987.6724
 875  974.5927
 876  1094.78
 877  1091.026
 878  1150.86
 879  1052.61
 880  1033.369
 881  957.5889
 882  1085.939
 883  1248.374
 884  1202.738
 885  1213.26
 886  1224.661
 887  1253.243
 888  1102.897
 889  969.3542
 890  988.9521
 891  891.4132
 892  871.6014
 893  809.4322
 894  836.7199
 895  837.5556
 896  837.4296
 897  856.6919
 898  975.5485
 899  1055.137
 900  1002.192
 901  854.9418
 902  827.3834
 903  860.9475
 904  811.0594
 905  713.2668
 906  851.286
 907  1075.876
 908  1082.359
 909  1025.06
 910  974.0891
 911  932.9392
 912  945.0992
 913  1059.802
 914  1008.362
 915  868.4152
 916  671.7148
 917  872.9426
 918  897.5381
 919  820.2507
 920  718.9076
 921  793.0223
 922  919.6441
 923  809.5065
 924  676.9899
 925  653.0123
 926  709.3964
 927  790.8289
 928  630.571
 929  613.804
 930  718.7988
 931  826.9387
 932  837.4187
 933  721.2961
 934  724.2365
 935  700.3909
 936  783.5336
 937  874.6447
 938  815.7632
 939  788.0479
 940  877.5154
 941  847.7434
 942  905.9095
 943  854.4662
 944  835.874
 945  787.2847
 946  756.695
 947  810.3752
 948  905.7789
 949  843.6864
 950  785.5219
 951  852.4966
 952  1046.977
 953  1183.122
 954  1168.734
 955  1056.204
 956  975.3489
 957  939.0903
 958  957.3975
 959  954.1462
 960  910.5201
 961  686.7086
 962  705.595
 963  834.0598
 964  983.213
 965  925.1578
 966  940.7535
 967  1002.029
 968  1016.538
 969  981.6717
 970  890.9722
 971  742.8779
 972  747.8712
 973  817.3228
 974  912.8662
 975  1036.304
 976  1014.217
 977  1036.085
 978  1016.805
 979  1038.486
 980  972.5156
 981  982.7673
 982  987.892
 983  1077.357
 984  1093.502
 985  1076.78
 986  822.4654
 987  758.9581
 988  789.7136
 989  758.9977
 990  714.5367
 991  725.4952
 992  793.54
 993  862.5153
 994  902.5898
 995  1114.299
 996  1006.861
 997  975.8799
 998  818.3483
 999  810.1986
1000  720.093
1001  897.1482
1002  1080.066
1003  1121.148
1004  976.1111
1005  1009.017
1006  997.5391
1007  945.5173
1008  819.9241
1009  742.4257
1010  791.2977
1011  815.8096
1012  915.144
1013  934.5455
1014  1049.418
1015  1230.964
1016  1275.009
1017  1026.629
1018  820.7443
1019  792.071
1020  966.6047
1021  984.0671
1022  991.6914
1023  959.1835
