# Input file       =  1204290524.108213_cleaned.dat
# Candidate        =  PSR_0332+5434
# Telescope        =  AR
# Epoch_topo       =  58182.547952641355
# Epoch_bary       =  N/A
# T_sample         =  0.002
# Data Folded      =  7340032
# Data Avg         =  0.050480268265073
# Data StdDev      =  1.00012477765193 
# Profile Bins     =  512
# Profile Avg      =  723.824430729801 
# Profile StdDev   =  119.747976383904 
# Reduced chi-sqr  =  1.072
# Prob(Noise)      <  0.125   (~1.2 sigma)
# P_topo (ms)      =  714.579929665159  +/- 0.000453
# P'_topo (s/s)    =  -0                +/- 2.39e-10
# P''_topo (s/s^2) =  0                 +/- 1.06e-13
# P_bary (ms)      =  N/A
# P'_bary (s/s)    =  N/A
# P''_bary (s/s^2) =  N/A
# P_orb (s)        =  N/A
# asin(i)/c (s)    =  N/A
# eccentricity     =  N/A
# w (rad)          =  N/A
# T_peri           =  N/A
######################################################
   0  875.6608
   1  857.5601
   2  809.5948
   3  743.603
   4  799.3621
   5  887.5319
   6  826.1835
   7  778.4291
   8  753.0356
   9  718.7989
  10  795.4378
  11  901.2557
  12  891.134
  13  769.3394
  14  757.8405
  15  783.4767
  16  782.7239
  17  779.0359
  18  877.6387
  19  879.2986
  20  896.7662
  21  894.9886
  22  856.0662
  23  793.928
  24  793.7888
  25  694.2168
  26  675.3348
  27  662.2449
  28  595.6046
  29  771.6601
  30  803.9015
  31  775.1205
  32  764.5925
  33  731.7139
  34  775.6013
  35  705.562
  36  683.9658
  37  760.0103
  38  822.4973
  39  823.4203
  40  743.6573
  41  732.6536
  42  760.2382
  43  779.4896
  44  768.2376
  45  756.4801
  46  727.1486
  47  723.307
  48  674.0975
  49  678.6817
  50  734.2678
  51  726.4473
  52  741.8644
  53  800.6824
  54  849.8788
  55  799.0686
  56  662.49
  57  764.5673
  58  730.7465
  59  771.0103
  60  806.1636
  61  791.4292
  62  649.5067
  63  606.1307
  64  738.3223
  65  757.7362
  66  672.3515
  67  654.9815
  68  761.7432
  69  712.2
  70  659.8025
  71  629.3022
  72  638.3544
  73  841.8395
  74  908.2446
  75  865.4543
  76  775.6354
  77  729.3482
  78  725.426
  79  826.0462
  80  762.8919
  81  788.7394
  82  816.5806
  83  757.362
  84  713.0656
  85  609.8524
  86  673.1275
  87  706.0815
  88  689.7153
  89  718.7
  90  724.5287
  91  745.3505
  92  792.9016
  93  795.0476
  94  699.2446
  95  661.2654
  96  676.1963
  97  674.392
  98  756.1487
  99  827.5753
 100  857.1214
 101  869.2872
 102  848.1218
 103  822.8233
 104  868.6529
 105  826.8105
 106  858.344
 107  879.3318
 108  776.1714
 109  766.6927
 110  818.6368
 111  903.8865
 112  836.0689
 113  737.4907
 114  800.8447
 115  842.9393
 116  816.0847
 117  807.0152
 118  794.3463
 119  730.3295
 120  731.2626
 121  699.9888
 122  694.6543
 123  724.713
 124  686.3208
 125  761.8312
 126  719.7304
 127  675.8454
 128  787.2366
 129  847.6003
 130  814.1022
 131  716.4653
 132  717.2393
 133  747.9711
 134  630.6237
 135  766.3143
 136  750.039
 137  635.265
 138  651.0001
 139  764.3028
 140  774.1896
 141  801.6369
 142  769.0175
 143  656.0044
 144  689.777
 145  768.4545
 146  721.8383
 147  711.3311
 148  670.3135
 149  757.0473
 150  785.0644
 151  781.9471
 152  865.9957
 153  928.2361
 154  994.023
 155  1071.791
 156  1206.91
 157  1156.995
 158  898.7167
 159  811.7948
 160  767.6973
 161  703.2664
 162  726.0576
 163  712.4362
 164  699.6656
 165  669.5252
 166  741.3924
 167  722.1348
 168  618.938
 169  657.5223
 170  649.3182
 171  696.091
 172  688.4003
 173  635.4995
 174  614.6406
 175  547.3035
 176  604.3445
 177  603.6827
 178  678.6743
 179  656.352
 180  695.7254
 181  700.7969
 182  711.5383
 183  659.4814
 184  655.347
 185  683.1048
 186  686.0521
 187  748.8589
 188  748.8713
 189  723.2728
 190  723.875
 191  678.6187
 192  660.6453
 193  623.0357
 194  614.1149
 195  641.9937
 196  689.2238
 197  718.9902
 198  730.8977
 199  728.4755
 200  832.5992
 201  713.756
 202  697.9604
 203  672.4754
 204  678.2115
 205  558.1527
 206  590.0486
 207  596.46
 208  656.7182
 209  632.4091
 210  571.1176
 211  613.7905
 212  600.678
 213  577.7783
 214  627.8976
 215  616.6289
 216  685.9852
 217  680.1379
 218  664.9177
 219  698.2518
 220  757.0106
 221  720.0288
 222  719.2838
 223  666.7928
 224  647.512
 225  743.7727
 226  794.9302
 227  760.8704
 228  741.6394
 229  794.3487
 230  790.5846
 231  760.6599
 232  788.8188
 233  739.0211
 234  748.3276
 235  762.1207
 236  668.9803
 237  593.5569
 238  577.4263
 239  638.4305
 240  710.1845
 241  656.9452
 242  667.4849
 243  640.8583
 244  662.3279
 245  684.404
 246  643.1037
 247  706.2691
 248  635.6204
 249  696.6549
 250  655.1173
 251  657.4171
 252  673.3217
 253  670.3073
 254  760.5346
 255  721.3801
 256  711.4965
 257  698.9349
 258  681.5858
 259  675.0709
 260  633.3553
 261  720.3671
 262  777.7941
 263  785.1683
 264  798.1959
 265  798.1132
 266  764.1999
 267  727.6828
 268  603.1401
 269  637.965
 270  680.4169
 271  586.9285
 272  627.0099
 273  583.5167
 274  668.2669
 275  610.7833
 276  592.7375
 277  625.8199
 278  605.4181
 279  628.1702
 280  613.184
 281  624.8333
 282  695.1476
 283  590.9362
 284  478.501
 285  536.8774
 286  601.3247
 287  650.7439
 288  671.3259
 289  682.4698
 290  633.3531
 291  627.4321
 292  547.3542
 293  616.618
 294  580.9752
 295  662.868
 296  697.459
 297  794.1846
 298  809.4526
 299  722.4258
 300  652.5619
 301  628.2424
 302  672.0072
 303  745.9125
 304  668.0009
 305  663.1558
 306  659.7227
 307  686.0099
 308  675.4544
 309  664.1735
 310  646.3302
 311  657.8504
 312  661.4902
 313  756.4761
 314  648.6349
 315  678.6989
 316  551.6777
 317  653.3291
 318  676.1845
 319  765.319
 320  796.9689
 321  581.6359
 322  595.8384
 323  640.8018
 324  634.1894
 325  661.8147
 326  758.5535
 327  735.5957
 328  674.9241
 329  720.7986
 330  716.4951
 331  621.7724
 332  718.2205
 333  760.803
 334  713.0798
 335  662.8284
 336  733.7788
 337  707.5435
 338  753.1544
 339  764.8727
 340  732.6387
 341  791.7321
 342  765.0808
 343  732.108
 344  739.9532
 345  811.8637
 346  815.1639
 347  688.4597
 348  595.1886
 349  692.8781
 350  688.7748
 351  687.5533
 352  673.3143
 353  560.8012
 354  615.7793
 355  630.5724
 356  589.0056
 357  666.5688
 358  726.3929
 359  688.1855
 360  606.5564
 361  529.4564
 362  607.967
 363  630.2554
 364  555.3918
 365  676.8613
 366  703.9595
 367  651.0187
 368  713.0471
 369  688.0128
 370  695.7367
 371  740.217
 372  699.5223
 373  748.3612
 374  718.4651
 375  605.6469
 376  593.6069
 377  602.103
 378  693.305
 379  660.5571
 380  632.7502
 381  618.0656
 382  603.1266
 383  625.1691
 384  599.5996
 385  586.8685
 386  579.0094
 387  550.0535
 388  631.9179
 389  582.4805
 390  643.55
 391  692.6819
 392  618.2856
 393  612.9127
 394  664.4309
 395  691.7198
 396  649.4517
 397  678.4354
 398  775.967
 399  824.1402
 400  800.6343
 401  805.3458
 402  781.7661
 403  770.3171
 404  762.8693
 405  824.429
 406  903.6331
 407  896.3036
 408  727.8372
 409  711.0378
 410  786.269
 411  743.1099
 412  715.0501
 413  799.9828
 414  799.0179
 415  811.3365
 416  737.1219
 417  657.1784
 418  768.2342
 419  837.4575
 420  875.8015
 421  852.8013
 422  826.7175
 423  861.502
 424  794.8851
 425  755.5361
 426  882.1541
 427  848.3582
 428  773.6125
 429  658.4972
 430  633.0314
 431  666.4286
 432  693.6861
 433  704.7224
 434  712.1409
 435  711.8364
 436  785.9271
 437  720.1721
 438  767.8433
 439  826.6384
 440  912.0784
 441  849.6751
 442  719.3665
 443  653.5013
 444  690.94
 445  739.7164
 446  719.723
 447  654.2191
 448  774.279
 449  802.0414
 450  684.5272
 451  670.5869
 452  655.8619
 453  693.5684
 454  730.4776
 455  753.7048
 456  730.2567
 457  742.9927
 458  860.6337
 459  741.225
 460  725.439
 461  712.6943
 462  667.9808
 463  664.0818
 464  622.5162
 465  708.4774
 466  737.7078
 467  624.287
 468  640.335
 469  646.7122
 470  689.2737
 471  632.9125
 472  656.0635
 473  669.4818
 474  730.5364
 475  685.5959
 476  691.7271
 477  723.3914
 478  732.783
 479  632.9893
 480  697.0634
 481  801.278
 482  826.0734
 483  854.6437
 484  814.9608
 485  727.4658
 486  724.4163
 487  801.0607
 488  750.3173
 489  702.7941
 490  769.1796
 491  703.1448
 492  691.8745
 493  768.9499
 494  734.8765
 495  826.4383
 496  746.7807
 497  693.5895
 498  749.9299
 499  883.3912
 500  861.039
 501  881.9225
 502  785.5193
 503  928.8823
 504  940.9706
 505  932.1077
 506  889.9204
 507  946.3865
 508  978.772
 509  894.6406
 510  781.7505
 511  791.0008
