# Input file       =  1204878933.116375_cleaned.dat
# Candidate        =  PSR_0332+5434
# Telescope        =  AR
# Epoch_topo       =  58189.358242087670
# Epoch_bary       =  N/A
# T_sample         =  0.002
# Data Folded      =  7208960
# Data Avg         =  0.49500856260261 
# Data StdDev      =  5.79059963086341 
# Profile Bins     =  512
# Profile Avg      =  6969.39437031662 
# Profile StdDev   =  687.107779548574 
# Reduced chi-sqr  =  1.146
# Prob(Noise)      <  0.0122   (~2.3 sigma)
# P_topo (ms)      =  714.578397180726  +/- 5.79e-05
# P'_topo (s/s)    =  -0                +/- 3.11e-11
# P''_topo (s/s^2) =  0                 +/- 1.4e-14
# P_bary (ms)      =  N/A
# P'_bary (s/s)    =  N/A
# P''_bary (s/s^2) =  N/A
# P_orb (s)        =  N/A
# asin(i)/c (s)    =  N/A
# eccentricity     =  N/A
# w (rad)          =  N/A
# T_peri           =  N/A
######################################################
   0  6625.136
   1  6591.577
   2  6395.39
   3  6228.958
   4  6514.312
   5  6586.242
   6  6437.829
   7  6258.435
   8  6410.376
   9  6322.514
  10  6241.438
  11  6556.804
  12  6720.84
  13  6905.803
  14  7028.089
  15  7063.733
  16  6549.056
  17  6467.096
  18  6359.559
  19  6510.037
  20  6575.019
  21  6522.267
  22  6198.972
  23  6427.808
  24  6479.859
  25  6485.416
  26  6729.796
  27  6501.075
  28  6754.447
  29  7496.883
  30  8030.476
  31  7807.192
  32  7716.808
  33  7031.293
  34  6704.1
  35  6232.69
  36  6410.716
  37  6505.813
  38  6609.168
  39  7035.165
  40  6769.717
  41  7022.035
  42  6965.914
  43  6643.871
  44  6638.002
  45  7197.55
  46  7759.694
  47  8056.391
  48  7816.412
  49  7632.067
  50  7236.738
  51  6919.828
  52  6556.84
  53  6729.817
  54  6748.984
  55  7272.964
  56  7211.288
  57  6795.413
  58  6337.101
  59  6845.776
  60  7176.745
  61  7191.977
  62  7999.6
  63  8098.196
  64  8177.467
  65  7676.479
  66  7488.213
  67  7559.044
  68  7416.586
  69  6900.719
  70  7289.385
  71  7231.547
  72  7174.506
  73  7539.833
  74  7268.473
  75  7227.158
  76  6946.971
  77  7154.273
  78  7398.754
  79  7187.895
  80  7961.184
  81  8005.17
  82  7506.388
  83  7239.458
  84  6873.757
  85  6730.335
  86  6745.739
  87  6649.605
  88  6697.606
  89  6655.897
  90  7074.397
  91  7107.973
  92  7052.988
  93  7020.229
  94  7326.036
  95  7969.383
  96  7856.918
  97  7585.848
  98  6962.427
  99  6668.839
 100  7157.179
 101  7218.81
 102  6783.124
 103  6702.762
 104  7002.349
 105  6769.759
 106  6915.399
 107  6755.276
 108  6763.366
 109  6459.572
 110  7148.849
 111  7261.647
 112  7610.884
 113  7619.382
 114  7221.545
 115  6851.605
 116  6736.856
 117  6746.188
 118  6248.126
 119  6249.485
 120  6269.329
 121  6414.519
 122  6280.715
 123  5962.637
 124  6337.192
 125  6208.786
 126  6901.873
 127  7257.632
 128  7103.84
 129  7511.183
 130  7640.035
 131  7279.467
 132  7219.191
 133  6981.375
 134  6662.162
 135  7054.965
 136  7020.306
 137  6988.338
 138  6601.27
 139  6544.685
 140  6452.222
 141  6485.002
 142  6355.043
 143  6639.727
 144  6791.371
 145  7092.85
 146  7936.636
 147  7741.077
 148  6949.812
 149  6577.003
 150  6443.78
 151  5952.614
 152  5972.045
 153  6420.807
 154  6813.868
 155  6860.703
 156  6522.444
 157  6296.888
 158  6571.752
 159  6754.755
 160  6910.679
 161  7015.204
 162  7162.218
 163  7725.121
 164  7346.902
 165  6642.465
 166  7008.62
 167  6897.35
 168  6740.21
 169  7153.784
 170  6845.697
 171  7017.092
 172  6832.885
 173  6601.838
 174  6304.317
 175  6521.745
 176  7042.618
 177  7043.871
 178  7305.114
 179  7804.277
 180  7715.916
 181  7290.882
 182  6991.203
 183  6427.99
 184  6522.706
 185  6703.593
 186  6878.435
 187  6476.526
 188  6207.534
 189  6811.188
 190  6964.742
 191  6578.609
 192  6598.602
 193  6798.254
 194  7038.24
 195  7315.062
 196  7615.84
 197  7277.34
 198  7355.687
 199  7465.049
 200  7367.154
 201  6892.628
 202  6746.446
 203  6620.901
 204  6821.853
 205  6835.497
 206  7113.726
 207  7260.327
 208  6822.503
 209  6840.865
 210  7218.2
 211  7740.911
 212  7623.805
 213  7977.049
 214  7484.153
 215  7598.728
 216  7900.333
 217  8070.647
 218  8056.32
 219  8017.339
 220  7884.442
 221  7515.948
 222  7121.435
 223  6407.005
 224  6461.555
 225  6812.461
 226  7276.635
 227  7076.749
 228  7124.755
 229  7327.28
 230  7234.108
 231  6623.317
 232  6539.125
 233  6293.531
 234  6410.906
 235  6390.249
 236  6631.5
 237  6179.497
 238  6186.669
 239  6098.625
 240  5861.59
 241  6160.624
 242  6546.465
 243  6967.713
 244  7185.927
 245  7542.765
 246  7261.785
 247  6858.97
 248  6756.521
 249  6778.276
 250  6904.711
 251  6976.913
 252  6812.935
 253  7119.321
 254  6797.706
 255  6586.395
 256  6187.052
 257  6503.282
 258  6842.298
 259  6724.071
 260  7551.567
 261  8013.259
 262  7753.721
 263  7251.946
 264  7140.587
 265  6760.925
 266  6928.904
 267  6831.631
 268  6943.143
 269  7244.869
 270  7175.025
 271  6929.168
 272  6834.637
 273  6668.656
 274  6547.675
 275  6861.969
 276  7322.734
 277  7629.341
 278  7979.368
 279  8158.447
 280  7827.409
 281  7343.79
 282  6969.241
 283  7016.975
 284  6666.133
 285  6996.818
 286  7161.236
 287  7032.204
 288  6927.075
 289  7060.706
 290  6680.291
 291  6705.692
 292  7115.234
 293  7748.187
 294  8247.61
 295  8222.272
 296  7826.801
 297  7121.991
 298  7003.038
 299  7271.26
 300  6986.11
 301  6677.009
 302  6977.173
 303  7100.61
 304  6946.781
 305  6868.383
 306  6401.767
 307  6754.271
 308  6828.208
 309  7309.309
 310  7987.611
 311  7786.016
 312  8021.854
 313  7731.582
 314  7343.567
 315  7327.153
 316  6801.435
 317  6740.707
 318  7361.867
 319  7120.056
 320  7258.783
 321  7294.204
 322  6758.374
 323  6354.711
 324  6902.402
 325  7295.025
 326  7006.503
 327  7340.812
 328  7684.74
 329  7278.661
 330  6333.495
 331  6135.637
 332  6471.852
 333  6440.591
 334  6683.777
 335  6500.652
 336  6570.254
 337  6310.521
 338  6246.431
 339  6190.501
 340  6117.017
 341  6453.574
 342  6768.536
 343  6949.173
 344  7403.314
 345  6984.022
 346  6762.329
 347  6179.388
 348  6236.47
 349  6669.808
 350  6463.446
 351  6625.992
 352  7047.467
 353  6779.671
 354  6350.673
 355  6217.062
 356  6174.797
 357  6332.407
 358  6815.083
 359  6960.822
 360  7255.854
 361  7251.749
 362  7303.326
 363  6529.556
 364  6309.186
 365  6295.599
 366  5659.947
 367  5586.115
 368  5932.081
 369  6589.522
 370  6581.854
 371  6489.254
 372  6214.822
 373  6009.77
 374  6362.544
 375  6620.675
 376  6836.625
 377  7154.412
 378  7372.873
 379  7024.005
 380  6360.847
 381  6242.778
 382  6317.201
 383  6183.335
 384  6312.997
 385  6421.844
 386  6417.668
 387  6004.542
 388  5720.905
 389  6045.453
 390  6186.298
 391  6858.131
 392  7088.931
 393  7517.598
 394  7322.367
 395  7254.9
 396  6709.377
 397  6526.247
 398  6464.573
 399  6341.166
 400  5948.975
 401  6054.655
 402  6527.5
 403  6723.7
 404  6563.042
 405  6103.845
 406  6392.622
 407  6373.959
 408  7077.994
 409  7407.469
 410  7505.845
 411  7186.181
 412  6639.567
 413  6509.282
 414  6401.248
 415  6693.875
 416  6975.057
 417  7041.812
 418  6886.868
 419  7055.112
 420  6951.89
 421  6628.457
 422  7096.903
 423  7130.611
 424  7312.126
 425  7678.652
 426  8310.29
 427  8397.199
 428  7810.597
 429  7380.866
 430  7699.58
 431  7403.007
 432  7018.787
 433  7131.322
 434  7280.602
 435  7474.743
 436  7614.875
 437  7254.533
 438  6898.114
 439  6860.739
 440  7591.29
 441  7494.845
 442  8058.834
 443  8206.438
 444  7995.459
 445  7644.395
 446  7349.158
 447  7250.323
 448  7140.062
 449  7010.619
 450  7088.586
 451  7134.037
 452  7241.105
 453  7301.483
 454  7169.026
 455  7544.895
 456  7602.158
 457  7792.126
 458  7685.188
 459  8136.344
 460  8307.809
 461  8311.061
 462  8116.49
 463  7850.179
 464  7506.178
 465  7412.355
 466  7944.438
 467  7765.32
 468  7799.598
 469  7325.177
 470  6757.399
 471  6658.229
 472  7000.553
 473  7051.757
 474  7187.673
 475  7772.313
 476  7773.417
 477  7977.927
 478  7372.354
 479  7106.773
 480  7215.922
 481  6990.864
 482  6929.792
 483  6871.138
 484  6683.133
 485  6184.136
 486  6263.029
 487  6490.787
 488  6584.562
 489  6727.253
 490  7012.589
 491  7647.803
 492  7905.511
 493  7693.24
 494  7482.683
 495  6795.432
 496  6554.632
 497  6372.453
 498  6148.645
 499  6333.525
 500  6499.713
 501  6675.074
 502  6997.116
 503  6519.417
 504  6304.546
 505  6418.235
 506  6190.413
 507  6788.593
 508  7098.424
 509  7471.259
 510  7767.775
 511  7300.888
