# Input file       =  1204204392.112733_cleaned.dat
# Candidate        =  PSR_0332+5434
# Telescope        =  AR
# Epoch_topo       =  58181.551054545518
# Epoch_bary       =  N/A
# T_sample         =  0.002
# Data Folded      =  7340032
# Data Avg         =  0.0488648888309073
# Data StdDev      =  1.0002543633993  
# Profile Bins     =  512
# Profile Avg      =  700.541262141427 
# Profile StdDev   =  119.763492078908 
# Reduced chi-sqr  =  1.367
# Prob(Noise)      <  6.25e-08   (~5.3 sigma)
# P_topo (ms)      =  714.580084725893  +/- 0.000288
# P'_topo (s/s)    =  -0                +/- 1.52e-10
# P''_topo (s/s^2) =  0                 +/- 6.71e-14
# P_bary (ms)      =  N/A
# P'_bary (s/s)    =  N/A
# P''_bary (s/s^2) =  N/A
# P_orb (s)        =  N/A
# asin(i)/c (s)    =  N/A
# eccentricity     =  N/A
# w (rad)          =  N/A
# T_peri           =  N/A
######################################################
   0  981.1662
   1  821.9951
   2  688.0541
   3  524.4875
   4  511.287
   5  540.3407
   6  580.345
   7  557.2405
   8  614.9538
   9  556.7138
  10  530.9668
  11  620.7095
  12  624.3735
  13  639.9563
  14  651.5418
  15  666.5474
  16  699.5995
  17  695.9546
  18  653.6541
  19  689.2911
  20  739.8596
  21  651.1924
  22  618.0485
  23  636.8008
  24  652.2933
  25  684.2106
  26  685.0335
  27  649.2859
  28  663.3823
  29  733.6698
  30  737.6667
  31  716.8508
  32  670.4089
  33  652.3309
  34  709.1682
  35  681.6482
  36  675.5034
  37  676.2669
  38  719.5015
  39  686.4206
  40  692.7585
  41  746.1907
  42  789.1365
  43  768.8132
  44  795.5499
  45  811.0491
  46  837.5507
  47  807.5985
  48  720.1268
  49  708.2802
  50  738.3479
  51  767.0086
  52  738.4219
  53  800.873
  54  797.5304
  55  752.0243
  56  759.7329
  57  731.9042
  58  710.9733
  59  647.7017
  60  596.0938
  61  585.4545
  62  659.3839
  63  700.1839
  64  616.6016
  65  581.7419
  66  616.4322
  67  592.3282
  68  539.3658
  69  487.8556
  70  563.265
  71  525.1487
  72  547.639
  73  592.5984
  74  590.6246
  75  582.4794
  76  516.4048
  77  506.9418
  78  472.8026
  79  502.1848
  80  532.653
  81  430.2205
  82  426.0996
  83  432.8496
  84  466.1054
  85  529.3913
  86  535.748
  87  575.6541
  88  548.4338
  89  502.0966
  90  547.3847
  91  540.1515
  92  540.3791
  93  599.4067
  94  551.7789
  95  522.1219
  96  492.9924
  97  588.0824
  98  688.083
  99  637.5642
 100  712.725
 101  705.4218
 102  660.3959
 103  629.6819
 104  696.0857
 105  672.4307
 106  705.8566
 107  753.2994
 108  798.0403
 109  804.8853
 110  797.1812
 111  804.0557
 112  804.9222
 113  763.184
 114  775.8786
 115  788.515
 116  714.3539
 117  790.8646
 118  760.5343
 119  772.1808
 120  784.6124
 121  827.0374
 122  880.1232
 123  823.9349
 124  882.174
 125  794.4
 126  778.0356
 127  821.3474
 128  800.9492
 129  819.5964
 130  771.3729
 131  799.3959
 132  813.2784
 133  741.6541
 134  750.2388
 135  605.0454
 136  607.5815
 137  710.8837
 138  761.8667
 139  669.3463
 140  675.6335
 141  679.5502
 142  633.6431
 143  675.7565
 144  657.214
 145  669.2146
 146  655.056
 147  605.154
 148  619.0155
 149  620.568
 150  578.0687
 151  610.5914
 152  621.6391
 153  603.7825
 154  579.8173
 155  674.1393
 156  737.6246
 157  685.6826
 158  641.9764
 159  628.8218
 160  604.9281
 161  633.7605
 162  621.4534
 163  641.4369
 164  653.7037
 165  677.4913
 166  736.8296
 167  793.0579
 168  767.4094
 169  682.519
 170  658.2427
 171  747.0505
 172  816.0698
 173  778.6262
 174  841.905
 175  836.1639
 176  819.0575
 177  773.7925
 178  880.0782
 179  877.2553
 180  801.6038
 181  890.5183
 182  869.8474
 183  834.8527
 184  892.195
 185  907.4172
 186  956.4871
 187  828.3898
 188  793.5378
 189  908.6437
 190  929.3544
 191  934.166
 192  876.7133
 193  849.9856
 194  942.4598
 195  907.3527
 196  886.5558
 197  849.5815
 198  825.3864
 199  772.2465
 200  825.0004
 201  847.5469
 202  837.7834
 203  814.7881
 204  855.5284
 205  801.8113
 206  825.5729
 207  862.9133
 208  810.0209
 209  811.3393
 210  844.9799
 211  750.6823
 212  808.9612
 213  781.4692
 214  727.0292
 215  819.2592
 216  845.2015
 217  787.4026
 218  783.7184
 219  851.1356
 220  903.9811
 221  845.1633
 222  760.9832
 223  720.8816
 224  692.2847
 225  750.8406
 226  748.4235
 227  813.2917
 228  845.3672
 229  798.022
 230  705.1848
 231  672.7985
 232  647.0782
 233  697.0413
 234  769.0862
 235  699.3328
 236  661.4183
 237  650.0777
 238  743.9476
 239  737.4987
 240  737.2166
 241  704.4896
 242  756.2945
 243  727.2963
 244  765.0942
 245  748.1365
 246  750.3675
 247  802.0607
 248  843.2992
 249  888.7187
 250  812.8328
 251  829.3263
 252  795.6936
 253  803.1089
 254  817.1015
 255  855.8684
 256  864.6304
 257  858.955
 258  880.9359
 259  857.684
 260  814.7895
 261  806.2205
 262  799.0996
 263  789.9492
 264  781.1552
 265  774.431
 266  773.2217
 267  709.8649
 268  732.4141
 269  760.6455
 270  776.6376
 271  702.671
 272  775.9274
 273  812.8264
 274  840.9357
 275  852.6978
 276  737.3905
 277  745.2403
 278  719.4335
 279  748.4835
 280  819.3724
 281  768.6948
 282  780.261
 283  798.6222
 284  822.9531
 285  796.8152
 286  689.9505
 287  774.2474
 288  765.52
 289  740.2134
 290  736.3248
 291  749.3776
 292  754.7602
 293  782.8136
 294  775.6573
 295  734.9835
 296  698.6481
 297  590.7337
 298  534.1096
 299  627.4691
 300  676.0506
 301  626.9877
 302  659.1841
 303  629.7695
 304  676.7501
 305  678.994
 306  742.8184
 307  727.2621
 308  710.5917
 309  702.6991
 310  719.7008
 311  736.1109
 312  769.3704
 313  687.1671
 314  686.0139
 315  747.7413
 316  727.9898
 317  736.1428
 318  687.6973
 319  682.5897
 320  731.1639
 321  754.9939
 322  719.4371
 323  708.451
 324  745.1033
 325  675.3357
 326  687.2721
 327  673.1829
 328  664.5786
 329  669.7307
 330  713.9009
 331  808.8023
 332  775.8964
 333  711.2355
 334  714.9464
 335  674.9387
 336  720.2806
 337  792.9559
 338  775.4617
 339  718.9515
 340  731.5139
 341  625.7457
 342  625.7186
 343  642.5931
 344  659.015
 345  708.2653
 346  674.6004
 347  682.7416
 348  648.4771
 349  628.1661
 350  635.1947
 351  733.9868
 352  746.8443
 353  705.8789
 354  664.5425
 355  620.8213
 356  563.0558
 357  630.1649
 358  653.7547
 359  624.3848
 360  578.3655
 361  576.5316
 362  646.8049
 363  671.8753
 364  710.0344
 365  647.0191
 366  622.3585
 367  628.7104
 368  651.4158
 369  672.236
 370  695.2929
 371  698.8229
 372  684.8258
 373  628.519
 374  559.6474
 375  566.882
 376  556.4456
 377  574.7883
 378  591.6491
 379  552.5912
 380  543.8557
 381  591.8898
 382  659.2518
 383  654.9095
 384  597.5335
 385  609.548
 386  689.0411
 387  605.754
 388  566.7548
 389  640.35
 390  670.5204
 391  697.5078
 392  812.098
 393  752.2607
 394  678.9521
 395  657.9886
 396  670.2551
 397  669.4719
 398  668.9066
 399  747.1484
 400  733.1154
 401  782.2288
 402  771.198
 403  724.5351
 404  741.6039
 405  731.0483
 406  691.1614
 407  731.0615
 408  762.7278
 409  617.3617
 410  704.2394
 411  761.3323
 412  799.6235
 413  769.1072
 414  747.7838
 415  729.6321
 416  685.85
 417  690.0687
 418  746.7036
 419  628.0979
 420  668.2797
 421  605.808
 422  553.8557
 423  666.48
 424  687.5743
 425  620.5003
 426  603.2977
 427  640.4584
 428  701.2016
 429  685.8353
 430  636.6642
 431  654.3639
 432  600.3934
 433  591.2618
 434  595.3919
 435  619.5975
 436  617.0134
 437  598.1954
 438  557.3885
 439  559.2125
 440  503.2596
 441  479.8383
 442  491.9797
 443  598.2505
 444  547.7387
 445  511.1555
 446  514.8695
 447  505.5779
 448  428.4603
 449  500.2127
 450  525.5782
 451  462.2407
 452  488.3426
 453  504.4005
 454  483.0689
 455  565.2668
 456  541.2494
 457  475.9197
 458  495.1101
 459  556.6044
 460  642.9922
 461  726.1991
 462  749.9775
 463  718.6852
 464  707.8412
 465  714.6653
 466  716.2219
 467  661.4474
 468  737.5635
 469  758.4175
 470  751.8016
 471  764.9484
 472  741.7964
 473  666.9655
 474  727.4616
 475  735.9295
 476  780.9051
 477  745.9193
 478  723.9486
 479  763.7835
 480  780.178
 481  733.6786
 482  730.7452
 483  701.1797
 484  700.8085
 485  741.1305
 486  791.0821
 487  779.1898
 488  736.6956
 489  704.8017
 490  670.7089
 491  729.7585
 492  823.4762
 493  772.4583
 494  747.8328
 495  726.0584
 496  719.8176
 497  663.4319
 498  597.164
 499  608.4432
 500  613.9596
 501  681.5699
 502  737.3516
 503  652.4763
 504  566.6475
 505  591.6619
 506  695.947
 507  676.215
 508  689.9646
 509  822.0471
 510  868.4568
 511  914.8291
