# Input file       =  1204462849.099223_cleaned.dat
# Candidate        =  PSR_0332+5434
# Telescope        =  AR
# Epoch_topo       =  58184.542454852119
# Epoch_bary       =  N/A
# T_sample         =  0.002
# Data Folded      =  7340032
# Data Avg         =  0.185556846111598
# Data StdDev      =  6.95817303429755 
# Profile Bins     =  1024
# Profile Avg      =  1329.68645943651 
# Profile StdDev   =  589.107053699424 
# Reduced chi-sqr  =  0.800
# Prob(Noise)      <  1   (~0.0 sigma)
# P_topo (ms)      =  714.579567917648  +/- 0.00041
# P'_topo (s/s)    =  -0                +/- 2.16e-10
# P''_topo (s/s^2) =  0                 +/- 9.55e-14
# P_bary (ms)      =  N/A
# P'_bary (s/s)    =  N/A
# P''_bary (s/s^2) =  N/A
# P_orb (s)        =  N/A
# asin(i)/c (s)    =  N/A
# eccentricity     =  N/A
# w (rad)          =  N/A
# T_peri           =  N/A
######################################################
   0  1004.709
   1  1042.12
   2  783.0123
   3  882.9097
   4  982.0857
   5  1132.124
   6  1096.911
   7  1060.108
   8  1030.896
   9  1080.097
  10  1077.839
  11  1145.52
  12  1085.56
  13  1058.656
  14  1016.447
  15  1064.967
  16  1064.756
  17  1188.696
  18  1140.215
  19  1247.48
  20  1016.648
  21  1069.535
  22  1113.445
  23  1153.606
  24  1188.839
  25  1291.838
  26  1479.17
  27  1434.208
  28  1188.245
  29  1132.482
  30  1237.298
  31  1333.761
  32  1296.524
  33  1318.961
  34  1382.828
  35  1501.401
  36  1521.764
  37  1551.935
  38  1530.13
  39  1578.373
  40  1586.457
  41  1527.749
  42  1524.333
  43  1515.666
  44  1444.287
  45  1410.646
  46  1495.835
  47  1609.108
  48  1601.804
  49  1536.943
  50  1312.438
  51  1394.14
  52  1473.999
  53  1656.561
  54  1689.528
  55  1649.975
  56  1544.435
  57  1531.032
  58  1515.738
  59  1497.697
  60  1461.214
  61  1440.943
  62  1539.853
  63  1523.938
  64  1487.952
  65  1471.105
  66  1580.753
  67  1606.495
  68  1561.449
  69  1573.199
  70  1580.353
  71  1680.461
  72  1612.301
  73  1686.861
  74  1742.946
  75  1865.781
  76  1849.61
  77  1642.197
  78  1474.74
  79  1490.544
  80  1657.176
  81  1935.346
  82  2011.514
  83  1961.717
  84  1674.134
  85  1523.404
  86  1403.894
  87  1441.349
  88  1430.55
  89  1463.917
  90  1417.852
  91  1169.009
  92  1124.888
  93  1383.358
  94  1626.55
  95  1611.217
  96  1581.44
  97  1512.29
  98  1253.528
  99  1091.559
 100  1064.438
 101  1145.13
 102  1179.065
 103  1081.786
 104  1030.808
 105  1050.868
 106  1109.006
 107  1137.473
 108  1232.503
 109  1293.198
 110  1392.844
 111  1369.756
 112  1437.418
 113  1513.356
 114  1561.484
 115  1415.005
 116  1261.743
 117  1133.04
 118  1125.267
 119  1212.107
 120  1113.582
 121  1169.074
 122  1068.145
 123  1112.344
 124  1333.853
 125  1284.7
 126  1326.601
 127  1251.064
 128  1196.155
 129  1155.372
 130  1223.094
 131  1419.646
 132  1469.485
 133  1353.99
 134  1252.247
 135  1276.193
 136  1381.93
 137  1409.131
 138  1381.556
 139  1472.281
 140  1510.853
 141  1422.995
 142  1237.525
 143  1225.99
 144  1368.816
 145  1581.467
 146  1592.348
 147  1674.662
 148  1825.177
 149  1774.501
 150  1723.642
 151  1734.924
 152  1575.918
 153  1593.024
 154  1610.615
 155  1703.77
 156  1631.596
 157  1499.116
 158  1368.884
 159  1376.436
 160  1287.497
 161  1388.319
 162  1582.943
 163  1633.721
 164  1563.454
 165  1409.021
 166  1438.329
 167  1335.472
 168  1432.423
 169  1490.044
 170  1448.39
 171  1289.521
 172  1249.092
 173  1415.453
 174  1350.18
 175  1474.178
 176  1514.158
 177  1598.62
 178  1475.927
 179  1326.079
 180  1288.284
 181  1283.948
 182  1319.622
 183  1360.394
 184  1440.069
 185  1407.717
 186  1375.673
 187  1496.776
 188  1499.999
 189  1546.365
 190  1552.423
 191  1644.196
 192  1471.04
 193  1407.931
 194  1539.109
 195  1601.703
 196  1508.059
 197  1577.754
 198  1735.56
 199  1851.513
 200  1690.884
 201  1568.568
 202  1477.306
 203  1417.079
 204  1406.453
 205  1285.364
 206  1311.532
 207  1314.419
 208  1385.936
 209  1532.307
 210  1553.282
 211  1546.691
 212  1495.15
 213  1572.002
 214  1497.655
 215  1437.037
 216  1418.5
 217  1465.739
 218  1483.057
 219  1429.273
 220  1307.158
 221  1248.814
 222  1158.976
 223  1161.839
 224  1038.188
 225  1141.451
 226  1305.769
 227  1258.085
 228  1153.405
 229  1097.108
 230  1168.82
 231  1157.803
 232  1228.609
 233  1311.438
 234  1397.054
 235  1276.576
 236  1131.403
 237  1080.672
 238  1111.209
 239  1303.994
 240  1332.416
 241  1192.403
 242  1200.135
 243  1169.275
 244  1136.938
 245  961.9752
 246  1002.229
 247  1041.999
 248  1086.366
 249  1087.858
 250  987.2288
 251  948.2783
 252  762.2451
 253  813.4858
 254  1009.35
 255  1081.618
 256  1081.017
 257  1005.894
 258  1095.931
 259  1019.165
 260  1118.786
 261  1118.059
 262  1032.093
 263  939.0463
 264  1004.717
 265  907.4088
 266  915.6362
 267  958.8461
 268  928.1562
 269  1045.24
 270  974.7928
 271  978.2805
 272  911.9256
 273  1022.907
 274  1170.903
 275  1159.66
 276  1033.922
 277  1025.839
 278  945.4599
 279  978.7661
 280  1066.373
 281  1183.331
 282  1135.11
 283  859.0226
 284  896.1025
 285  1067.297
 286  1157.793
 287  1163.056
 288  1186.617
 289  1254.296
 290  1235.987
 291  1229.406
 292  1192.759
 293  1140.234
 294  1173.172
 295  1121.909
 296  1318.9
 297  1337.616
 298  1320.031
 299  1245.05
 300  1160.813
 301  1206.32
 302  1314.601
 303  1441.848
 304  1555.666
 305  1597.933
 306  1574.374
 307  1460.246
 308  1295.957
 309  1457.803
 310  1375.79
 311  1256.605
 312  1189.856
 313  1333.245
 314  1494.934
 315  1521.818
 316  1433.946
 317  1366.406
 318  1423.471
 319  1339.045
 320  1328.788
 321  1224.356
 322  1209.613
 323  1285.807
 324  1453.729
 325  1456.172
 326  1431.924
 327  1416.637
 328  1691.256
 329  1832.839
 330  1851.986
 331  1823.893
 332  1752.554
 333  1825.764
 334  1773.904
 335  1700.241
 336  1671.791
 337  1729.756
 338  1862.892
 339  1879.02
 340  1793.907
 341  1631.243
 342  1559.929
 343  1426.691
 344  1554.091
 345  1732.558
 346  1726.838
 347  1657.109
 348  1431.159
 349  1581.354
 350  1581.711
 351  1571.194
 352  1619.741
 353  1676.066
 354  1572.356
 355  1568.608
 356  1495.418
 357  1636.001
 358  1562.208
 359  1795.175
 360  1901.779
 361  1912.756
 362  1785.222
 363  1760.592
 364  1775.594
 365  1646.086
 366  1679.518
 367  1738.271
 368  1743.087
 369  1603.186
 370  1606.802
 371  1716.557
 372  1656.833
 373  1580.39
 374  1555.419
 375  1638.75
 376  1646.061
 377  1626.064
 378  1474.778
 379  1534.269
 380  1548.489
 381  1430.887
 382  1420.407
 383  1351.422
 384  1314.601
 385  1394.998
 386  1342.081
 387  1354.135
 388  1362.537
 389  1289.782
 390  1283.857
 391  1210.365
 392  1235.017
 393  1252.82
 394  1108.47
 395  1062.233
 396  935.8625
 397  996.0207
 398  1083.771
 399  1105.444
 400  1135.283
 401  1135.57
 402  1058.966
 403  924.4309
 404  984.7446
 405  968.6207
 406  914.77
 407  885.1371
 408  979.7909
 409  1156.363
 410  1141.386
 411  1079.341
 412  1165.184
 413  1220.554
 414  1149.501
 415  973.344
 416  910.6054
 417  1068.962
 418  1095.832
 419  1110.408
 420  1041.467
 421  1031.023
 422  1127.274
 423  1144.529
 424  1116.003
 425  1033.293
 426  955.2247
 427  1071.273
 428  1178.322
 429  1384.164
 430  1398.528
 431  1384.609
 432  1190.077
 433  1236.094
 434  1142.806
 435  1180.414
 436  1113.367
 437  1058.42
 438  1006.092
 439  1068.958
 440  1176.378
 441  1207.328
 442  1180.78
 443  1025.444
 444  1076.39
 445  1130.01
 446  1217.753
 447  1302.455
 448  1332.844
 449  1388.836
 450  1321.601
 451  1259.202
 452  1285.445
 453  1230.153
 454  1254.234
 455  1320.484
 456  1338.629
 457  1382.685
 458  1386.76
 459  1592.159
 460  1661.271
 461  1605.173
 462  1594.482
 463  1577.259
 464  1538.447
 465  1471.906
 466  1476.739
 467  1478.382
 468  1522.836
 469  1494.458
 470  1622.02
 471  1643.342
 472  1669.124
 473  1635.997
 474  1803.62
 475  1823.97
 476  1840.181
 477  1663.772
 478  1616.214
 479  1563.251
 480  1499.227
 481  1526.786
 482  1634.998
 483  1675.322
 484  1736.198
 485  1653.312
 486  1558.953
 487  1480.137
 488  1515.663
 489  1613.339
 490  1602.471
 491  1495.963
 492  1326.782
 493  1269.65
 494  1315.93
 495  1419.407
 496  1501.659
 497  1548.858
 498  1587.974
 499  1619.994
 500  1743.319
 501  1825.294
 502  1847.921
 503  1879.047
 504  1833.163
 505  1792.192
 506  1700.268
 507  1622.171
 508  1706.047
 509  1980.771
 510  2051.678
 511  1987.81
 512  1788.747
 513  1690.365
 514  1631.611
 515  1644.399
 516  1670.069
 517  1634.752
 518  1797.221
 519  1749.16
 520  1707.182
 521  1632.551
 522  1634.664
 523  1714.938
 524  1792.953
 525  1842.048
 526  1667.668
 527  1686.833
 528  1715.916
 529  1672.417
 530  1515.193
 531  1512.479
 532  1721.602
 533  1797.198
 534  1672.083
 535  1616.528
 536  1634.567
 537  1526.816
 538  1531.449
 539  1437.545
 540  1461.178
 541  1277.168
 542  1325.344
 543  1455.026
 544  1540.766
 545  1439.109
 546  1527.627
 547  1401.561
 548  1401.655
 549  1300.358
 550  1280.423
 551  1294.442
 552  1421.355
 553  1308.665
 554  1369.574
 555  1401.136
 556  1447.495
 557  1373.099
 558  1205.696
 559  1265.823
 560  1313.776
 561  1300.055
 562  1353.499
 563  1437.754
 564  1561.482
 565  1517.195
 566  1378.759
 567  1347.771
 568  1385.729
 569  1465.478
 570  1419.87
 571  1348.543
 572  1424.098
 573  1318.677
 574  1376.305
 575  1496.085
 576  1690.917
 577  1799.726
 578  1867.234
 579  1752.272
 580  1680.478
 581  1701.734
 582  1672.861
 583  1635.529
 584  1514.41
 585  1482.687
 586  1571.34
 587  1642.881
 588  1842.935
 589  1905.741
 590  1933.517
 591  1969.838
 592  1912.051
 593  1711.662
 594  1694.33
 595  1728.8
 596  1713.875
 597  1726.007
 598  1756.02
 599  1849.104
 600  2025.614
 601  2080.079
 602  2048.898
 603  2017.995
 604  2097.482
 605  2300.121
 606  2393.094
 607  2442.517
 608  2425.898
 609  2402.244
 610  2320.305
 611  2237.346
 612  2267.538
 613  2281.152
 614  2223.334
 615  2134.95
 616  2042.827
 617  1877.943
 618  1861.358
 619  1863.53
 620  1818.741
 621  1805.303
 622  1805.102
 623  1773.765
 624  1796.869
 625  1801.36
 626  1779.389
 627  1719.828
 628  1620.929
 629  1556.115
 630  1492.702
 631  1510.84
 632  1613.049
 633  1463.397
 634  1496.855
 635  1557.033
 636  1770.33
 637  1738.701
 638  1529.064
 639  1389.84
 640  1298.182
 641  1243.352
 642  1281.203
 643  1271.719
 644  1131.94
 645  1144.066
 646  1189.768
 647  1044.49
 648  1042.185
 649  887.3661
 650  970.4937
 651  952.4018
 652  961.927
 653  943.9252
 654  914.3502
 655  830.7551
 656  897.769
 657  1082.648
 658  1074.297
 659  905.5635
 660  778.1876
 661  955.9645
 662  1141.059
 663  1210.12
 664  1145.409
 665  1026.92
 666  963.0462
 667  1056.843
 668  974.793
 669  996.2906
 670  947.4893
 671  1121.797
 672  1074.763
 673  1087.081
 674  883.8038
 675  962.6261
 676  1004.596
 677  1092.875
 678  1242.832
 679  1330.34
 680  1317.615
 681  1109.936
 682  960.3539
 683  829.9471
 684  845.2827
 685  914.966
 686  953.927
 687  964.6606
 688  909.6034
 689  904.0488
 690  1065.936
 691  1083.898
 692  1016.78
 693  866.5135
 694  829.0198
 695  789.4978
 696  953.7021
 697  1115.993
 698  1166.491
 699  1170.698
 700  1162.333
 701  1255.556
 702  1124.109
 703  1091.146
 704  988.6178
 705  993.7078
 706  970.5332
 707  1099.295
 708  1049.216
 709  1020.937
 710  1070.226
 711  1159.102
 712  1222.748
 713  1141.512
 714  940.1269
 715  849.8394
 716  872.9827
 717  953.7217
 718  1134.231
 719  1205.435
 720  1273.215
 721  1269.155
 722  1194.72
 723  1125.908
 724  993.0461
 725  918.9934
 726  1013.02
 727  1092.419
 728  1170.384
 729  1144.499
 730  1336.018
 731  1461.594
 732  1508.627
 733  1485.872
 734  1384.11
 735  1223.199
 736  1260.923
 737  1375.371
 738  1454.072
 739  1524.767
 740  1373.126
 741  1265.623
 742  1234.349
 743  1273.172
 744  1170.097
 745  1173.802
 746  1166.38
 747  1227.418
 748  1143.076
 749  1101.684
 750  1134.788
 751  1129.407
 752  1080.043
 753  1068.43
 754  1112.186
 755  1031.585
 756  964.9804
 757  981.9281
 758  1099.595
 759  1133.383
 760  1159.366
 761  1283.432
 762  1264.283
 763  1257.44
 764  1379.998
 765  1452.686
 766  1504.86
 767  1323.536
 768  1145.461
 769  1136.981
 770  970.1194
 771  949.1241
 772  1096.832
 773  1178.602
 774  1295.571
 775  1351.867
 776  1276.502
 777  1306.745
 778  1305.927
 779  1398.607
 780  1447.324
 781  1310.431
 782  1354.489
 783  1259.337
 784  1291.711
 785  1253.199
 786  1376.903
 787  1377.799
 788  1458.532
 789  1385.388
 790  1287.504
 791  1219.199
 792  1264.79
 793  1321.618
 794  1346.062
 795  1316.255
 796  1309.255
 797  1165.965
 798  1137.449
 799  1016.337
 800  1087.318
 801  1119.266
 802  1131.402
 803  1116.391
 804  1102.102
 805  1098.334
 806  1097.475
 807  957.1346
 808  914.4848
 809  974.7189
 810  960.6908
 811  1087.417
 812  1102.849
 813  1100.532
 814  979.2864
 815  945.1273
 816  917.3437
 817  1019.777
 818  989.663
 819  882.4999
 820  921.0903
 821  1021.754
 822  1188.077
 823  1284.784
 824  1087.361
 825  1086.868
 826  899.3611
 827  916.4187
 828  920.6362
 829  874.4727
 830  956.6246
 831  1026.713
 832  1043.375
 833  957.5026
 834  958.1754
 835  937.4799
 836  817.6837
 837  687.3588
 838  723.9069
 839  871.7635
 840  1046.162
 841  1115.39
 842  1051.658
 843  909.1766
 844  797.4741
 845  835.3261
 846  822.7062
 847  839.7562
 848  795.058
 849  742.2877
 850  830.4324
 851  863.0441
 852  1045.831
 853  955.0568
 854  774.2674
 855  845.5181
 856  983.0774
 857  1261.617
 858  1256.328
 859  1139.518
 860  1046.527
 861  974.4074
 862  972.8427
 863  1006.002
 864  1048.794
 865  1091.009
 866  1127.807
 867  1193.547
 868  1161.723
 869  1175.154
 870  1186.183
 871  1224.25
 872  1259.847
 873  1082.827
 874  1027.671
 875  1161.82
 876  1241.08
 877  1335.619
 878  1310.758
 879  1219.182
 880  1005.827
 881  887.7983
 882  1082.718
 883  1037.462
 884  1072.639
 885  1149.764
 886  1175.015
 887  1161.838
 888  1174.878
 889  1230.583
 890  1227.512
 891  1155.752
 892  1294.409
 893  1306.331
 894  1410.65
 895  1333.054
 896  1191.411
 897  1139.405
 898  1099.461
 899  1150.727
 900  1323.983
 901  1378.051
 902  1420.418
 903  1485.785
 904  1465.561
 905  1507.557
 906  1542.922
 907  1518.385
 908  1399.956
 909  1335.922
 910  1324.487
 911  1419.336
 912  1343.585
 913  1373.978
 914  1482.322
 915  1546.67
 916  1598.46
 917  1616.046
 918  1610.649
 919  1670.468
 920  1780.939
 921  1817.778
 922  1823.408
 923  1725.239
 924  1703.254
 925  1616.697
 926  1414.946
 927  1413.401
 928  1598.699
 929  1752.152
 930  1634.706
 931  1553.597
 932  1465.746
 933  1540.368
 934  1532.977
 935  1548.661
 936  1494.248
 937  1396.297
 938  1510.307
 939  1493.192
 940  1445.89
 941  1490.944
 942  1598.678
 943  1547.293
 944  1529.997
 945  1530.261
 946  1524.586
 947  1400.622
 948  1304.515
 949  1332.926
 950  1276.972
 951  1159.794
 952  1151.251
 953  1216.919
 954  1223.752
 955  1285.126
 956  1370.292
 957  1326.966
 958  1159.905
 959  1129.866
 960  1276.641
 961  1254.781
 962  1141.391
 963  1088.926
 964  1150.073
 965  1127.358
 966  1000.707
 967  929.7132
 968  1118.278
 969  1244.393
 970  1458.302
 971  1474.202
 972  1352.419
 973  1203.851
 974  1012.571
 975  1033.847
 976  985.6932
 977  969.0519
 978  1070.259
 979  1215.103
 980  1211.408
 981  1202.129
 982  1127.03
 983  986.7291
 984  952.899
 985  976.6874
 986  1047.62
 987  1097.064
 988  1079.545
 989  997.7441
 990  920.7399
 991  930.9705
 992  947.8667
 993  1017.35
 994  1000.145
 995  1084.34
 996  1020.558
 997  1165.882
 998  1136.084
 999  1211.826
1000  1229.982
1001  1161.546
1002  1078.799
1003  1023.795
1004  1091.157
1005  1121.753
1006  1040.067
1007  960.8163
1008  827.1644
1009  864.3281
1010  925.6303
1011  1053.719
1012  953.6556
1013  961.6714
1014  1036.622
1015  998.7623
1016  1054.389
1017  1057.96
1018  1155.964
1019  1032.323
1020  896.2741
1021  996.665
1022  951.888
1023  996.1463
