# Input file       =  1205568517.108477_cleaned.dat
# Candidate        =  PSR_0332+5434
# Telescope        =  AR
# Epoch_topo       =  58197.339538292559
# Epoch_bary       =  N/A
# T_sample         =  0.002
# Data Folded      =  7405568
# Data Avg         =  0.637976209244658
# Data StdDev      =  6.96449494499694 
# Profile Bins     =  512
# Profile Avg      =  9227.67231450187 
# Profile StdDev   =  837.594533070552 
# Reduced chi-sqr  =  1.940
# Prob(Noise)      <  4.4e-33   (~11.9 sigma)
# P_topo (ms)      =  714.575575426386  +/- 2.13e-05
# P'_topo (s/s)    =  -0                +/- 1.11e-11
# P''_topo (s/s^2) =  0                 +/- 4.88e-15
# P_bary (ms)      =  N/A
# P'_bary (s/s)    =  N/A
# P''_bary (s/s^2) =  N/A
# P_orb (s)        =  N/A
# asin(i)/c (s)    =  N/A
# eccentricity     =  N/A
# w (rad)          =  N/A
# T_peri           =  N/A
######################################################
   0  8743.358
   1  8561.235
   2  9511.081
   3  9713.371
   4  9453.251
   5  8607.614
   6  8504.618
   7  8656.926
   8  8593.413
   9  9759.982
  10  10536.45
  11  11066.89
  12  10319.07
  13  9160.471
  14  9187.204
  15  8708.154
  16  8510.261
  17  8608.601
  18  8780.8
  19  8990.38
  20  9005.583
  21  8477.002
  22  8573.801
  23  8683.074
  24  8693.979
  25  8346.819
  26  9229.345
  27  10495.93
  28  10852.69
  29  9792.117
  30  9010.218
  31  8573.922
  32  8393.398
  33  8440.803
  34  8921.898
  35  8864.971
  36  9212.743
  37  9177.452
  38  8434.062
  39  8375.978
  40  8778.887
  41  8720.762
  42  8987.082
  43  10136.74
  44  10792.21
  45  10076.19
  46  9227.068
  47  8368.967
  48  8409.727
  49  8793.675
  50  8707.95
  51  9224.214
  52  9823.539
  53  9212.02
  54  8682.534
  55  8367.105
  56  8509.089
  57  8616.807
  58  9253.56
  59  9818.269
  60  10733.39
  61  10656.12
  62  9381.755
  63  8850.506
  64  8638.93
  65  8557.364
  66  8280.962
  67  9019.629
  68  9751.188
  69  9331.073
  70  8538.715
  71  7985.3
  72  8002.252
  73  8341.847
  74  8839.034
  75  9805.713
  76  10736.91
  77  10889.73
  78  10545.12
  79  8963.9
  80  8440.971
  81  8268.709
  82  8402.576
  83  8598.626
  84  8921.026
  85  9378.185
  86  9376.532
  87  8509.572
  88  8006.801
  89  8042.195
  90  7971.378
  91  8430.479
  92  9122.933
  93  10152.91
  94  10297.89
  95  9451.731
  96  8682.26
  97  7955.558
  98  7678.624
  99  7532.235
 100  7951.932
 101  8910.195
 102  9181.118
 103  8720.8
 104  7933.983
 105  7766.939
 106  8072.458
 107  7950.088
 108  8173.616
 109  8947.069
 110  9977.653
 111  9748.474
 112  9159.893
 113  8178.309
 114  7898.206
 115  7589.071
 116  7489.115
 117  8095.192
 118  8390.586
 119  8837.373
 120  8043.357
 121  7998.426
 122  8027.297
 123  7827.714
 124  8364.062
 125  9027.145
 126  10102.73
 127  10248.31
 128  9032.972
 129  8159.794
 130  8202.085
 131  8056.548
 132  7885.812
 133  8053.072
 134  8861.229
 135  9185.912
 136  8306.762
 137  7888.015
 138  7949.33
 139  8208.468
 140  8759.262
 141  8945.1
 142  10133.67
 143  10232.62
 144  9923.4
 145  9206.01
 146  8866.882
 147  8615.348
 148  8497.182
 149  8388.249
 150  8623.256
 151  9440.033
 152  9198.949
 153  8628.854
 154  8269.503
 155  8514.396
 156  8793.655
 157  9044.443
 158  9758.928
 159  10440.31
 160  10808.09
 161  10341.47
 162  9735.343
 163  9127.243
 164  8266.554
 165  8124.772
 166  8664.109
 167  9430.927
 168  9586.522
 169  9471.488
 170  8842.102
 171  8682.415
 172  8916.216
 173  8601.496
 174  9058.631
 175  10133.97
 176  11389.21
 177  11157.73
 178  10165.46
 179  8998.501
 180  8565.874
 181  8339.327
 182  8369.528
 183  8896.309
 184  9506.584
 185  9849.526
 186  9399.896
 187  8735.754
 188  8184.452
 189  8432.297
 190  8531.64
 191  9644.072
 192  10857.7
 193  10997.55
 194  10141.04
 195  8917.58
 196  8616.12
 197  8377.674
 198  8179.177
 199  8061.2
 200  9003.57
 201  9307.3
 202  8598.216
 203  8196.523
 204  8072.008
 205  8522.52
 206  8952.125
 207  9193.437
 208  10263.9
 209  10593.03
 210  10235.17
 211  9243.499
 212  8699.338
 213  9173.354
 214  8780.009
 215  8578.184
 216  8933.938
 217  9486.453
 218  9489.73
 219  8763.034
 220  8374.633
 221  8649.416
 222  9088.379
 223  9298.479
 224  9734.226
 225  10840.49
 226  10968.6
 227  10088.87
 228  9564.344
 229  9229.558
 230  8724.243
 231  8831.252
 232  9251.016
 233  9616.779
 234  10141.05
 235  9999.639
 236  9123.039
 237  8681.206
 238  8896.773
 239  9181.03
 240  9794.675
 241  10117.05
 242  11099.77
 243  11526.88
 244  10169.84
 245  9662.136
 246  9482.357
 247  8747.725
 248  8825.979
 249  9491.875
 250  10352.59
 251  10300.21
 252  9702.256
 253  8774.309
 254  8734.678
 255  8665.107
 256  8952.51
 257  10067.98
 258  11490.84
 259  11996.38
 260  10620.73
 261  9440.035
 262  8625.56
 263  8602.228
 264  8543.94
 265  9039.19
 266  9950.797
 267  10137.82
 268  9598.749
 269  8629.944
 270  8597.675
 271  8730.562
 272  8864.514
 273  9525.276
 274  10427.3
 275  11373.57
 276  10717.31
 277  9655.501
 278  9084.937
 279  8734.731
 280  8747.174
 281  8497.962
 282  9182.599
 283  9563.263
 284  10163.26
 285  9389.975
 286  8359.518
 287  8882.08
 288  9234.036
 289  9361.102
 290  9617.24
 291  10501.1
 292  10542.02
 293  9817.066
 294  9186.35
 295  9103.754
 296  9025.496
 297  8863.215
 298  9134.984
 299  9443.691
 300  10103.21
 301  9554.516
 302  8966.988
 303  9172.242
 304  9371.627
 305  9712.534
 306  9570.554
 307  10330.69
 308  11391.64
 309  11241.49
 310  10197.85
 311  9503.431
 312  9364.927
 313  8901.658
 314  9084.665
 315  8961.942
 316  10089.4
 317  10539.8
 318  9460.458
 319  9398.001
 320  9480.778
 321  9530.902
 322  9548.717
 323  9915.768
 324  10798.31
 325  11657.54
 326  11406.1
 327  9987.183
 328  9226.596
 329  9084.274
 330  8711.898
 331  9183.441
 332  9898.336
 333  10585.31
 334  10573.14
 335  9400.911
 336  8713.719
 337  8749.677
 338  9138.987
 339  9001.133
 340  10651.58
 341  10957.01
 342  11149.22
 343  10039.96
 344  9352.559
 345  8969.627
 346  8766.936
 347  9093.955
 348  9130.437
 349  9729.397
 350  9264.892
 351  9098.768
 352  8836.832
 353  8341.942
 354  8239.511
 355  8571.192
 356  9765.947
 357  10357.25
 358  10670.51
 359  9979.753
 360  8744.549
 361  8472.371
 362  8550.103
 363  8673.049
 364  8526.322
 365  9098.137
 366  9455.656
 367  9125.716
 368  8624.188
 369  8263.196
 370  8548.026
 371  8294.045
 372  8478.588
 373  9371.653
 374  10406.48
 375  10226
 376  9300.03
 377  8648.509
 378  8257.18
 379  8375.59
 380  7793.345
 381  8233.99
 382  8448.348
 383  8574.397
 384  8399.848
 385  8315.11
 386  7976.28
 387  7920.21
 388  8691.212
 389  9148.484
 390  10293.64
 391  10505.94
 392  9659.481
 393  9027.654
 394  8720.039
 395  8378.366
 396  8262.573
 397  8299.293
 398  8728.04
 399  9576.944
 400  9328.356
 401  8152.557
 402  7837.263
 403  8542.074
 404  8852.869
 405  9391.009
 406  10390.3
 407  10908.27
 408  10665.18
 409  9368.71
 410  8549.494
 411  8351.722
 412  8607.721
 413  8794.028
 414  8941.247
 415  9913.659
 416  10074.38
 417  9156.696
 418  8699.841
 419  8646.041
 420  8926.391
 421  9260.646
 422  9802.797
 423  10331.66
 424  11017.06
 425  10284.46
 426  8927.601
 427  8372.279
 428  8433.589
 429  8626.063
 430  8762.629
 431  9504.193
 432  9706.491
 433  9447.558
 434  9024.474
 435  8690.584
 436  8694.88
 437  8861.811
 438  9453.271
 439  9955.013
 440  11281.13
 441  11199.24
 442  9902.631
 443  9173.078
 444  8961.484
 445  8929.422
 446  8704.195
 447  9169.616
 448  9298.896
 449  9906.827
 450  9661.152
 451  8632.946
 452  8739.216
 453  8723.432
 454  8755.145
 455  9519.99
 456  10351.86
 457  11024.26
 458  9937.574
 459  9857.112
 460  9261.151
 461  8879.195
 462  9109.7
 463  9345.571
 464  10692.95
 465  11212.75
 466  10821.61
 467  10032.96
 468  9477.109
 469  8995.38
 470  9380.448
 471  9515.646
 472  10121.64
 473  10824.03
 474  10212.61
 475  9494.036
 476  8905.942
 477  9072.741
 478  9018.982
 479  8710.801
 480  8921.514
 481  9190.89
 482  9634.864
 483  9268.723
 484  8647.318
 485  8219.043
 486  8298.664
 487  8588.094
 488  9371.104
 489  10967.06
 490  11001.71
 491  10501.05
 492  9051.189
 493  8596.514
 494  8585.628
 495  8677.32
 496  9242.734
 497  9164.454
 498  9674.702
 499  9910.129
 500  8961.055
 501  8021.225
 502  8603.747
 503  9531.104
 504  9448.911
 505  10169.52
 506  10584.25
 507  10586.4
 508  9890.691
 509  9055.856
 510  8857.148
 511  8673.708
