# Input file       =  1205826898.111558_cleaned.dat
# Candidate        =  PSR_0332+5434
# Telescope        =  AR
# Epoch_topo       =  58200.330059161548
# Epoch_bary       =  N/A
# T_sample         =  0.002
# Data Folded      =  7143424
# Data Avg         =  0.219854627362102
# Data StdDev      =  6.10501547022817 
# Profile Bins     =  1024
# Profile Avg      =  1533.65138960014 
# Profile StdDev   =  509.905862006582 
# Reduced chi-sqr  =  3.195
# Prob(Noise)      <  2.43e-232   (~32.5 sigma)
# P_topo (ms)      =  714.574242226987  +/- 1.52e-05
# P'_topo (s/s)    =  -0                +/- 8.25e-12
# P''_topo (s/s^2) =  0                 +/- 3.74e-15
# P_bary (ms)      =  N/A
# P'_bary (s/s)    =  N/A
# P''_bary (s/s^2) =  N/A
# P_orb (s)        =  N/A
# asin(i)/c (s)    =  N/A
# eccentricity     =  N/A
# w (rad)          =  N/A
# T_peri           =  N/A
######################################################
   0  2159.66
   1  2491.574
   2  2136.461
   3  2166.896
   4  2055.207
   5  1937.734
   6  1946.393
   7  1518.412
   8  1497.727
   9  1164.55
  10  1286.174
  11  1509.77
  12  1350.888
  13  1497.856
  14  1460.601
  15  1324.701
  16  1498.494
  17  1289.76
  18  1602.315
  19  1771.709
  20  1605.286
  21  1603.208
  22  1053.1
  23  1121.44
  24  914.3788
  25  871.0369
  26  933.5983
  27  765.1295
  28  1242.336
  29  1378.109
  30  1392.859
  31  1691.31
  32  1857.237
  33  2243.148
  34  2505.777
  35  2457.621
  36  2538.112
  37  2074.611
  38  1985.608
  39  1694.288
  40  1396.008
  41  1354.916
  42  938.3925
  43  1147.017
  44  965.7345
  45  914.9949
  46  1106.042
  47  1172.313
  48  1336.41
  49  1442.71
  50  1483.943
  51  1724.995
  52  1592.235
  53  1575.17
  54  1423.341
  55  1089.226
  56  1034.619
  57  768.1094
  58  780.0021
  59  860.3684
  60  852.1453
  61  1177.167
  62  1200.639
  63  1558.767
  64  1861.143
  65  1932.946
  66  2328.549
  67  2240.827
  68  2377.668
  69  2345.948
  70  2274.519
  71  2319.68
  72  1893.196
  73  1621.996
  74  1310.511
  75  1106.941
  76  1118.553
  77  902.4555
  78  1223.429
  79  1279.822
  80  1268.661
  81  1451.872
  82  1434.183
  83  1586.614
  84  1803.373
  85  1691.346
  86  1675.331
  87  1462.414
  88  1302.607
  89  1055.926
  90  816.2255
  91  890.1199
  92  694.9885
  93  804.5807
  94  939.3325
  95  1054.626
  96  1412.584
  97  1667.348
  98  1881.961
  99  2306.132
 100  2269.709
 101  2556.534
 102  2397.848
 103  2394.151
 104  2245.306
 105  2083.009
 106  2131.894
 107  1407.431
 108  1277.602
 109  1163.717
 110  1095.551
 111  1281.596
 112  1192.013
 113  1401.748
 114  1338.851
 115  1309.326
 116  1607.503
 117  1581.157
 118  1656.274
 119  1471.038
 120  1137.642
 121  1129.399
 122  916.812
 123  745.3671
 124  701.8162
 125  576.6178
 126  1132.538
 127  1154.589
 128  1406.479
 129  1503.391
 130  1787.156
 131  2196.601
 132  2171.98
 133  2198.391
 134  2442.779
 135  2174.224
 136  2167.334
 137  1934.104
 138  1880.747
 139  1651.789
 140  1324.684
 141  1397.624
 142  953.9644
 143  1096.666
 144  1289.16
 145  1313.55
 146  1525.851
 147  1260.755
 148  1446.327
 149  1617.268
 150  1602.758
 151  1760.911
 152  1506.725
 153  1467.359
 154  1367.236
 155  1149.907
 156  1179.039
 157  946.1695
 158  1156.35
 159  1273.971
 160  1096.612
 161  1310.196
 162  1524.639
 163  1813.819
 164  2260.852
 165  2454.034
 166  2775.116
 167  2649.485
 168  2444.963
 169  2355.908
 170  1949.22
 171  1907.335
 172  1394.784
 173  1367.728
 174  1227.838
 175  1027.671
 176  1028.233
 177  886.0323
 178  1190.543
 179  1266.427
 180  1358.688
 181  1527.197
 182  1770.817
 183  1746.881
 184  1886.974
 185  1449.194
 186  1655.577
 187  1386.808
 188  1095.575
 189  931.412
 190  725.1774
 191  970.6201
 192  861.3309
 193  1076.407
 194  1252.063
 195  1285.187
 196  1889.035
 197  2197.054
 198  2324.855
 199  2693.253
 200  2654.723
 201  2863.851
 202  2493.778
 203  2219.776
 204  1943.136
 205  1521.36
 206  1400.251
 207  1084.838
 208  1141.788
 209  1142.213
 210  1066.185
 211  1381.442
 212  1292.249
 213  1338.446
 214  1598.358
 215  1575.859
 216  1496.399
 217  1599.609
 218  1742.087
 219  1745.243
 220  1215.735
 221  1111.141
 222  878.9648
 223  895.0612
 224  1045.572
 225  929.0443
 226  1043.171
 227  1153.39
 228  1370.799
 229  1895.448
 230  2013.319
 231  2488.461
 232  2737.843
 233  2722.184
 234  2626.219
 235  2322.192
 236  2362.512
 237  1865.544
 238  1517.447
 239  1325.064
 240  1004.742
 241  984.98
 242  984.012
 243  1168.845
 244  1161.243
 245  1176.661
 246  1489.054
 247  1520.396
 248  1494.83
 249  1668.015
 250  1663.074
 251  1731.304
 252  1508.662
 253  1295.49
 254  1237.661
 255  896.7573
 256  1046.501
 257  896.6748
 258  994.3793
 259  1074.32
 260  1250.911
 261  1566.471
 262  1514.669
 263  1606.402
 264  2071.268
 265  2048.166
 266  2106.695
 267  2235.565
 268  2309.621
 269  2381.511
 270  2026.046
 271  1942.969
 272  1443.142
 273  1324.703
 274  1391.836
 275  1083.829
 276  1444.925
 277  1418.975
 278  1573.291
 279  1539.821
 280  1289.4
 281  1459.888
 282  1600.15
 283  1569.618
 284  1657.094
 285  1241.841
 286  1213.033
 287  840.3208
 288  889.4319
 289  1012.57
 290  736.8728
 291  993.7509
 292  1231.296
 293  1382.952
 294  1514.387
 295  1604.587
 296  2009.936
 297  2241.966
 298  2410.49
 299  2704.637
 300  2562.704
 301  2529.195
 302  2161.042
 303  1630.832
 304  1479.933
 305  1257.617
 306  1428.103
 307  1121.303
 308  1239.544
 309  1440.219
 310  1434.941
 311  1492.597
 312  1347.464
 313  1403.817
 314  1758.249
 315  1755.888
 316  1818.594
 317  1622.555
 318  1371.576
 319  1330.871
 320  965.3286
 321  889.1582
 322  630.3193
 323  823.3727
 324  996.256
 325  1016.435
 326  1310.228
 327  1570.326
 328  1711.878
 329  2200.176
 330  2437.304
 331  2604.218
 332  2627.822
 333  2584.993
 334  2541.696
 335  2023.343
 336  1800.26
 337  1522.059
 338  1350.854
 339  1232.747
 340  942.2308
 341  1137.896
 342  1001.256
 343  1083.382
 344  1324.621
 345  1353.25
 346  1398.977
 347  1578.434
 348  1674.784
 349  1810.836
 350  1671.137
 351  1711.505
 352  1573.661
 353  1137.799
 354  1041.867
 355  754.0684
 356  895.9868
 357  943.1115
 358  955.1105
 359  1298.837
 360  1402.25
 361  1760.386
 362  2046.97
 363  2216.456
 364  2569.546
 365  2572.694
 366  2606.75
 367  2434.393
 368  2169.284
 369  2172.02
 370  1718.019
 371  1471.59
 372  1153.957
 373  1198.403
 374  1469.833
 375  1604.482
 376  1833.24
 377  1640.786
 378  1457.164
 379  1661.144
 380  1642.434
 381  1655.086
 382  1700.317
 383  1567.419
 384  1670.648
 385  1387.212
 386  1253.484
 387  931.4719
 388  851.2324
 389  1070.411
 390  942.4699
 391  1160.169
 392  1379.542
 393  1587.968
 394  1934.468
 395  2010.572
 396  2240.472
 397  2555.675
 398  2475.249
 399  2588.525
 400  2339.842
 401  2389.524
 402  2067.263
 403  1685.59
 404  1494.439
 405  1105.831
 406  1225.117
 407  1141.343
 408  1069.075
 409  1232.426
 410  1107.226
 411  1287.255
 412  1477.107
 413  1681.019
 414  1845.595
 415  1611.97
 416  1571.547
 417  1363.206
 418  1140.995
 419  1174.559
 420  1069.699
 421  939.7696
 422  789.6893
 423  684.2411
 424  1186.872
 425  1379.399
 426  1623.729
 427  1638.027
 428  1808.221
 429  2192.531
 430  2143.802
 431  2072.871
 432  2123.036
 433  1907.624
 434  2005.72
 435  1772.67
 436  1738.8
 437  1408.791
 438  1217.235
 439  1553.847
 440  1307.417
 441  1443.819
 442  1399.426
 443  1344.603
 444  1540.919
 445  1346.04
 446  1517.603
 447  1622.822
 448  1525.926
 449  1642.526
 450  1337.569
 451  1174.829
 452  1079.32
 453  1057.203
 454  1079.548
 455  753.6818
 456  952.5067
 457  1126.075
 458  1110.364
 459  1444.136
 460  1717.411
 461  2035.017
 462  2294.383
 463  2410.964
 464  2689.11
 465  2573.658
 466  2513.984
 467  2389.716
 468  1841.241
 469  1622.656
 470  1049.324
 471  1033.126
 472  759.985
 473  655.9946
 474  999.7347
 475  1058.664
 476  1301.304
 477  1404.874
 478  1519.392
 479  1735.496
 480  1743.663
 481  1745.183
 482  1798.349
 483  1621.515
 484  1673.583
 485  1283.988
 486  808.7005
 487  706.106
 488  571.0135
 489  802.4888
 490  765.6942
 491  1119.019
 492  1513.928
 493  1620.889
 494  2099.606
 495  2217.619
 496  2330.868
 497  2473.832
 498  2518.677
 499  2582.163
 500  2209.961
 501  1964.094
 502  1631.659
 503  1190.639
 504  1039.037
 505  809.4465
 506  978.0815
 507  1044.884
 508  1107.84
 509  1334.352
 510  1166.434
 511  1168.733
 512  1438.096
 513  1580.241
 514  1663.299
 515  1630.918
 516  1521.516
 517  1530.443
 518  1197.746
 519  1212.076
 520  792.46
 521  677.3084
 522  764.2376
 523  747.6507
 524  1117.182
 525  1257.591
 526  1628.692
 527  2096.447
 528  2016.907
 529  2218.436
 530  2377.332
 531  2611.403
 532  2641.937
 533  2286.243
 534  2242.44
 535  1745.481
 536  1525.988
 537  1304.372
 538  1103.302
 539  1219.001
 540  1087.817
 541  1184.909
 542  1169.686
 543  1253.188
 544  1466.427
 545  1386.157
 546  1417.526
 547  1713.32
 548  1716.762
 549  1738.519
 550  1457.584
 551  1269.207
 552  1254.35
 553  987.3842
 554  1015.439
 555  849.7879
 556  957.1258
 557  1172.314
 558  1289.588
 559  1635.973
 560  1642.049
 561  1839.895
 562  2252.387
 563  2289.159
 564  2352.721
 565  2245.806
 566  2059.741
 567  1959.402
 568  1629.53
 569  1688.643
 570  1281.717
 571  1116.792
 572  1201.899
 573  1054.738
 574  1346.85
 575  1080.125
 576  1026.582
 577  1163.183
 578  1164.922
 579  1456.569
 580  1403.908
 581  1450.432
 582  1566.717
 583  1318.276
 584  1198.223
 585  673.2308
 586  660.4501
 587  812.9227
 588  727.9451
 589  1117.039
 590  1345.179
 591  1683.451
 592  1979
 593  2189.688
 594  2457.933
 595  2531.635
 596  2568.04
 597  2725.983
 598  2317.089
 599  2299.018
 600  2174.917
 601  2064.167
 602  1893.962
 603  1665.066
 604  2030.143
 605  1888.258
 606  1963.947
 607  2267.884
 608  2347.667
 609  2554.665
 610  2273.865
 611  2289.625
 612  2352.702
 613  1999.827
 614  1930.226
 615  1591.281
 616  1316.328
 617  1100.583
 618  730.6943
 619  580.2061
 620  324.3273
 621  596.6695
 622  1023.75
 623  1194.971
 624  1712.226
 625  1945.567
 626  2063.933
 627  2193.722
 628  2186.698
 629  2424.766
 630  2479.3
 631  2478.249
 632  2500.556
 633  1879.834
 634  1625.567
 635  1169.05
 636  1253.105
 637  1066.575
 638  914.507
 639  1185.445
 640  1060.265
 641  1091.382
 642  1319.006
 643  1559.038
 644  1690.974
 645  1749.057
 646  1831.73
 647  1854.194
 648  1486.12
 649  1253.424
 650  979.7209
 651  687.3632
 652  818.558
 653  621.7564
 654  813.9764
 655  903.0331
 656  1128.82
 657  1504.895
 658  1548.351
 659  1966.582
 660  2347.978
 661  2617.465
 662  2859.937
 663  2502.715
 664  2335.48
 665  1909.087
 666  1753.54
 667  1689.397
 668  1247.382
 669  1189.365
 670  894.2618
 671  954.3129
 672  892.2128
 673  943.3614
 674  1122.832
 675  1042.757
 676  1078.379
 677  1422.882
 678  1535.023
 679  1684.588
 680  1803.957
 681  1754.567
 682  1751.787
 683  1377.596
 684  1127.22
 685  702.3893
 686  612.4857
 687  903.0737
 688  886.969
 689  1065.623
 690  1197.715
 691  1477.446
 692  1993.085
 693  2020.116
 694  2322.272
 695  2472.53
 696  2573.754
 697  2675.572
 698  2395.961
 699  2190.344
 700  1714.711
 701  1489.229
 702  1562.282
 703  1075.653
 704  1232.792
 705  1085.975
 706  1141.361
 707  1183.644
 708  994.0756
 709  1201.171
 710  1215.197
 711  1437.48
 712  1699.386
 713  1607.863
 714  1523.825
 715  1320.99
 716  1131.606
 717  1166.042
 718  842.1744
 719  1053.972
 720  1071.843
 721  1037.925
 722  1291.519
 723  1393.621
 724  1732.749
 725  1776.84
 726  2034.506
 727  2389.554
 728  2287.534
 729  2449.1
 730  2379.605
 731  2103.965
 732  1898.686
 733  1591.688
 734  1543.704
 735  1213.695
 736  1162.791
 737  1322.174
 738  1261.547
 739  1508.495
 740  1463.193
 741  1289.541
 742  1371.196
 743  1108.519
 744  1283.573
 745  1349.219
 746  1306.36
 747  1495.106
 748  1192.029
 749  1226.918
 750  1001.813
 751  1059.543
 752  1212.918
 753  982.0417
 754  1221.602
 755  1279.456
 756  1416.608
 757  1745.288
 758  1878.838
 759  2100.449
 760  2306.73
 761  2321.245
 762  2472.562
 763  2187.137
 764  2263.811
 765  2098.797
 766  1897.5
 767  1578.456
 768  969.6812
 769  919.8505
 770  986.5784
 771  1138.288
 772  1352.268
 773  1288.759
 774  1475.655
 775  1696.613
 776  1786.171
 777  1880.743
 778  1652.684
 779  1504.793
 780  1514.223
 781  1242.688
 782  1290.638
 783  873.832
 784  930.0464
 785  1110.505
 786  1091.257
 787  1167.615
 788  1051.499
 789  1425.84
 790  1777.902
 791  1817.627
 792  2182.416
 793  2233.379
 794  2408.592
 795  2502.337
 796  2182.352
 797  2189.502
 798  1793.854
 799  1739.867
 800  1553.734
 801  1337.723
 802  1302.476
 803  971.3841
 804  1097.265
 805  1176.613
 806  1304.445
 807  1575.875
 808  1408.675
 809  1474.704
 810  1753.652
 811  1802.732
 812  1715.497
 813  1399.711
 814  1291.208
 815  1193.336
 816  984.6631
 817  1171.801
 818  891.8983
 819  961.1129
 820  879.0399
 821  1059.28
 822  1407.043
 823  1427.215
 824  1724.581
 825  2229.922
 826  2407.524
 827  2636.042
 828  2588.075
 829  2617.034
 830  2573.125
 831  2193.043
 832  2064.4
 833  1287.597
 834  1223.952
 835  1139.549
 836  892.5012
 837  920.9331
 838  723.4902
 839  1147.076
 840  1255.806
 841  1313.729
 842  1622.866
 843  1609.999
 844  1759.34
 845  1875.737
 846  1626.791
 847  1466.997
 848  1168.308
 849  1236.171
 850  1202.211
 851  664.5493
 852  749.9557
 853  860.4119
 854  1333.708
 855  1473.979
 856  1409.822
 857  1774.27
 858  1907.458
 859  2286.147
 860  2574.087
 861  2330.404
 862  2298.353
 863  2180.342
 864  2158.355
 865  1925.47
 866  1457.471
 867  1590.932
 868  1232.851
 869  1340.981
 870  1274.266
 871  1104.319
 872  1298.96
 873  1099.42
 874  1142.69
 875  1244.844
 876  1117.75
 877  1576.693
 878  1616.584
 879  1740.251
 880  1649.616
 881  1336.758
 882  1334.265
 883  810.224
 884  936.9062
 885  875.9175
 886  776.6612
 887  1111.063
 888  1377.688
 889  1647.203
 890  1947.26
 891  2136.616
 892  2451.42
 893  2364.058
 894  2388.554
 895  2606.021
 896  2132.092
 897  2040.838
 898  1525.11
 899  1540.892
 900  1473.678
 901  1233.043
 902  1459.493
 903  1037.971
 904  1233.66
 905  1282.126
 906  1219.58
 907  1377.533
 908  1376.262
 909  1476.908
 910  1584.515
 911  1320.559
 912  1570.099
 913  1432.768
 914  1272.394
 915  1178.403
 916  753.5125
 917  836.9449
 918  816.7582
 919  1169.956
 920  1379.421
 921  1142.197
 922  1515.886
 923  1871.223
 924  2094.095
 925  2327.146
 926  2022.877
 927  2186.405
 928  2135.185
 929  2172.339
 930  2114.852
 931  1628.504
 932  1634.528
 933  1336.307
 934  1295.643
 935  965.8526
 936  793.86
 937  1013.85
 938  1068.352
 939  1118.443
 940  1447.899
 941  1519.854
 942  1664.845
 943  1704.407
 944  1645.499
 945  1511.364
 946  1256.981
 947  1302.393
 948  1106.278
 949  818.0372
 950  846.4894
 951  748.8545
 952  1081.342
 953  1293.072
 954  1534.969
 955  1882.043
 956  1866.541
 957  2210.046
 958  2457.449
 959  2456.187
 960  2556.741
 961  2205.634
 962  2134.539
 963  1674.461
 964  1539.235
 965  1672.12
 966  1163.669
 967  1117.173
 968  898.9742
 969  1187.204
 970  1229.104
 971  1174.352
 972  1424.409
 973  1487.213
 974  1483.502
 975  1640.813
 976  1596.36
 977  1767.108
 978  1843.106
 979  1490.658
 980  1304.47
 981  699.4192
 982  874.095
 983  822.5386
 984  945.1185
 985  1022.617
 986  917.5922
 987  1300.376
 988  1556.649
 989  1734.667
 990  2036.078
 991  2025.134
 992  2381.955
 993  2545.005
 994  2249.327
 995  2131.119
 996  1776.678
 997  1777.754
 998  1320.912
 999  1133.296
1000  1283.833
1001  983.1436
1002  1206.742
1003  1064.943
1004  1085.408
1005  1201.455
1006  1109.838
1007  1446.343
1008  1703.063
1009  1665.977
1010  1656.839
1011  1393.189
1012  1555.216
1013  1268.797
1014  913.8891
1015  937.2947
1016  707.1088
1017  885.773
1018  801.4855
1019  877.4484
1020  1370.009
1021  1539.214
1022  1913.83
1023  2009.713
