# Input file       =  1205065935.111248_cleaned.dat
# Candidate        =  PSR_0332+5434
# Telescope        =  AR
# Epoch_topo       =  58191.522617028335
# Epoch_bary       =  N/A
# T_sample         =  0.002
# Data Folded      =  7340032
# Data Avg         =  0.644829846320915
# Data StdDev      =  7.22424349753236 
# Profile Bins     =  1024
# Profile Avg      =  4621.95467699739 
# Profile StdDev   =  611.633654561475 
# Reduced chi-sqr  =  1.907
# Prob(Noise)      <  1.64e-60   (~16.4 sigma)
# P_topo (ms)      =  714.577754116658  +/- 0.000922
# P'_topo (s/s)    =  -0                +/- 4.87e-10
# P''_topo (s/s^2) =  0                 +/- 2.15e-13
# P_bary (ms)      =  N/A
# P'_bary (s/s)    =  N/A
# P''_bary (s/s^2) =  N/A
# P_orb (s)        =  N/A
# asin(i)/c (s)    =  N/A
# eccentricity     =  N/A
# w (rad)          =  N/A
# T_peri           =  N/A
######################################################
   0  5065.357
   1  4992.794
   2  4815.963
   3  4673.105
   4  4610.558
   5  4529.068
   6  4678.551
   7  4739.77
   8  4625.993
   9  4629.832
  10  4735.134
  11  4774.244
  12  4649.894
  13  4706.019
  14  4741.922
  15  4853.844
  16  4837.999
  17  4870.38
  18  4822.143
  19  4661.731
  20  4582.948
  21  4546.31
  22  4566.603
  23  4657.147
  24  4808.548
  25  4813.086
  26  4506.646
  27  4456.724
  28  4503.992
  29  4521.092
  30  4549.549
  31  4582.581
  32  4542.44
  33  4449.565
  34  4313.632
  35  4345.782
  36  4318.781
  37  4317.956
  38  4398.994
  39  4537.036
  40  4617.841
  41  4673.461
  42  4774.999
  43  4879.602
  44  4771.073
  45  4713.468
  46  4793.418
  47  4690.514
  48  4747.518
  49  4550.611
  50  4527.911
  51  4573.54
  52  4554.118
  53  4604.442
  54  4624.858
  55  4607.374
  56  4683.713
  57  4669.054
  58  4598.128
  59  4510.713
  60  4509.254
  61  4604.838
  62  4686.037
  63  4745.727
  64  4744.402
  65  4608.219
  66  4660.911
  67  4672.565
  68  4604.264
  69  4539.021
  70  4583.91
  71  4708.577
  72  4741.084
  73  4571.857
  74  4620.907
  75  4793.86
  76  4765.619
  77  4701.07
  78  4694.003
  79  4750.89
  80  4797.436
  81  4818.155
  82  4790.874
  83  4664.111
  84  4556.425
  85  4730.466
  86  4868.252
  87  4836.235
  88  4607.295
  89  4589.74
  90  4714.219
  91  4802.333
  92  4804.337
  93  4923.409
  94  4841.745
  95  4960.953
  96  4912.579
  97  4798.019
  98  4640
  99  4748.778
 100  4762.802
 101  4682.894
 102  4666.625
 103  4663.526
 104  4674.907
 105  4737.832
 106  4786.11
 107  4859.598
 108  5044.28
 109  5014.016
 110  4864.333
 111  4873.703
 112  4816.843
 113  4784.315
 114  4783.542
 115  4704.643
 116  4588.736
 117  4586.712
 118  4712.488
 119  4648.472
 120  4601.368
 121  4621.634
 122  4685.252
 123  4692.971
 124  4734.325
 125  4693.759
 126  4778.032
 127  4821.373
 128  4868.594
 129  4872.96
 130  4734.008
 131  4766.901
 132  4825.595
 133  4762.375
 134  4604.799
 135  4651.202
 136  4544.04
 137  4458.193
 138  4449.246
 139  4626.04
 140  4593.552
 141  4639.269
 142  4852.039
 143  4909.487
 144  4830.584
 145  4645.307
 146  4471.55
 147  4468.346
 148  4402.005
 149  4473.327
 150  4446.485
 151  4245.201
 152  4357.364
 153  4614.609
 154  4580.794
 155  4515.947
 156  4414.669
 157  4550.645
 158  4553.393
 159  4495.283
 160  4385.197
 161  4362.656
 162  4562.925
 163  4691.6
 164  4628.833
 165  4496.626
 166  4519.091
 167  4689.489
 168  4745.235
 169  4606.133
 170  4467.708
 171  4504.659
 172  4400.785
 173  4378.75
 174  4462.934
 175  4512.334
 176  4582.717
 177  4641.845
 178  4758.771
 179  4763.247
 180  4802.495
 181  4809.726
 182  4822.054
 183  4716.805
 184  4548.802
 185  4437.483
 186  4321.378
 187  4213.786
 188  4171.587
 189  4224.227
 190  4278.626
 191  4277.347
 192  4211.613
 193  4123.797
 194  4056.665
 195  4183.52
 196  4216.962
 197  4321.173
 198  4260.145
 199  4191.964
 200  4286.977
 201  4250.942
 202  4255.203
 203  4126.991
 204  4136.359
 205  4071.989
 206  4179.317
 207  4327.478
 208  4288.52
 209  4368.024
 210  4333.445
 211  4354.822
 212  4316.744
 213  4174.979
 214  4102.515
 215  4130.702
 216  4256.42
 217  4286.093
 218  4129.644
 219  4072.084
 220  4243.478
 221  4268.907
 222  4139.596
 223  4016.398
 224  4028.398
 225  4203.318
 226  4126.698
 227  4146.384
 228  4210.661
 229  4198.249
 230  4183.205
 231  4213.359
 232  4102.113
 233  4100.409
 234  4050.51
 235  4019.781
 236  4144.736
 237  4093.818
 238  3986.329
 239  4038.076
 240  3996.297
 241  4023.616
 242  4012.518
 243  4203.58
 244  4258.035
 245  4233.97
 246  4298.6
 247  4233.897
 248  4325.873
 249  4256.463
 250  4207.528
 251  4209.508
 252  4290.486
 253  4380.987
 254  4413.655
 255  4495.626
 256  4428.235
 257  4514.751
 258  4190.778
 259  4157.532
 260  4269.348
 261  4464.071
 262  4469.658
 263  4273.013
 264  4148.175
 265  4008.163
 266  3917.88
 267  3883.602
 268  3831.538
 269  3758.435
 270  3784.571
 271  3900.292
 272  4032.514
 273  4074.015
 274  4116.424
 275  4308.946
 276  4256.297
 277  4001.139
 278  4011.962
 279  4039.612
 280  4097.106
 281  4075.578
 282  4010.979
 283  3974.653
 284  3937.679
 285  4090.841
 286  4118.623
 287  4083.294
 288  4112.581
 289  4154.365
 290  4208.885
 291  4138.144
 292  4147.206
 293  4263.629
 294  4341.383
 295  4380.831
 296  4498.938
 297  4367.934
 298  4211.211
 299  4056.828
 300  4060.503
 301  4009.803
 302  4023.698
 303  4083.356
 304  4089.613
 305  3985.323
 306  3954.52
 307  3943.03
 308  4015.072
 309  3925.082
 310  3898.434
 311  3868.429
 312  3956.478
 313  3931.181
 314  3993.012
 315  4027.511
 316  4061.896
 317  3997.205
 318  3825.737
 319  3845.809
 320  3900.647
 321  3992.445
 322  3983.044
 323  3946.438
 324  3911.551
 325  3952.601
 326  3750.293
 327  3834.903
 328  3855.975
 329  4033.403
 330  4208.629
 331  4138.403
 332  4034.935
 333  3727.396
 334  3749.428
 335  3826.174
 336  3755.675
 337  3636.093
 338  3641.033
 339  3757.438
 340  3826.157
 341  3872.125
 342  3857.642
 343  3974.135
 344  4126.107
 345  4101.519
 346  3866.291
 347  3721.969
 348  3785.477
 349  3777.83
 350  3847.138
 351  3873.295
 352  3868.863
 353  3883.913
 354  3878.436
 355  3756.031
 356  3798.108
 357  3939.928
 358  4160.591
 359  4202.18
 360  4117.879
 361  4137.897
 362  3961.371
 363  3906.487
 364  3737.734
 365  3725.692
 366  3608.036
 367  3734.726
 368  3770.01
 369  3654.973
 370  3508.022
 371  3753.504
 372  3926.688
 373  3877.618
 374  3849.659
 375  3876.192
 376  3828.926
 377  3685.135
 378  3711.795
 379  3745.352
 380  3646.629
 381  3549.606
 382  3689.015
 383  3783.812
 384  3688.361
 385  3733.025
 386  3939.393
 387  4015.79
 388  3845.479
 389  3834.327
 390  3912.762
 391  3930.268
 392  3976.939
 393  4129.605
 394  4073.58
 395  4046.084
 396  3942.902
 397  3910.994
 398  3913.231
 399  3948.11
 400  3905.031
 401  3911.376
 402  3941.974
 403  3988.062
 404  4092.245
 405  4009.383
 406  3978.572
 407  4082.897
 408  4239.577
 409  4192.718
 410  4176.437
 411  4050.738
 412  3975.641
 413  4077.037
 414  4061.708
 415  4134.931
 416  4146.235
 417  4179.768
 418  4318.735
 419  4363.283
 420  4220.858
 421  4184.05
 422  4204.321
 423  4377.099
 424  4294.723
 425  4299.185
 426  4249.876
 427  4364.369
 428  4360.025
 429  4478.286
 430  4442.695
 431  4665.866
 432  4734.8
 433  4728.987
 434  4489.29
 435  4444.395
 436  4527.894
 437  4619.23
 438  4348.878
 439  4450.471
 440  4448.932
 441  4429.676
 442  4434.469
 443  4441.525
 444  4455.106
 445  4383.75
 446  4390.148
 447  4240.728
 448  4110.3
 449  4121.007
 450  4174.296
 451  4051.948
 452  3959.758
 453  4083.552
 454  4209.25
 455  4285.443
 456  4126.194
 457  4118.017
 458  4096.054
 459  3940.851
 460  3861.288
 461  3731.673
 462  3703.056
 463  3839.989
 464  3840.726
 465  3882.84
 466  3849.667
 467  4033.807
 468  3971.545
 469  4038.431
 470  4160.781
 471  4104.738
 472  4101.41
 473  4046.806
 474  4151.579
 475  4174.267
 476  4113.163
 477  3918.585
 478  3892.929
 479  3883.098
 480  3912.396
 481  3953.43
 482  3978.227
 483  3937.039
 484  4050.755
 485  4124.205
 486  4229.926
 487  4110.737
 488  4059.176
 489  4134.531
 490  4040.226
 491  4008.236
 492  3960.043
 493  4137.521
 494  4161.265
 495  4130.781
 496  4262.112
 497  4287.36
 498  4252.699
 499  4215.388
 500  4357.479
 501  4280.899
 502  4255.281
 503  4218.353
 504  4200.827
 505  4199.322
 506  4146.417
 507  4067.392
 508  3989.639
 509  4129.073
 510  4266.319
 511  4297.396
 512  4236.073
 513  4195.982
 514  4235.902
 515  4166.012
 516  4148.654
 517  4032.854
 518  3882.195
 519  3888.933
 520  4002.734
 521  4055.542
 522  4129.355
 523  4220.021
 524  4125.208
 525  4041.543
 526  4117.092
 527  4179.157
 528  4249.794
 529  4217.345
 530  4313.569
 531  4317.792
 532  4366.178
 533  4429.958
 534  4409.77
 535  4535.172
 536  4505.604
 537  4445.273
 538  4254.328
 539  4272.057
 540  4273.838
 541  4421.963
 542  4250.546
 543  4208.945
 544  4210.795
 545  4170.503
 546  4018.095
 547  4076.646
 548  4109.853
 549  4298.789
 550  4307.886
 551  4405.327
 552  4485.903
 553  4617.127
 554  4687.114
 555  4579.477
 556  4493.619
 557  4385.941
 558  4432.522
 559  4408.147
 560  4280.456
 561  4284.737
 562  4470.411
 563  4424.483
 564  4395.494
 565  4344.646
 566  4376.779
 567  4392.56
 568  4563.901
 569  4685.448
 570  4724.718
 571  4606.835
 572  4620.64
 573  4564.874
 574  4639.731
 575  4434.542
 576  4383.575
 577  4352.438
 578  4448.699
 579  4604.742
 580  4742.07
 581  4636.869
 582  4743.826
 583  4777.961
 584  4782.8
 585  4708.626
 586  4742.714
 587  4713.116
 588  4656.607
 589  4697.642
 590  4814.246
 591  4831.276
 592  4877.198
 593  5057.514
 594  5201.313
 595  5114.95
 596  5114.482
 597  5157.903
 598  5218.136
 599  5109.881
 600  5254.531
 601  5502.028
 602  5419.792
 603  5330.446
 604  5495.002
 605  5542.681
 606  5595.517
 607  5674.902
 608  5848.456
 609  5745.851
 610  5538.496
 611  5403.748
 612  5424.565
 613  5263.87
 614  5158.954
 615  5114.984
 616  5061.186
 617  4927.402
 618  4803.591
 619  4944.898
 620  4949.593
 621  5048.912
 622  5178.955
 623  5330.461
 624  5279.974
 625  5103.766
 626  4959.667
 627  5000.165
 628  4901.061
 629  5013.081
 630  5046.636
 631  4956.982
 632  4973.855
 633  5053.874
 634  5128.071
 635  5033.202
 636  4942.589
 637  5061.441
 638  5031.569
 639  5032.1
 640  5067.005
 641  5129.555
 642  5169.069
 643  5181.205
 644  5146.871
 645  5024.737
 646  4915.237
 647  4984.659
 648  5014.698
 649  4956.56
 650  4988.348
 651  5075.737
 652  5120.757
 653  5224.683
 654  5392.439
 655  5437.081
 656  5291.885
 657  5174.415
 658  5100.133
 659  5032.234
 660  4964.06
 661  5065.779
 662  5071.701
 663  5032.697
 664  5133.307
 665  5221.092
 666  5379.683
 667  5121.932
 668  5216.432
 669  5237.323
 670  5105.37
 671  5006.9
 672  5047.494
 673  5029.541
 674  4891.971
 675  4795.863
 676  4790.523
 677  4665.284
 678  4662.316
 679  4733.728
 680  4955.78
 681  4913.746
 682  4905.028
 683  4832.731
 684  4813.173
 685  4688.452
 686  4729.558
 687  4811.105
 688  4619.341
 689  4474.305
 690  4642.598
 691  4773.982
 692  4741.615
 693  4782.607
 694  4950.688
 695  4928.667
 696  4886.825
 697  4964.663
 698  5042.964
 699  5007.026
 700  4999.43
 701  5025.762
 702  5009.284
 703  4796.389
 704  4725.058
 705  4871.131
 706  4831.714
 707  4758.663
 708  4992.646
 709  5089.33
 710  5055.991
 711  5122.131
 712  5222.263
 713  5209.957
 714  4961.149
 715  4931.231
 716  4861.442
 717  4853.211
 718  4836.292
 719  4764.245
 720  4779.41
 721  4757.924
 722  4800.866
 723  4824.991
 724  4867.853
 725  4947.167
 726  5051.758
 727  4875.832
 728  4799.098
 729  4813.154
 730  4732.172
 731  4632.67
 732  4654.41
 733  4769.537
 734  4581.378
 735  4454.56
 736  4413.209
 737  4673.188
 738  4791.843
 739  4866.479
 740  4964.493
 741  5025.072
 742  4939.784
 743  4809.063
 744  4819.444
 745  4775.136
 746  4729.986
 747  4856.392
 748  4941.723
 749  5055.883
 750  5194.792
 751  5158.77
 752  5238.324
 753  5098.937
 754  4995.44
 755  4904.433
 756  4865.321
 757  4851.064
 758  4987.215
 759  5006.487
 760  5051.678
 761  5008.276
 762  5073.85
 763  4945.541
 764  4884.368
 765  5018.467
 766  5083.852
 767  5019.755
 768  4936.804
 769  4908.312
 770  4977.774
 771  5037.219
 772  4952.183
 773  4944.264
 774  4868.96
 775  4891.535
 776  4764.358
 777  4679.792
 778  4553.901
 779  4639.781
 780  4892.037
 781  5126.038
 782  5172.551
 783  5130.266
 784  5000.269
 785  4917.266
 786  4905.478
 787  4934.552
 788  4927.586
 789  4776.777
 790  4823.144
 791  4967.012
 792  5024.451
 793  5050.511
 794  4919.357
 795  4955.102
 796  4815.609
 797  4810.248
 798  4865.596
 799  4944.866
 800  4951.757
 801  5034.737
 802  5102.997
 803  5037.651
 804  5050.599
 805  5122.427
 806  5058.787
 807  5044.089
 808  4931.769
 809  5008.338
 810  4891.852
 811  4818.111
 812  4904.109
 813  5035.27
 814  5111.57
 815  5058.105
 816  5057.272
 817  5120.498
 818  5076.468
 819  5186.765
 820  5371.754
 821  5376.526
 822  5348.643
 823  5173.453
 824  5086.483
 825  5141.127
 826  5130.508
 827  5238.915
 828  5157.408
 829  5165.546
 830  5216.354
 831  5268.886
 832  5187.101
 833  5145.911
 834  5204.594
 835  5312.341
 836  5524.176
 837  5553.648
 838  5536.598
 839  5367.525
 840  5467.572
 841  5521.25
 842  5498.272
 843  5317.695
 844  5330.561
 845  5378.156
 846  5514.964
 847  5455.653
 848  5554.179
 849  5420.162
 850  5282.099
 851  5266.74
 852  5289.334
 853  5247.583
 854  5209.848
 855  5208.524
 856  5298.417
 857  5200.821
 858  5165.119
 859  5187.613
 860  5054.73
 861  4974.7
 862  4968.822
 863  5111.008
 864  5108.374
 865  5216.876
 866  5228.097
 867  5298.091
 868  5296.727
 869  5335.38
 870  5284.002
 871  5153.349
 872  5189.98
 873  5236.504
 874  5243.802
 875  5316.319
 876  5429.021
 877  5519.839
 878  5449.896
 879  5464.379
 880  5531.185
 881  5398.273
 882  5258.023
 883  5165.72
 884  5259.791
 885  5254.239
 886  5265.087
 887  5338.743
 888  5413.714
 889  5339.698
 890  5312.308
 891  5314.952
 892  5267.621
 893  5414.931
 894  5400.661
 895  5401.605
 896  5242.225
 897  5305.875
 898  5199.921
 899  5043.37
 900  4931.344
 901  4974.654
 902  5090.702
 903  5216.066
 904  5238.008
 905  5131.152
 906  5011.25
 907  5010.778
 908  5334.594
 909  5498.307
 910  5370.699
 911  5367.454
 912  5297.751
 913  5398.009
 914  5145.3
 915  5022.818
 916  5062.609
 917  5087.048
 918  5113.646
 919  5181.272
 920  5248.459
 921  5263.105
 922  5154.377
 923  5300.592
 924  5375.181
 925  5350.047
 926  5412.766
 927  5416.666
 928  5178.716
 929  5104.513
 930  5176.123
 931  5213.392
 932  5269.181
 933  5273.583
 934  5449.587
 935  5354.462
 936  5097.586
 937  4991.578
 938  4997.483
 939  4843.683
 940  4735.491
 941  4747.728
 942  4904.382
 943  4838.401
 944  4985.174
 945  5135.1
 946  4966.064
 947  4895.605
 948  4969.82
 949  5018.437
 950  4845.217
 951  4589.188
 952  4533.512
 953  4447.18
 954  4342.733
 955  4537.948
 956  4710.704
 957  4757.221
 958  4704.557
 959  4872.669
 960  4999.672
 961  4971.359
 962  5021.836
 963  4975.698
 964  5042.58
 965  5023.199
 966  5050.461
 967  4961.65
 968  4762.043
 969  4739.366
 970  4781.711
 971  4999.202
 972  4826.784
 973  4898.613
 974  4905.682
 975  4957.242
 976  4841.776
 977  4800.755
 978  4730.607
 979  4768.441
 980  4783.022
 981  4849.021
 982  4824.066
 983  4969.692
 984  4957.095
 985  4833.813
 986  4795.346
 987  4785.018
 988  4846.428
 989  4982.937
 990  4963.41
 991  5017.345
 992  4965.528
 993  4924.491
 994  4929.715
 995  4946.739
 996  4893.506
 997  4861.257
 998  4885.054
 999  4950.715
1000  4812.829
1001  4857.442
1002  5049.663
1003  5006.537
1004  5086.81
1005  5055.421
1006  5202.163
1007  4998.406
1008  4831.672
1009  4858.909
1010  5072.714
1011  5105.478
1012  5233.893
1013  5192.89
1014  5030.99
1015  5044.512
1016  5205.463
1017  5307.989
1018  5299.553
1019  5127.597
1020  5118.39
1021  5104.962
1022  5131.973
1023  5083.768
