# Input file       =  1205482329.110533_cleaned.dat
# Candidate        =  PSR_0332+5434
# Telescope        =  AR
# Epoch_topo       =  58196.341992020061
# Epoch_bary       =  N/A
# T_sample         =  0.002
# Data Folded      =  7405568
# Data Avg         =  0.089012177154534
# Data StdDev      =  1.0002060134729  
# Profile Bins     =  512
# Profile Avg      =  1287.56265540477 
# Profile StdDev   =  120.291147519752 
# Reduced chi-sqr  =  1.594
# Prob(Noise)      <  2.63e-16   (~8.1 sigma)
# P_topo (ms)      =  714.575987489904  +/- 5.26e-05
# P'_topo (s/s)    =  -0                +/- 2.75e-11
# P''_topo (s/s^2) =  0                 +/- 1.2e-14
# P_bary (ms)      =  N/A
# P'_bary (s/s)    =  N/A
# P''_bary (s/s^2) =  N/A
# P_orb (s)        =  N/A
# asin(i)/c (s)    =  N/A
# eccentricity     =  N/A
# w (rad)          =  N/A
# T_peri           =  N/A
######################################################
   0  1919.237
   1  1723.014
   2  1582.047
   3  1469.54
   4  1335.756
   5  1235.883
   6  1234.467
   7  1374.933
   8  1241.051
   9  1208.741
  10  1275.408
  11  1215.012
  12  1202.428
  13  1180.147
  14  1314.595
  15  1335.694
  16  1253.479
  17  1237.939
  18  1132.255
  19  1168.448
  20  1123.974
  21  1071.214
  22  1169.389
  23  1232.934
  24  1121.83
  25  1104.615
  26  1141.722
  27  1087.157
  28  1120.606
  29  1249.772
  30  1325.943
  31  1293.788
  32  1238.983
  33  1158.138
  34  1131.443
  35  1176.061
  36  1195.362
  37  1141.252
  38  1270.336
  39  1263.613
  40  1262.142
  41  1279.414
  42  1290.128
  43  1331.867
  44  1293.883
  45  1287.472
  46  1321.1
  47  1319.702
  48  1352.151
  49  1253.076
  50  1137.707
  51  1197.715
  52  1191.726
  53  1290.313
  54  1349.665
  55  1317.703
  56  1322.455
  57  1231.52
  58  1179.441
  59  1167.98
  60  1202.765
  61  1276.773
  62  1191.307
  63  1289.884
  64  1443.766
  65  1304.958
  66  1196.89
  67  1192.719
  68  1266.526
  69  1349.232
  70  1275.272
  71  1200.062
  72  1256.409
  73  1299.037
  74  1229.876
  75  1144.217
  76  1186.631
  77  1131.541
  78  1156.117
  79  1349.135
  80  1387.25
  81  1323.576
  82  1145.115
  83  1220.975
  84  1261.17
  85  1292.628
  86  1375.986
  87  1352.583
  88  1293.101
  89  1313.78
  90  1196.752
  91  1189.69
  92  1196.459
  93  1185.322
  94  1179.108
  95  1372.399
  96  1451.152
  97  1457.051
  98  1296.846
  99  1277.079
 100  1350.835
 101  1327.73
 102  1440.948
 103  1426.805
 104  1404.513
 105  1531.978
 106  1590.086
 107  1331.168
 108  1225.116
 109  1332.731
 110  1298.275
 111  1303.067
 112  1384.689
 113  1357.799
 114  1307.069
 115  1259.532
 116  1329.986
 117  1279.079
 118  1341.688
 119  1309.54
 120  1297.325
 121  1399.352
 122  1325.104
 123  1350.133
 124  1391.821
 125  1383.438
 126  1336.385
 127  1253.227
 128  1307.026
 129  1452.089
 130  1478.992
 131  1541.229
 132  1326.557
 133  1391.245
 134  1462.51
 135  1545.032
 136  1517.669
 137  1374.394
 138  1457.038
 139  1459.442
 140  1394.234
 141  1450.4
 142  1349.075
 143  1517.828
 144  1554.937
 145  1483.73
 146  1477.373
 147  1477.703
 148  1400.021
 149  1378.287
 150  1409.082
 151  1312.387
 152  1296.504
 153  1387.119
 154  1463.896
 155  1336.857
 156  1351.494
 157  1244.994
 158  1254.498
 159  1246.67
 160  1281.021
 161  1296.121
 162  1385.149
 163  1328.199
 164  1327.108
 165  1306.573
 166  1267.454
 167  1226.521
 168  1242.524
 169  1318.06
 170  1287.685
 171  1385.147
 172  1402.446
 173  1258.863
 174  1165.5
 175  1319.67
 176  1349.472
 177  1336.667
 178  1252.946
 179  1365.78
 180  1527.687
 181  1498.596
 182  1428.623
 183  1403.231
 184  1402.491
 185  1268.645
 186  1238.237
 187  1303.896
 188  1395.189
 189  1238.04
 190  1272.941
 191  1302.563
 192  1297.187
 193  1156.05
 194  1259.448
 195  1309.85
 196  1401.93
 197  1397.634
 198  1316.532
 199  1318.903
 200  1283.823
 201  1279.482
 202  1329.833
 203  1382.127
 204  1380.332
 205  1370.607
 206  1298.853
 207  1255.281
 208  1292.414
 209  1206.747
 210  1270.258
 211  1210.72
 212  1289.832
 213  1240.898
 214  1300.239
 215  1332.899
 216  1247.511
 217  1338.12
 218  1325.149
 219  1300.945
 220  1311.806
 221  1388.607
 222  1363.876
 223  1217.001
 224  1258.464
 225  1294.886
 226  1382.975
 227  1342.328
 228  1411.503
 229  1333.897
 230  1334.077
 231  1304.174
 232  1175.377
 233  1203.919
 234  1301.218
 235  1313.669
 236  1329.393
 237  1337.648
 238  1314.583
 239  1276.651
 240  1261.944
 241  1263.695
 242  1234.765
 243  1243.984
 244  1225.385
 245  1370.438
 246  1359.61
 247  1222.692
 248  1147.39
 249  1174.051
 250  1150.982
 251  1252.923
 252  1289.244
 253  1287.916
 254  1296.326
 255  1246.941
 256  1225.893
 257  1200.593
 258  1314.705
 259  1341.127
 260  1385.836
 261  1371.824
 262  1413.502
 263  1383.448
 264  1408.774
 265  1295.55
 266  1201.592
 267  1354.864
 268  1356.353
 269  1383.649
 270  1474.574
 271  1338.846
 272  1333.03
 273  1244.72
 274  1223.273
 275  1350.431
 276  1247.593
 277  1257.09
 278  1368.023
 279  1372.385
 280  1254.35
 281  1156.286
 282  1201.708
 283  1222.198
 284  1169.578
 285  1328.552
 286  1308.364
 287  1275.634
 288  1284.474
 289  1176.045
 290  1110.335
 291  1223.329
 292  1308.788
 293  1271.001
 294  1396.361
 295  1485.684
 296  1310.416
 297  1232.279
 298  1289.437
 299  1323.1
 300  1271.511
 301  1161.432
 302  1352.565
 303  1320.758
 304  1249.65
 305  1170.541
 306  1159.721
 307  1171.833
 308  1273.233
 309  1263.008
 310  1288.849
 311  1389.743
 312  1281.975
 313  1128.104
 314  1140.628
 315  1149.421
 316  1214.843
 317  1212.482
 318  1211.81
 319  1271.965
 320  1262.925
 321  1153.115
 322  940.5679
 323  964.948
 324  1137.136
 325  1211.092
 326  1148.858
 327  1267.745
 328  1205.124
 329  1230.207
 330  1295.175
 331  1164.957
 332  1304.561
 333  1117.624
 334  1149.036
 335  1309.275
 336  1297.433
 337  1292.105
 338  1135.975
 339  1205.59
 340  1183.559
 341  1295.557
 342  1300.671
 343  1258.879
 344  1207.429
 345  1344.812
 346  1314.863
 347  1226.853
 348  1150.732
 349  1140.085
 350  1120.012
 351  1192.387
 352  1269.496
 353  1302.369
 354  1239.361
 355  1125.207
 356  1107.624
 357  1141.324
 358  1107.46
 359  1129.18
 360  1233.134
 361  1271.35
 362  1234.376
 363  1206.189
 364  1175.81
 365  1206.73
 366  1354.526
 367  1306.616
 368  1212.635
 369  1200.888
 370  1345.684
 371  1273.175
 372  1262.071
 373  1376.271
 374  1236.414
 375  1237.854
 376  1274.875
 377  1376.605
 378  1370.641
 379  1290.91
 380  1362.775
 381  1244.652
 382  1230.329
 383  1341.359
 384  1254.256
 385  1386.275
 386  1369.04
 387  1318.813
 388  1267.495
 389  1282.222
 390  1377.294
 391  1337.193
 392  1332.598
 393  1321.341
 394  1312.363
 395  1312.979
 396  1264.597
 397  1295.353
 398  1315.099
 399  1359.854
 400  1337.321
 401  1347.188
 402  1422.096
 403  1426.817
 404  1262.709
 405  1182.941
 406  1216.165
 407  1299.737
 408  1325.633
 409  1250.895
 410  1425.391
 411  1460.5
 412  1428.229
 413  1393.539
 414  1290.438
 415  1267.637
 416  1284.877
 417  1290.407
 418  1290.714
 419  1361.177
 420  1322.291
 421  1232.45
 422  1166.141
 423  1235.945
 424  1276.494
 425  1236.946
 426  1241.677
 427  1287.383
 428  1244.793
 429  1199.565
 430  1209.319
 431  1227.789
 432  1197.671
 433  1166.81
 434  1222.627
 435  1301.426
 436  1309.8
 437  1121.968
 438  1138.171
 439  1153.254
 440  1110.296
 441  1182.991
 442  1278.138
 443  1399.579
 444  1402.076
 445  1277.978
 446  1220.529
 447  1219.611
 448  1178.743
 449  1139.137
 450  1172.372
 451  1280.527
 452  1313.524
 453  1166.115
 454  1100.435
 455  1182.371
 456  1264.996
 457  1163.794
 458  1160.668
 459  1269.386
 460  1282.555
 461  1237.257
 462  1215.338
 463  1143.887
 464  1165.537
 465  1184.417
 466  1261.752
 467  1220.011
 468  1254.034
 469  1194.854
 470  1108.463
 471  1213.67
 472  1196.326
 473  1277.257
 474  1174.832
 475  1196.385
 476  1351.241
 477  1415.287
 478  1360.413
 479  1342.119
 480  1338.494
 481  1196.165
 482  1287.27
 483  1267.173
 484  1347.327
 485  1441.62
 486  1362.985
 487  1170.637
 488  1203.988
 489  1199.088
 490  1209.18
 491  1313.922
 492  1392.963
 493  1399.488
 494  1238.735
 495  1246.389
 496  1209.339
 497  1241.271
 498  1191.117
 499  1198.942
 500  1260.744
 501  1500.995
 502  1460.2
 503  1325.045
 504  1194.952
 505  1133.881
 506  1228.521
 507  1336.516
 508  1582.485
 509  1753.578
 510  1887.286
 511  1915.118
