# Input file       =  1205152155.100529_cleaned.dat
# Candidate        =  PSR_0332+5434
# Telescope        =  AR
# Epoch_topo       =  58192.520533570940
# Epoch_bary       =  N/A
# T_sample         =  0.002
# Data Folded      =  7340032
# Data Avg         =  0.0514952132638173
# Data StdDev      =  1.00011920360581 
# Profile Bins     =  512
# Profile Avg      =  738.298602934044 
# Profile StdDev   =  119.747308986437 
# Reduced chi-sqr  =  1.391
# Prob(Noise)      <  1.05e-08   (~5.6 sigma)
# P_topo (ms)      =  714.577424637162  +/- 0.000235
# P'_topo (s/s)    =  -0                +/- 1.24e-10
# P''_topo (s/s^2) =  0                 +/- 5.46e-14
# P_bary (ms)      =  N/A
# P'_bary (s/s)    =  N/A
# P''_bary (s/s^2) =  N/A
# P_orb (s)        =  N/A
# asin(i)/c (s)    =  N/A
# eccentricity     =  N/A
# w (rad)          =  N/A
# T_peri           =  N/A
######################################################
   0  1260.443
   1  1239.258
   2  1087.085
   3  755.5259
   4  687.108
   5  758.3799
   6  798.7524
   7  765.2548
   8  668.1303
   9  543.9197
  10  587.6747
  11  603.194
  12  699.0438
  13  718.0086
  14  681.4716
  15  716.0947
  16  722.3621
  17  683.9342
  18  822.5512
  19  864.521
  20  768.4014
  21  817.0845
  22  775.0277
  23  758.8594
  24  800.9688
  25  695.8176
  26  679.7648
  27  627.3001
  28  664.7693
  29  643.4606
  30  707.0436
  31  736.6608
  32  679.172
  33  543.9872
  34  638.9468
  35  657.3385
  36  639.6346
  37  610.5115
  38  608.3772
  39  689.264
  40  732.0114
  41  766.0491
  42  654.2349
  43  706.6361
  44  802.5861
  45  750.9199
  46  724.9973
  47  771.6161
  48  729.5831
  49  733.4001
  50  819.0878
  51  774.0319
  52  701.1898
  53  682.7631
  54  708.9758
  55  777.7961
  56  684.2788
  57  749.3766
  58  766.513
  59  737.2265
  60  658.6986
  61  780.6223
  62  880.6101
  63  900.8414
  64  866.5266
  65  853.9037
  66  737.0061
  67  748.7501
  68  765.0001
  69  809.6878
  70  720.1678
  71  709.7733
  72  673.6205
  73  688.6398
  74  669.3066
  75  594.6832
  76  705.2816
  77  830.2792
  78  846.3719
  79  883.1913
  80  855.262
  81  744.3746
  82  660.5869
  83  685.6248
  84  717.1697
  85  707.6921
  86  754.565
  87  703.399
  88  752.2341
  89  789.2786
  90  831.757
  91  855.8631
  92  766.4485
  93  662.368
  94  723.4685
  95  802.3605
  96  888.0967
  97  817.9415
  98  754.0808
  99  686.3615
 100  669.6141
 101  735.5358
 102  790.835
 103  700.9553
 104  679.0397
 105  659.9647
 106  750.217
 107  859.4407
 108  861.872
 109  723.3802
 110  780.4557
 111  820.8923
 112  908.3562
 113  872.6506
 114  809.675
 115  851.2127
 116  765.2567
 117  737.3837
 118  873.897
 119  904.2447
 120  832.1507
 121  727.8423
 122  797.8861
 123  797.0927
 124  858.435
 125  815.9803
 126  806.6509
 127  781.6481
 128  685.8521
 129  604.1728
 130  647.9421
 131  687.4917
 132  696.8824
 133  839.4268
 134  769.982
 135  718.6708
 136  741.0958
 137  710.3561
 138  696.2681
 139  757.4226
 140  797.6913
 141  770.594
 142  655.1699
 143  765.7119
 144  888.7277
 145  832.5844
 146  831.9686
 147  928.4258
 148  789.1953
 149  707.3874
 150  721.2268
 151  802.034
 152  844.6066
 153  782.7068
 154  807.0961
 155  752.7658
 156  787.016
 157  694.7579
 158  666.576
 159  677.0984
 160  751.2924
 161  813.496
 162  813.7115
 163  864.1175
 164  874.3571
 165  847.3708
 166  788.9867
 167  826.1948
 168  873.9385
 169  762.9561
 170  868.4175
 171  934.7688
 172  805.6581
 173  733.2356
 174  787.9706
 175  845.252
 176  821.8926
 177  946.9601
 178  941.3027
 179  789.6581
 180  775.8522
 181  779.8912
 182  750.3755
 183  758.3154
 184  766.1208
 185  695.544
 186  611.6458
 187  579.4531
 188  615.0457
 189  631.9755
 190  689.9199
 191  677.7014
 192  629.533
 193  696.475
 194  798.3055
 195  818.7274
 196  671.8345
 197  765.65
 198  898.6278
 199  910.6703
 200  920.4946
 201  853.7996
 202  758.0173
 203  747.3416
 204  740.2925
 205  912.957
 206  886.149
 207  826.1154
 208  799.6205
 209  866.52
 210  833.6607
 211  854.6629
 212  908.6461
 213  914.5084
 214  750.4485
 215  750.6923
 216  732.0257
 217  806.0789
 218  898.8766
 219  831.4999
 220  754.6558
 221  815.0234
 222  797.7697
 223  869.7682
 224  799.9144
 225  784.8963
 226  799.5256
 227  835.769
 228  820.8781
 229  868.6567
 230  768.957
 231  656.1984
 232  661.6711
 233  753.975
 234  804.2075
 235  736.1055
 236  765.0481
 237  812.147
 238  882.2238
 239  830.2747
 240  796.5603
 241  761.2438
 242  858.5601
 243  787.8165
 244  732.6088
 245  751.9448
 246  692.4464
 247  772.1389
 248  858.8218
 249  848.47
 250  784.9214
 251  666.8936
 252  732.593
 253  749.7297
 254  781.465
 255  726.1881
 256  579.3727
 257  543.7095
 258  693.4869
 259  640.5011
 260  698.1656
 261  707.0873
 262  752.9457
 263  777.3018
 264  781.0646
 265  796.1179
 266  666.6226
 267  689.4784
 268  752.5836
 269  703.3227
 270  694.2364
 271  745.1153
 272  720.9793
 273  794.7952
 274  771.8801
 275  771.5253
 276  851.6893
 277  775.64
 278  671.2105
 279  689.1595
 280  686.9846
 281  762.1699
 282  780.2982
 283  805.545
 284  821.4821
 285  823.4626
 286  958.8155
 287  987.7537
 288  946.7999
 289  811.851
 290  784.9427
 291  803.686
 292  788.0118
 293  800.9373
 294  909.8903
 295  989.1331
 296  923.7852
 297  898.7943
 298  836.591
 299  952.1582
 300  938.2591
 301  896.5318
 302  930.2986
 303  865.1467
 304  794.0323
 305  763.2083
 306  693.6293
 307  677.2153
 308  754.0272
 309  846.929
 310  728.0525
 311  699.9665
 312  745.0583
 313  598.4507
 314  684.9456
 315  726.4888
 316  840.9653
 317  805.6565
 318  688.7312
 319  652.4371
 320  712.4559
 321  716.7313
 322  677.4897
 323  593.8158
 324  666.3136
 325  654.2128
 326  568.7776
 327  697.4731
 328  733.6464
 329  691.2579
 330  739.378
 331  873.7002
 332  856.2865
 333  668.1115
 334  698.2816
 335  731.4452
 336  824.4276
 337  824.8901
 338  786.1507
 339  656.0155
 340  588.8547
 341  626.4835
 342  614.7792
 343  582.1063
 344  655.3884
 345  606.7508
 346  569.3071
 347  609.801
 348  689.3935
 349  689.69
 350  665.5507
 351  631.0616
 352  678.9246
 353  657.3847
 354  613.1271
 355  543.7473
 356  572.5757
 357  601.9592
 358  696.4633
 359  599.7398
 360  598.4073
 361  651.6836
 362  666.8218
 363  601.4003
 364  655.2582
 365  775.5887
 366  822.0294
 367  717.3174
 368  609.0644
 369  646.0468
 370  777.3431
 371  660.8648
 372  633.1149
 373  741.6183
 374  814.8844
 375  679.1247
 376  642.8561
 377  723.9575
 378  791.7684
 379  765.0253
 380  800.9237
 381  869.7087
 382  791.0901
 383  756.2599
 384  656.2619
 385  676.9714
 386  679.1295
 387  726.3947
 388  694.7448
 389  743.3651
 390  560.3792
 391  566.2576
 392  586.2047
 393  661.6703
 394  593.5472
 395  612.4515
 396  608.58
 397  561.2455
 398  579.3654
 399  642.6175
 400  575.7269
 401  569.5331
 402  663.9886
 403  632.7606
 404  593.5016
 405  640.853
 406  666.6504
 407  635.1521
 408  542.0488
 409  678.5005
 410  697.8804
 411  666.5213
 412  589.1008
 413  667.7163
 414  634.9443
 415  671.401
 416  746.4697
 417  798.314
 418  779.6057
 419  680.2395
 420  631.2328
 421  676.762
 422  741.2733
 423  632.4147
 424  601.0115
 425  665.9506
 426  729.0938
 427  583.447
 428  686.9329
 429  709.6832
 430  741.9684
 431  723.7897
 432  720.8003
 433  633.6919
 434  721.6115
 435  847.5784
 436  808.6693
 437  783.9832
 438  722.3491
 439  750.5773
 440  726.9203
 441  673.7519
 442  700.7377
 443  680.2335
 444  734.3839
 445  655.2482
 446  694.614
 447  721.6085
 448  733.4515
 449  788.2859
 450  690.8008
 451  632.3481
 452  683.8928
 453  705.172
 454  772.1432
 455  751.0757
 456  666.5497
 457  606.3659
 458  505.8434
 459  591.1564
 460  709.6501
 461  674.4497
 462  676.3355
 463  602.8971
 464  657.8257
 465  605.5496
 466  609.5225
 467  629.2812
 468  651.6919
 469  779.7901
 470  698.6872
 471  712.0377
 472  698.5908
 473  655.2458
 474  691.1546
 475  712.1563
 476  726.5644
 477  744.6397
 478  673.6351
 479  691.6622
 480  665.5109
 481  584.6957
 482  672.69
 483  653.1695
 484  684.9642
 485  571.1473
 486  677.7855
 487  617.1345
 488  542.3533
 489  545.143
 490  618.9918
 491  732.6302
 492  740.2612
 493  651.927
 494  730.0744
 495  578.2184
 496  541.8801
 497  545.4473
 498  616.8223
 499  674.308
 500  701.5367
 501  760.6608
 502  713.2502
 503  606.2993
 504  733.1299
 505  779.3068
 506  777.0602
 507  752.5118
 508  927.2082
 509  954.1707
 510  1111.473
 511  1293.618
