# Input file       =  1205755380.118942_cleaned.dat
# Candidate        =  PSR_0332+5434
# Telescope        =  AR
# Epoch_topo       =  58199.502304617381
# Epoch_bary       =  N/A
# T_sample         =  0.002
# Data Folded      =  7340032
# Data Avg         =  0.09228700819808 
# Data StdDev      =  1.00015134620955 
# Profile Bins     =  512
# Profile Avg      =  1323.30127589659 
# Profile StdDev   =  119.75115751798  
# Reduced chi-sqr  =  1.252
# Prob(Noise)      <  8.93e-05   (~3.7 sigma)
# P_topo (ms)      =  714.574639781784  +/- 0.000515
# P'_topo (s/s)    =  -0                +/- 2.72e-10
# P''_topo (s/s^2) =  0                 +/- 1.2e-13
# P_bary (ms)      =  N/A
# P'_bary (s/s)    =  N/A
# P''_bary (s/s^2) =  N/A
# P_orb (s)        =  N/A
# asin(i)/c (s)    =  N/A
# eccentricity     =  N/A
# w (rad)          =  N/A
# T_peri           =  N/A
######################################################
   0  1857.698
   1  1875.166
   2  1712.342
   3  1469.255
   4  1373.403
   5  1287.885
   6  1177.998
   7  1237.532
   8  1267.545
   9  1272.842
  10  1217.94
  11  1252.357
  12  1340.966
  13  1297.97
  14  1268.797
  15  1353.9
  16  1431.055
  17  1407.05
  18  1266.249
  19  1271.559
  20  1260.158
  21  1187.998
  22  1277.686
  23  1180.047
  24  1156.977
  25  1250.23
  26  1228.369
  27  1219.508
  28  1234.475
  29  1236.626
  30  1185.829
  31  1163.363
  32  1279.794
  33  1269.403
  34  1296.176
  35  1258.919
  36  1233.236
  37  1235.615
  38  1275.994
  39  1230.147
  40  1202.25
  41  1161.211
  42  1204.703
  43  1218.942
  44  1201.8
  45  1137.927
  46  1145.167
  47  1169.005
  48  1220.729
  49  1161.464
  50  1180.044
  51  1207.117
  52  1216.586
  53  1133.403
  54  1128.301
  55  1085.279
  56  1137.608
  57  1134.975
  58  1157.292
  59  1143.156
  60  1222.538
  61  1268.025
  62  1240.459
  63  1208.403
  64  1175.227
  65  1168.875
  66  1164.892
  67  1288.165
  68  1294.553
  69  1259.443
  70  1249.905
  71  1377.661
  72  1375.888
  73  1344.115
  74  1349.109
  75  1365.451
  76  1367.524
  77  1376.22
  78  1361.434
  79  1319.022
  80  1267.985
  81  1360.766
  82  1313.476
  83  1406.706
  84  1311.717
  85  1260.629
  86  1215.319
  87  1223.236
  88  1323.403
  89  1300.404
  90  1306.155
  91  1326.724
  92  1320.001
  93  1332.551
  94  1326.879
  95  1394.899
  96  1351.085
  97  1338.384
  98  1318.118
  99  1260.451
 100  1346.724
 101  1289.588
 102  1319.063
 103  1322.228
 104  1244.736
 105  1362.223
 106  1441.225
 107  1422.765
 108  1387.514
 109  1384.934
 110  1342.942
 111  1343.738
 112  1414.693
 113  1424.673
 114  1381.248
 115  1389.06
 116  1473.333
 117  1423.908
 118  1418.501
 119  1464.598
 120  1522.529
 121  1451.431
 122  1346.352
 123  1320.507
 124  1214.428
 125  1296.235
 126  1368.861
 127  1338.388
 128  1318.069
 129  1261.013
 130  1229.366
 131  1204.677
 132  1268.096
 133  1303.14
 134  1266.632
 135  1334.48
 136  1384.033
 137  1289.146
 138  1266.51
 139  1374.144
 140  1300.503
 141  1260.668
 142  1285.515
 143  1295.183
 144  1370.074
 145  1404.803
 146  1341.014
 147  1277.204
 148  1207.438
 149  1182.904
 150  1250.115
 151  1321.731
 152  1304.705
 153  1313.996
 154  1232.974
 155  1255.168
 156  1253.399
 157  1296.614
 158  1270.246
 159  1244.765
 160  1222.066
 161  1244.084
 162  1232.138
 163  1230.693
 164  1357.525
 165  1423.66
 166  1395.345
 167  1361.915
 168  1281.196
 169  1303.712
 170  1342.762
 171  1329.373
 172  1347.893
 173  1322.351
 174  1373.002
 175  1283.118
 176  1236.094
 177  1297.055
 178  1291.964
 179  1226.866
 180  1256.223
 181  1334.538
 182  1414.615
 183  1374.983
 184  1305.269
 185  1365.647
 186  1398.571
 187  1330.49
 188  1282.808
 189  1397.252
 190  1396.322
 191  1341.364
 192  1351.647
 193  1384.444
 194  1259.741
 195  1251.014
 196  1286.797
 197  1235.912
 198  1273.559
 199  1337.84
 200  1379.775
 201  1460.187
 202  1466.962
 203  1315.84
 204  1353.352
 205  1433.329
 206  1444.994
 207  1440.035
 208  1405.206
 209  1384.274
 210  1366.278
 211  1373.518
 212  1319.227
 213  1435.131
 214  1477.527
 215  1468.011
 216  1438.256
 217  1430.674
 218  1451.415
 219  1466.871
 220  1448.345
 221  1360.629
 222  1414.968
 223  1384.073
 224  1467.842
 225  1524.589
 226  1386.525
 227  1332.495
 228  1367.441
 229  1447.401
 230  1408.845
 231  1411.402
 232  1474.22
 233  1396.924
 234  1409.505
 235  1376.601
 236  1450.529
 237  1470.283
 238  1439.772
 239  1372.919
 240  1317.526
 241  1309.017
 242  1335.779
 243  1421.983
 244  1440.268
 245  1489.186
 246  1480.12
 247  1363.919
 248  1320.115
 249  1402.434
 250  1413.11
 251  1386.15
 252  1370.283
 253  1374.812
 254  1352.207
 255  1284.12
 256  1316.716
 257  1326.666
 258  1404.446
 259  1314.983
 260  1298.768
 261  1279.787
 262  1312.923
 263  1411.247
 264  1443.498
 265  1374.115
 266  1310.252
 267  1377.851
 268  1423.932
 269  1433.756
 270  1465.445
 271  1340.723
 272  1295.408
 273  1355.539
 274  1348.341
 275  1376.658
 276  1393.174
 277  1307.789
 278  1450.287
 279  1423.374
 280  1280.176
 281  1321.341
 282  1294.763
 283  1232.103
 284  1232.523
 285  1282.709
 286  1321.121
 287  1305.652
 288  1285.093
 289  1329.779
 290  1337.694
 291  1319.756
 292  1318.322
 293  1305.124
 294  1395.107
 295  1312.884
 296  1314.589
 297  1382.087
 298  1394.052
 299  1257.887
 300  1310.354
 301  1450.976
 302  1414.289
 303  1439.585
 304  1402.356
 305  1329.128
 306  1348.16
 307  1295.657
 308  1286.228
 309  1289.024
 310  1353.625
 311  1255.697
 312  1368.388
 313  1412.675
 314  1322.191
 315  1324.82
 316  1290.703
 317  1282.035
 318  1297.183
 319  1344.943
 320  1390.091
 321  1307.225
 322  1254.321
 323  1215.729
 324  1289.433
 325  1372.215
 326  1379.972
 327  1381.306
 328  1385.378
 329  1514.81
 330  1483.867
 331  1425.098
 332  1413.735
 333  1321.942
 334  1366.533
 335  1349.153
 336  1448.627
 337  1458.9
 338  1396.047
 339  1317.617
 340  1345.233
 341  1381.112
 342  1380.347
 343  1352.394
 344  1315.529
 345  1295.065
 346  1313.513
 347  1381.645
 348  1348.829
 349  1285.309
 350  1201.973
 351  1266.496
 352  1191.457
 353  1234.788
 354  1242.061
 355  1232.781
 356  1207
 357  1165.077
 358  1260.409
 359  1293.223
 360  1218.304
 361  1226.39
 362  1300.949
 363  1289.653
 364  1298.718
 365  1244.207
 366  1249.837
 367  1323.065
 368  1290.622
 369  1238.837
 370  1312.633
 371  1354.765
 372  1358.124
 373  1219.129
 374  1278.598
 375  1324.073
 376  1304.349
 377  1263.179
 378  1267.134
 379  1336.893
 380  1328.72
 381  1304.757
 382  1324.514
 383  1351.563
 384  1346.063
 385  1315.229
 386  1310.624
 387  1333.206
 388  1270.51
 389  1296.824
 390  1302.576
 391  1307.014
 392  1297.561
 393  1399.414
 394  1370.703
 395  1290.466
 396  1347.12
 397  1333.774
 398  1334.417
 399  1359.047
 400  1346.098
 401  1350.165
 402  1274.656
 403  1288.755
 404  1263.137
 405  1262.358
 406  1294.519
 407  1300.877
 408  1327.92
 409  1354.987
 410  1330.735
 411  1292.509
 412  1322.142
 413  1254.23
 414  1271.802
 415  1384.666
 416  1324.066
 417  1239.07
 418  1274.487
 419  1232.684
 420  1255.408
 421  1284.366
 422  1331.652
 423  1307.425
 424  1273.697
 425  1372.556
 426  1369.994
 427  1300.349
 428  1294.185
 429  1203.994
 430  1185.274
 431  1249.674
 432  1216.457
 433  1279.844
 434  1303.739
 435  1317.471
 436  1324.117
 437  1271.521
 438  1237.791
 439  1336.054
 440  1334.444
 441  1288.034
 442  1179.395
 443  1156.724
 444  1244.255
 445  1305.63
 446  1387.149
 447  1300.995
 448  1213.031
 449  1196.476
 450  1283.302
 451  1225.238
 452  1272.16
 453  1290.518
 454  1320.118
 455  1278.166
 456  1272.077
 457  1278.015
 458  1203.435
 459  1268.055
 460  1325.133
 461  1298.184
 462  1327.568
 463  1317.169
 464  1282.852
 465  1296.6
 466  1353.842
 467  1265.733
 468  1241.807
 469  1244.068
 470  1300.38
 471  1249.605
 472  1333.991
 473  1281.025
 474  1173.979
 475  1174.193
 476  1238
 477  1137.312
 478  1187.659
 479  1170.202
 480  1187.578
 481  1185.483
 482  1194.271
 483  1262.21
 484  1237.122
 485  1377.018
 486  1356.152
 487  1238.5
 488  1301.434
 489  1331.938
 490  1372.946
 491  1410.044
 492  1471.881
 493  1462.56
 494  1453.2
 495  1370.812
 496  1372
 497  1368.751
 498  1378.987
 499  1453.651
 500  1381.019
 501  1417.902
 502  1444.656
 503  1431.103
 504  1425.628
 505  1377.059
 506  1530.361
 507  1561.613
 508  1605.79
 509  1748.29
 510  1801.201
 511  1894.277
