# Input file       =  1205654617.111455_cleaned.dat
# Candidate        =  PSR_0332+5434
# Telescope        =  AR
# Epoch_topo       =  58198.336066104806
# Epoch_bary       =  N/A
# T_sample         =  0.002
# Data Folded      =  7143424
# Data Avg         =  0.0991138499401909
# Data StdDev      =  1.00014378145986 
# Profile Bins     =  512
# Profile Avg      =  1382.7958987413  
# Profile StdDev   =  118.13556774438  
# Reduced chi-sqr  =  1.185
# Prob(Noise)      <  0.0024   (~2.8 sigma)
# P_topo (ms)      =  714.575146731973  +/- 5.96e-05
# P'_topo (s/s)    =  -0                +/- 3.23e-11
# P''_topo (s/s^2) =  0                 +/- 1.46e-14
# P_bary (ms)      =  N/A
# P'_bary (s/s)    =  N/A
# P''_bary (s/s^2) =  N/A
# P_orb (s)        =  N/A
# asin(i)/c (s)    =  N/A
# eccentricity     =  N/A
# w (rad)          =  N/A
# T_peri           =  N/A
######################################################
   0  1755.8
   1  1651.912
   2  1558.634
   3  1473.614
   4  1520.265
   5  1468.782
   6  1370.559
   7  1327.052
   8  1349.223
   9  1485.607
  10  1508.129
  11  1439.758
  12  1450.95
  13  1459.623
  14  1454.263
  15  1444.092
  16  1286.847
  17  1378.751
  18  1446.627
  19  1439.302
  20  1408.178
  21  1273.995
  22  1197.374
  23  1257.4
  24  1275.003
  25  1338.763
  26  1346.919
  27  1369.908
  28  1454.538
  29  1391.552
  30  1378.192
  31  1318.905
  32  1327.032
  33  1319.877
  34  1336.225
  35  1409.54
  36  1500.985
  37  1330.254
  38  1300
  39  1283.852
  40  1285.602
  41  1343.43
  42  1413.216
  43  1499.45
  44  1492.974
  45  1426.978
  46  1491.349
  47  1355.116
  48  1238.244
  49  1224.799
  50  1271.327
  51  1294.648
  52  1260.984
  53  1315.061
  54  1271.162
  55  1235.056
  56  1287.004
  57  1229.091
  58  1191.592
  59  1364.788
  60  1404.816
  61  1341.771
  62  1260.388
  63  1255.51
  64  1242.163
  65  1299.142
  66  1231.337
  67  1231.124
  68  1248.197
  69  1375.765
  70  1312.508
  71  1363.666
  72  1362.001
  73  1242.839
  74  1310.056
  75  1328.671
  76  1390.451
  77  1422.534
  78  1391.172
  79  1367.807
  80  1320.158
  81  1368.122
  82  1280.487
  83  1292.742
  84  1296.922
  85  1316.066
  86  1309.68
  87  1324.741
  88  1254.318
  89  1249.904
  90  1186.085
  91  1193.708
  92  1333.814
  93  1408.244
  94  1455.343
  95  1427.218
  96  1360.016
  97  1197.461
  98  1180.068
  99  1189.34
 100  1272.714
 101  1404.288
 102  1458.516
 103  1420.819
 104  1293.027
 105  1237.167
 106  1225.71
 107  1278.125
 108  1394.116
 109  1357.728
 110  1491.363
 111  1509.299
 112  1485.097
 113  1278.116
 114  1433.814
 115  1522.52
 116  1532.247
 117  1477.083
 118  1429.251
 119  1399.205
 120  1346.251
 121  1450.246
 122  1481.682
 123  1414.917
 124  1383.822
 125  1458.095
 126  1411.21
 127  1455.276
 128  1536.063
 129  1431.985
 130  1321.387
 131  1320.836
 132  1341.686
 133  1410.583
 134  1497.689
 135  1426.574
 136  1396.428
 137  1341.48
 138  1253.423
 139  1327.922
 140  1305.849
 141  1343.923
 142  1322.079
 143  1424.347
 144  1470.637
 145  1529.861
 146  1484.783
 147  1354.353
 148  1349.839
 149  1501.94
 150  1506.909
 151  1373.323
 152  1421.705
 153  1392.614
 154  1382.676
 155  1367.477
 156  1272.844
 157  1379.16
 158  1327.729
 159  1390.07
 160  1383.312
 161  1553.071
 162  1447.261
 163  1325.219
 164  1414.73
 165  1419.781
 166  1532.201
 167  1447.926
 168  1372.497
 169  1411.109
 170  1316.612
 171  1262.662
 172  1238.724
 173  1309.958
 174  1362.657
 175  1368.741
 176  1398.855
 177  1385.31
 178  1438.02
 179  1406.311
 180  1310.082
 181  1370.261
 182  1330.805
 183  1274.443
 184  1309.064
 185  1305.452
 186  1319.313
 187  1302.375
 188  1287.645
 189  1287.96
 190  1313.929
 191  1355.257
 192  1442.079
 193  1487.229
 194  1440.062
 195  1321.078
 196  1348.227
 197  1332.153
 198  1278.548
 199  1304.448
 200  1357.913
 201  1415.892
 202  1434.376
 203  1378.674
 204  1297.545
 205  1221.888
 206  1184.414
 207  1291.533
 208  1306.796
 209  1281.599
 210  1374.274
 211  1359.807
 212  1339.318
 213  1309.018
 214  1214.824
 215  1284.436
 216  1353.024
 217  1365.688
 218  1315.008
 219  1271.886
 220  1271.316
 221  1305.731
 222  1216.351
 223  1213.297
 224  1245.55
 225  1272.581
 226  1238.509
 227  1313.786
 228  1334.013
 229  1242.841
 230  1223.827
 231  1367.202
 232  1333.73
 233  1324.936
 234  1388.003
 235  1382.61
 236  1256.687
 237  1289.732
 238  1455.067
 239  1478.836
 240  1409.754
 241  1406.104
 242  1452.083
 243  1469.248
 244  1428.078
 245  1357.454
 246  1359.837
 247  1445.582
 248  1405.704
 249  1336.915
 250  1406.441
 251  1360.077
 252  1311.582
 253  1432.875
 254  1359.592
 255  1235.521
 256  1332.11
 257  1394.054
 258  1434.226
 259  1505.235
 260  1418.506
 261  1319.699
 262  1388.442
 263  1364.688
 264  1350.824
 265  1419.128
 266  1467.062
 267  1505.145
 268  1574.366
 269  1548.567
 270  1452.183
 271  1403.358
 272  1442.232
 273  1389.439
 274  1353.067
 275  1374.939
 276  1342.786
 277  1346.148
 278  1353.795
 279  1216.946
 280  1233.278
 281  1286.946
 282  1403.963
 283  1455.095
 284  1383.202
 285  1377.668
 286  1318.662
 287  1317.263
 288  1299.125
 289  1310.873
 290  1333.177
 291  1376.465
 292  1455.627
 293  1458.341
 294  1432.83
 295  1340.916
 296  1399.004
 297  1447.329
 298  1413.93
 299  1428.547
 300  1467.379
 301  1401.745
 302  1219.808
 303  1274.694
 304  1357.351
 305  1341.385
 306  1434.864
 307  1401.381
 308  1458.512
 309  1355.681
 310  1339.636
 311  1374.354
 312  1330.417
 313  1304.735
 314  1406.033
 315  1372.422
 316  1368.527
 317  1368.858
 318  1364.456
 319  1398.338
 320  1364.058
 321  1316.798
 322  1169.009
 323  1270.938
 324  1364.41
 325  1290.116
 326  1310.971
 327  1262.145
 328  1228.283
 329  1207.724
 330  1280.902
 331  1387.39
 332  1370.592
 333  1373.978
 334  1393.31
 335  1290.107
 336  1201.014
 337  1274.544
 338  1274.635
 339  1343.428
 340  1388.14
 341  1472.085
 342  1500.911
 343  1470.649
 344  1247.846
 345  1258.878
 346  1317.29
 347  1304.152
 348  1273.5
 349  1293.508
 350  1378.805
 351  1338.781
 352  1251.892
 353  1248.459
 354  1310.5
 355  1371.06
 356  1368.299
 357  1344.15
 358  1443.774
 359  1473.659
 360  1487.302
 361  1423.333
 362  1200.847
 363  1231.566
 364  1333.249
 365  1328.081
 366  1322.572
 367  1373.683
 368  1440.083
 369  1464.083
 370  1414.107
 371  1335.636
 372  1271.489
 373  1503.192
 374  1411.715
 375  1396.65
 376  1506.195
 377  1388.462
 378  1426.762
 379  1473.746
 380  1404.71
 381  1352.398
 382  1453.321
 383  1452.874
 384  1429.616
 385  1449.813
 386  1346.908
 387  1324.477
 388  1305.127
 389  1382.857
 390  1458.851
 391  1488.376
 392  1575.04
 393  1560.318
 394  1400.383
 395  1367.019
 396  1437.401
 397  1415.211
 398  1494.764
 399  1423.779
 400  1485.877
 401  1415.542
 402  1407.406
 403  1440.613
 404  1560.541
 405  1510.138
 406  1415.799
 407  1366.766
 408  1450.031
 409  1468.466
 410  1519.913
 411  1490.505
 412  1480.636
 413  1429.59
 414  1472.832
 415  1516.75
 416  1454.739
 417  1435.602
 418  1456.024
 419  1404.818
 420  1345.033
 421  1469.654
 422  1630.473
 423  1550.148
 424  1552.643
 425  1525.881
 426  1457.866
 427  1388.698
 428  1407.764
 429  1515.72
 430  1506.27
 431  1437.494
 432  1545.48
 433  1540.732
 434  1511.37
 435  1549.956
 436  1476.271
 437  1531.154
 438  1520.424
 439  1521.001
 440  1529.842
 441  1615.506
 442  1590.55
 443  1450.619
 444  1368.416
 445  1340.976
 446  1360.14
 447  1522.903
 448  1607.268
 449  1482.415
 450  1467.696
 451  1410.986
 452  1363.358
 453  1366.565
 454  1441.445
 455  1453.123
 456  1454.358
 457  1463.364
 458  1533.764
 459  1442.727
 460  1276.387
 461  1300.881
 462  1374.428
 463  1389.297
 464  1337.592
 465  1343.999
 466  1475.742
 467  1452.825
 468  1428.621
 469  1401.508
 470  1415.188
 471  1382.154
 472  1421.456
 473  1453.713
 474  1515.187
 475  1471.997
 476  1470.005
 477  1379.506
 478  1367.447
 479  1342.131
 480  1456.8
 481  1520.305
 482  1476.848
 483  1453.13
 484  1377.81
 485  1307.388
 486  1323.391
 487  1286.533
 488  1343.389
 489  1368.922
 490  1424.374
 491  1334.257
 492  1365.434
 493  1438.728
 494  1312.07
 495  1416.921
 496  1423.856
 497  1443.062
 498  1468.786
 499  1466.855
 500  1440.477
 501  1298.547
 502  1277.765
 503  1401.131
 504  1462.381
 505  1433.99
 506  1354.805
 507  1520.17
 508  1583.545
 509  1666.312
 510  1667.948
 511  1725.298
