# Input file       =  1205755380.118942_cleaned.dat
# Candidate        =  PSR_0332+5434
# Telescope        =  AR
# Epoch_topo       =  58199.502304617381
# Epoch_bary       =  N/A
# T_sample         =  0.002
# Data Folded      =  7340032
# Data Avg         =  0.09228700819808 
# Data StdDev      =  1.00015134620955 
# Profile Bins     =  512
# Profile Avg      =  1323.30125046314 
# Profile StdDev   =  119.75115751798  
# Reduced chi-sqr  =  1.253
# Prob(Noise)      <  8.14e-05   (~3.8 sigma)
# P_topo (ms)      =  714.574640602305  +/- 0.000538
# P'_topo (s/s)    =  -0                +/- 2.84e-10
# P''_topo (s/s^2) =  0                 +/- 1.25e-13
# P_bary (ms)      =  N/A
# P'_bary (s/s)    =  N/A
# P''_bary (s/s^2) =  N/A
# P_orb (s)        =  N/A
# asin(i)/c (s)    =  N/A
# eccentricity     =  N/A
# w (rad)          =  N/A
# T_peri           =  N/A
######################################################
   0  1276.055
   1  1244.151
   2  1191.452
   3  1256.049
   4  1304.798
   5  1261.534
   6  1312.174
   7  1387.618
   8  1326.607
   9  1241.384
  10  1358.129
  11  1326.021
  12  1262.779
  13  1288.588
  14  1286.797
  15  1350.865
  16  1402.553
  17  1364.357
  18  1286.67
  19  1226.816
  20  1178.997
  21  1222.933
  22  1318.347
  23  1306.182
  24  1316.795
  25  1250.198
  26  1240.261
  27  1259.387
  28  1288.056
  29  1284.16
  30  1242.16
  31  1234.405
  32  1232.139
  33  1240.791
  34  1211.657
  35  1331.063
  36  1420.263
  37  1402.84
  38  1373.568
  39  1298.102
  40  1293.472
  41  1341.736
  42  1323.096
  43  1343.608
  44  1324.773
  45  1362.476
  46  1319.071
  47  1236.091
  48  1279.121
  49  1304.129
  50  1235.565
  51  1244.198
  52  1307.643
  53  1398.625
  54  1408.784
  55  1306.267
  56  1342.233
  57  1402.6
  58  1350.43
  59  1279.436
  60  1366.121
  61  1413.706
  62  1351.577
  63  1342.106
  64  1395.52
  65  1288.053
  66  1239.952
  67  1287.414
  68  1239.832
  69  1254.157
  70  1331.513
  71  1365.286
  72  1433.523
  73  1494.291
  74  1350.646
  75  1329.638
  76  1414.952
  77  1436.711
  78  1452.798
  79  1408.238
  80  1397.591
  81  1359.939
  82  1372.645
  83  1322.649
  84  1412.248
  85  1467.991
  86  1477.537
  87  1447.727
  88  1428.624
  89  1439.493
  90  1467.494
  91  1468.425
  92  1367.579
  93  1405.035
  94  1384.47
  95  1444.915
  96  1527.135
  97  1420.53
  98  1332.281
  99  1355.429
 100  1441.205
 101  1421.123
 102  1397.04
 103  1464.226
 104  1425.849
 105  1393.298
 106  1386.576
 107  1420.255
 108  1486.767
 109  1447.233
 110  1396.948
 111  1314.728
 112  1321.177
 113  1312.605
 114  1410.205
 115  1429.32
 116  1488.267
 117  1484.979
 118  1402.214
 119  1299.827
 120  1392.262
 121  1405.987
 122  1403.57
 123  1364.282
 124  1386.202
 125  1366.592
 126  1285.296
 127  1308.089
 128  1312.295
 129  1400.086
 130  1335.955
 131  1295.113
 132  1289.079
 133  1290.905
 134  1396.661
 135  1440.239
 136  1401.039
 137  1313.055
 138  1351.968
 139  1424.293
 140  1429.827
 141  1468.06
 142  1370.081
 143  1297.824
 144  1334.352
 145  1369.94
 146  1352.955
 147  1417.378
 148  1293.301
 149  1423.717
 150  1452.45
 151  1300.592
 152  1301.527
 153  1310.37
 154  1239.58
 155  1230.804
 156  1275.846
 157  1316.588
 158  1310.36
 159  1283.773
 160  1312.855
 161  1350.763
 162  1314.562
 163  1327.428
 164  1289.719
 165  1393.88
 166  1330.206
 167  1305.665
 168  1360.295
 169  1420.601
 170  1274.759
 171  1272.344
 172  1433.639
 173  1432.372
 174  1425.208
 175  1423.231
 176  1337.296
 177  1346.974
 178  1312.346
 179  1282.019
 180  1279.553
 181  1350.247
 182  1280.686
 183  1312.335
 184  1433.186
 185  1327.724
 186  1336.279
 187  1302.614
 188  1278.42
 189  1289.729
 190  1324.82
 191  1393.096
 192  1335.374
 193  1259.398
 194  1216.672
 195  1263.263
 196  1357.48
 197  1387.813
 198  1373.368
 199  1385.222
 200  1472.346
 201  1524.536
 202  1415.609
 203  1438.777
 204  1330.091
 205  1358.274
 206  1348.254
 207  1421.027
 208  1462.872
 209  1414.087
 210  1338.912
 211  1322.763
 212  1392.03
 213  1370.983
 214  1362.612
 215  1319.899
 216  1296.725
 217  1308.494
 218  1369.13
 219  1362.769
 220  1306.427
 221  1199.959
 222  1270.619
 223  1200.912
 224  1224.917
 225  1236.182
 226  1242.173
 227  1210.262
 228  1178.07
 229  1213.35
 230  1314.985
 231  1228.039
 232  1212.325
 233  1297.538
 234  1285.202
 235  1301.277
 236  1254.633
 237  1244.728
 238  1307.531
 239  1312.751
 240  1237.579
 241  1290.942
 242  1350.626
 243  1361.996
 244  1255.677
 245  1243.539
 246  1326.964
 247  1312.385
 248  1280.288
 249  1252.798
 250  1315.666
 251  1336.904
 252  1305.474
 253  1314.129
 254  1363.493
 255  1336.641
 256  1340.503
 257  1287.517
 258  1349.072
 259  1278.658
 260  1285.314
 261  1297.161
 262  1303.384
 263  1301.288
 264  1369.627
 265  1400.793
 266  1294.598
 267  1332.239
 268  1341.236
 269  1323.87
 270  1360.722
 271  1348.446
 272  1354.963
 273  1294.135
 274  1273.747
 275  1281.072
 276  1253.02
 277  1292.467
 278  1303.244
 279  1315.429
 280  1347.069
 281  1343.208
 282  1291.594
 283  1322.87
 284  1281.273
 285  1245.674
 286  1375.928
 287  1348.563
 288  1245.57
 289  1270.45
 290  1235.039
 291  1246.92
 292  1265.664
 293  1337.759
 294  1313.05
 295  1273.161
 296  1342.409
 297  1396.272
 298  1307.433
 299  1300.424
 300  1216.417
 301  1185.749
 302  1235.779
 303  1221.537
 304  1259.526
 305  1305.537
 306  1318.004
 307  1321.319
 308  1300.598
 309  1227.161
 310  1313.998
 311  1345.802
 312  1298.926
 313  1205.613
 314  1149.41
 315  1224.563
 316  1286.609
 317  1380.391
 318  1318.073
 319  1243.754
 320  1173.022
 321  1286.198
 322  1232.253
 323  1250.239
 324  1300.16
 325  1303.572
 326  1301.644
 327  1254.934
 328  1292.647
 329  1204.678
 330  1253.25
 331  1325.241
 332  1301.825
 333  1320.291
 334  1316.584
 335  1292.287
 336  1275.023
 337  1360.427
 338  1294.105
 339  1238.06
 340  1250.239
 341  1280.996
 342  1263.887
 343  1300.771
 344  1319.797
 345  1188.772
 346  1162.09
 347  1228.424
 348  1167.025
 349  1166.001
 350  1186.511
 351  1173.081
 352  1192.108
 353  1179.646
 354  1263.69
 355  1232.597
 356  1329.104
 357  1402.155
 358  1235.876
 359  1298.266
 360  1320.083
 361  1362.4
 362  1391.82
 363  1468.448
 364  1459.128
 365  1472.014
 366  1386.35
 367  1360.04
 368  1372.25
 369  1373.193
 370  1446.207
 371  1397.375
 372  1394.355
 373  1446.515
 374  1440.194
 375  1427.121
 376  1383.432
 377  1484.015
 378  1576.278
 379  1572.6
 380  1717.211
 381  1783.799
 382  1883.392
 383  1867.015
 384  1887.238
 385  1753.753
 386  1517.853
 387  1385.725
 388  1325.436
 389  1190.13
 390  1218.029
 391  1265.061
 392  1276.58
 393  1228.075
 394  1235.248
 395  1321.55
 396  1326.198
 397  1262.158
 398  1321.011
 399  1426.959
 400  1419.039
 401  1302.803
 402  1257.978
 403  1273.959
 404  1190.494
 405  1252.215
 406  1225.157
 407  1140.056
 408  1244.448
 409  1235.836
 410  1210.536
 411  1231.321
 412  1235.627
 413  1209.693
 414  1151.401
 415  1254.471
 416  1278.286
 417  1284.791
 418  1274.983
 419  1245.607
 420  1218.166
 421  1274.914
 422  1238.068
 423  1215.838
 424  1168.015
 425  1192.52
 426  1215.515
 427  1212.097
 428  1153.789
 429  1135.108
 430  1157.38
 431  1222.229
 432  1164.896
 433  1189.27
 434  1179.305
 435  1240.128
 436  1132.304
 437  1146.84
 438  1079.214
 439  1138.07
 440  1120.818
 441  1164.346
 442  1133.198
 443  1211.323
 444  1262.617
 445  1240.563
 446  1225.674
 447  1173.848
 448  1177.138
 449  1155.123
 450  1261.751
 451  1297.366
 452  1271.13
 453  1242.629
 454  1339.085
 455  1395.132
 456  1343.61
 457  1349.143
 458  1359.017
 459  1367.145
 460  1374.329
 461  1365.816
 462  1346.674
 463  1256.42
 464  1347.884
 465  1320.771
 466  1383.193
 467  1358.006
 468  1255.971
 469  1233.869
 470  1199.156
 471  1308.871
 472  1306.913
 473  1297.923
 474  1328.131
 475  1317.769
 476  1338.734
 477  1315.802
 478  1383.889
 479  1361.95
 480  1340.897
 481  1333.248
 482  1264.817
 483  1329.097
 484  1300.465
 485  1306.179
 486  1340.552
 487  1258.071
 488  1315.211
 489  1435.417
 490  1429.399
 491  1393.586
 492  1395.888
 493  1350.854
 494  1338.309
 495  1389.794
 496  1437.295
 497  1381.607
 498  1385.893
 499  1440.495
 500  1452.358
 501  1406.817
 502  1461.515
 503  1503.997
 504  1487.512
 505  1356.395
 506  1346.767
 507  1223.586
 508  1266.756
 509  1354.553
 510  1348.342
 511  1330.596
