# Input file       =  1205065935.111248_cleaned.dat
# Candidate        =  PSR_0332+5434
# Telescope        =  AR
# Epoch_topo       =  58191.522617028335
# Epoch_bary       =  N/A
# T_sample         =  0.002
# Data Folded      =  7340032
# Data Avg         =  0.0901079518570587
# Data StdDev      =  1.00007844403393 
# Profile Bins     =  512
# Profile Avg      =  1291.72473861172 
# Profile StdDev   =  119.742428719134 
# Reduced chi-sqr  =  2.707
# Prob(Noise)      <  1.74e-81   (~19.1 sigma)
# P_topo (ms)      =  714.577754116658  +/- 0.000826
# P'_topo (s/s)    =  -0                +/- 4.36e-10
# P''_topo (s/s^2) =  0                 +/- 1.92e-13
# P_bary (ms)      =  N/A
# P'_bary (s/s)    =  N/A
# P''_bary (s/s^2) =  N/A
# P_orb (s)        =  N/A
# asin(i)/c (s)    =  N/A
# eccentricity     =  N/A
# w (rad)          =  N/A
# T_peri           =  N/A
######################################################
   0  1440.006
   1  1411.663
   2  1415.467
   3  1365.452
   4  1416.749
   5  1352.031
   6  1325.851
   7  1377.746
   8  1333.985
   9  1372.873
  10  1312.871
  11  1375.706
  12  1423.588
  13  1342.135
  14  1322.432
  15  1375.369
  16  1371.584
  17  1400.758
  18  1371.47
  19  1388.125
  20  1387.948
  21  1395.168
  22  1413.003
  23  1467.977
  24  1515.964
  25  1456.605
  26  1446.667
  27  1417.628
  28  1470.766
  29  1458.253
  30  1488.985
  31  1531.022
  32  1538.927
  33  1465.35
  34  1521.775
  35  1501.331
  36  1485.892
  37  1454.483
  38  1410.184
  39  1558.712
  40  1524.966
  41  1529.334
  42  1556.754
  43  1507.308
  44  1496.637
  45  1509.496
  46  1474.61
  47  1505.866
  48  1529.576
  49  1540.343
  50  1496.456
  51  1463.732
  52  1413.862
  53  1459.993
  54  1528.498
  55  1514.005
  56  1505.732
  57  1502.327
  58  1494.28
  59  1496.326
  60  1548.41
  61  1602.076
  62  1474.613
  63  1483.178
  64  1532.132
  65  1519.984
  66  1540.846
  67  1552.56
  68  1559.207
  69  1507.517
  70  1480.19
  71  1426.338
  72  1453.026
  73  1522.939
  74  1388.171
  75  1412.416
  76  1500.691
  77  1478.569
  78  1401.119
  79  1405.26
  80  1377.501
  81  1465.602
  82  1405.011
  83  1439.002
  84  1539.441
  85  1426.225
  86  1419.942
  87  1430.669
  88  1479.024
  89  1428.057
  90  1373.41
  91  1330.298
  92  1365.394
  93  1400.17
  94  1384.3
  95  1399.247
  96  1356.691
  97  1262.164
  98  1236.742
  99  1304.143
 100  1314
 101  1377.832
 102  1419.842
 103  1431.47
 104  1455.836
 105  1317.585
 106  1326.05
 107  1318.037
 108  1270.708
 109  1291.398
 110  1327.695
 111  1313.611
 112  1303.752
 113  1351.768
 114  1343.394
 115  1373.195
 116  1418.265
 117  1351.185
 118  1307.686
 119  1268.366
 120  1290.787
 121  1272.496
 122  1338.536
 123  1390.745
 124  1448.773
 125  1341.667
 126  1363.148
 127  1425.59
 128  1371.023
 129  1413.674
 130  1494.817
 131  1384.59
 132  1432.599
 133  1406.12
 134  1342.86
 135  1224.805
 136  1265.052
 137  1287.278
 138  1284.875
 139  1284.786
 140  1276.945
 141  1294.491
 142  1299.938
 143  1258.753
 144  1212.345
 145  1288.687
 146  1223.892
 147  1201.698
 148  1183.025
 149  1195.202
 150  1158.016
 151  1171.347
 152  1176.78
 153  1196.983
 154  1219.788
 155  1284.219
 156  1250.519
 157  1269.435
 158  1211.19
 159  1215.825
 160  1277.364
 161  1261.096
 162  1235.939
 163  1291.984
 164  1320.591
 165  1270.39
 166  1238.669
 167  1294.659
 168  1316.328
 169  1334.555
 170  1323.006
 171  1302.639
 172  1313.879
 173  1347.834
 174  1289.918
 175  1260.398
 176  1301.554
 177  1231.015
 178  1277.416
 179  1358.918
 180  1369.71
 181  1390.776
 182  1319.682
 183  1299.486
 184  1261.821
 185  1321.958
 186  1317.673
 187  1377.28
 188  1377.737
 189  1391.077
 190  1334.558
 191  1296.01
 192  1362.524
 193  1325.868
 194  1362.991
 195  1325.254
 196  1290.81
 197  1343.747
 198  1321.684
 199  1314.995
 200  1297.493
 201  1271.933
 202  1252.016
 203  1258.895
 204  1308.694
 205  1318.728
 206  1233.634
 207  1235.266
 208  1223.974
 209  1196.851
 210  1256.759
 211  1221.6
 212  1266.523
 213  1264.667
 214  1280.574
 215  1327.047
 216  1216.885
 217  1289.057
 218  1237.408
 219  1167.72
 220  1188.375
 221  1258.954
 222  1328.28
 223  1306.211
 224  1336.158
 225  1241.543
 226  1192.237
 227  1135.263
 228  1154.122
 229  1118.371
 230  1086.754
 231  1135.686
 232  1147.868
 233  1183.51
 234  1143.087
 235  1078.634
 236  1098.508
 237  1166.418
 238  1279.948
 239  1273.854
 240  1172.068
 241  1144.332
 242  1100.902
 243  1134.362
 244  1204.399
 245  1150.697
 246  1180.785
 247  1142.646
 248  1138.321
 249  1121.17
 250  1139.98
 251  1143.702
 252  1122.731
 253  1075.851
 254  1082.865
 255  1140.398
 256  1138.347
 257  1143.098
 258  1134.048
 259  1118.401
 260  1178.541
 261  1218.427
 262  1165.616
 263  1200.997
 264  1258.851
 265  1167.61
 266  1087.207
 267  1097.685
 268  1094.111
 269  1129.692
 270  1161.36
 271  1205.88
 272  1085.059
 273  1099.619
 274  1148.703
 275  1151.52
 276  1153.465
 277  1155.907
 278  1208.394
 279  1146.416
 280  1186.007
 281  1260.992
 282  1170.759
 283  1113.679
 284  1127.578
 285  1146.482
 286  1091.638
 287  1143.623
 288  1122.612
 289  1069.905
 290  1048.903
 291  1060.271
 292  1071.105
 293  1092.602
 294  1101.556
 295  1055.548
 296  1029.907
 297  1026.305
 298  1130.14
 299  1045.79
 300  979.3743
 301  1037.643
 302  1013.01
 303  1065.648
 304  1039.819
 305  1145.914
 306  1120.396
 307  1039.254
 308  1076.691
 309  1050.004
 310  1052.04
 311  1042.607
 312  1154.078
 313  1180.088
 314  1129.216
 315  1059.88
 316  990.2736
 317  1009.092
 318  969.7698
 319  1061.722
 320  1069.287
 321  1066.549
 322  1012.551
 323  1011.73
 324  964.2149
 325  1064.702
 326  1115.606
 327  1095.736
 328  1144.52
 329  1178.687
 330  1158.717
 331  1110.665
 332  1096.502
 333  1161.146
 334  1163.459
 335  1202.071
 336  1108.052
 337  1161.446
 338  1179.032
 339  1132.121
 340  1122.826
 341  1128.524
 342  1188.257
 343  1143.25
 344  1157.994
 345  1188.535
 346  1180.446
 347  1220.836
 348  1177.884
 349  1257.236
 350  1230.856
 351  1222.245
 352  1232.823
 353  1298.118
 354  1283.103
 355  1272.913
 356  1284.64
 357  1212.973
 358  1188.265
 359  1112.212
 360  1199.359
 361  1226.986
 362  1188.948
 363  1119.752
 364  1079.448
 365  1114.445
 366  1036.703
 367  1094.418
 368  1156.437
 369  1147.321
 370  1112.753
 371  1146.105
 372  1150.707
 373  1131.634
 374  1146.103
 375  1117.353
 376  1149.115
 377  1158.255
 378  1130.522
 379  1071.399
 380  1108.268
 381  1173.134
 382  1183.402
 383  1233.231
 384  1233.724
 385  1237.852
 386  1186.774
 387  1159.863
 388  1193.466
 389  1175.073
 390  1123.236
 391  1168.122
 392  1164.792
 393  1149.881
 394  1217.25
 395  1184.454
 396  1153.877
 397  1164.569
 398  1164.471
 399  1252.173
 400  1243.502
 401  1286.528
 402  1216.097
 403  1202.328
 404  1218.791
 405  1172.444
 406  1193.797
 407  1229.059
 408  1288.091
 409  1274.099
 410  1357.771
 411  1278.064
 412  1232.091
 413  1245.981
 414  1279.849
 415  1268.626
 416  1234.499
 417  1250.052
 418  1259.626
 419  1261.644
 420  1257.592
 421  1211.037
 422  1266.916
 423  1351.995
 424  1359.735
 425  1397.543
 426  1398.037
 427  1351.389
 428  1363.774
 429  1417.428
 430  1503.71
 431  1455.421
 432  1512.838
 433  1504.936
 434  1567.085
 435  1614.838
 436  1684.643
 437  1792.948
 438  1675.466
 439  1632.376
 440  1517.947
 441  1435.868
 442  1387.199
 443  1386.913
 444  1403.898
 445  1456.183
 446  1373.842
 447  1320.998
 448  1389.207
 449  1400.274
 450  1448.992
 451  1437.52
 452  1418.27
 453  1414.317
 454  1452.888
 455  1418.38
 456  1389.757
 457  1411.086
 458  1406.088
 459  1434.845
 460  1505.202
 461  1469.224
 462  1419.457
 463  1402.8
 464  1441.575
 465  1477.132
 466  1542.376
 467  1476.678
 468  1488.43
 469  1457.515
 470  1378.493
 471  1332.871
 472  1312.174
 473  1391.835
 474  1361.67
 475  1343.981
 476  1336.698
 477  1297.631
 478  1267.032
 479  1327.653
 480  1400.909
 481  1371.084
 482  1406.45
 483  1422.575
 484  1397.564
 485  1278.28
 486  1284.056
 487  1302.308
 488  1393.516
 489  1439.504
 490  1443.109
 491  1382.493
 492  1415.047
 493  1360.814
 494  1346.632
 495  1362.072
 496  1414.008
 497  1345.961
 498  1325.339
 499  1374.438
 500  1340.943
 501  1317.87
 502  1410.45
 503  1440.832
 504  1376.207
 505  1363.947
 506  1347.753
 507  1442.911
 508  1506.051
 509  1480.833
 510  1436.784
 511  1409.449
