# Input file       =  1205654617.111455_cleaned.dat
# Candidate        =  PSR_0332+5434
# Telescope        =  AR
# Epoch_topo       =  58198.336066104806
# Epoch_bary       =  N/A
# T_sample         =  0.002
# Data Folded      =  7143424
# Data Avg         =  0.0991138499401909
# Data StdDev      =  1.00014378145986 
# Profile Bins     =  512
# Profile Avg      =  1382.79587747608 
# Profile StdDev   =  118.13556774438  
# Reduced chi-sqr  =  1.187
# Prob(Noise)      <  0.00227   (~2.8 sigma)
# P_topo (ms)      =  714.575147537912  +/- 5.98e-05
# P'_topo (s/s)    =  -0                +/- 3.24e-11
# P''_topo (s/s^2) =  0                 +/- 1.47e-14
# P_bary (ms)      =  N/A
# P'_bary (s/s)    =  N/A
# P''_bary (s/s^2) =  N/A
# P_orb (s)        =  N/A
# asin(i)/c (s)    =  N/A
# eccentricity     =  N/A
# w (rad)          =  N/A
# T_peri           =  N/A
######################################################
   0  1385.685
   1  1444.372
   2  1437.593
   3  1389.097
   4  1231.236
   5  1173.469
   6  1195.247
   7  1233.309
   8  1378.927
   9  1453.441
  10  1448.512
  11  1306.264
  12  1255.303
  13  1222.344
  14  1259.209
  15  1378.848
  16  1347.438
  17  1462.935
  18  1515.188
  19  1513.008
  20  1310.608
  21  1379.995
  22  1519.458
  23  1519.244
  24  1510.95
  25  1429.685
  26  1418.577
  27  1329.338
  28  1438.249
  29  1476.708
  30  1444.186
  31  1364.544
  32  1444.473
  33  1424.215
  34  1438.985
  35  1531.783
  36  1467.368
  37  1330.846
  38  1311.306
  39  1351.124
  40  1375.108
  41  1504.101
  42  1428.001
  43  1417.575
  44  1350.615
  45  1269.127
  46  1302.247
  47  1321.128
  48  1323.326
  49  1338.335
  50  1384.405
  51  1477.986
  52  1504.635
  53  1519.857
  54  1379.001
  55  1331.262
  56  1467.035
  57  1520.829
  58  1393.899
  59  1417.562
  60  1398.656
  61  1378.544
  62  1384.558
  63  1283.857
  64  1355.794
  65  1339.01
  66  1373.929
  67  1373.014
  68  1518.166
  69  1502.548
  70  1315.824
  71  1404.345
  72  1412.918
  73  1516.796
  74  1487.862
  75  1359.422
  76  1411.955
  77  1341.93
  78  1281.595
  79  1228.731
  80  1292.643
  81  1353.427
  82  1369.794
  83  1393.635
  84  1392.692
  85  1414.682
  86  1430.902
  87  1311.183
  88  1365.366
  89  1349.4
  90  1281.32
  91  1288.752
  92  1319.597
  93  1314.362
  94  1312.587
  95  1283.228
  96  1284.857
  97  1304.079
  98  1338.863
  99  1430.675
 100  1483.3
 101  1469.082
 102  1322.768
 103  1348.84
 104  1345.513
 105  1284.739
 106  1293.091
 107  1345.832
 108  1401.858
 109  1433.405
 110  1393.611
 111  1311.004
 112  1244.453
 113  1192.528
 114  1257.978
 115  1324.966
 116  1253.193
 117  1365.435
 118  1381.086
 119  1333.715
 120  1321.947
 121  1227.276
 122  1253.527
 123  1348.73
 124  1368.614
 125  1325.436
 126  1280.354
 127  1268.35
 128  1313.553
 129  1232.677
 130  1198.54
 131  1243.824
 132  1273.464
 133  1244.099
 134  1284.15
 135  1334.168
 136  1271.481
 137  1211.094
 138  1345.63
 139  1360.405
 140  1302.594
 141  1374.519
 142  1403.57
 143  1292.55
 144  1251.149
 145  1421.684
 146  1485.299
 147  1424.731
 148  1403.084
 149  1444.439
 150  1464.346
 151  1448.105
 152  1370.337
 153  1342.573
 154  1430.845
 155  1424.673
 156  1341.995
 157  1383.46
 158  1402.579
 159  1293.709
 160  1409.108
 161  1400.443
 162  1238.107
 163  1310.8
 164  1387.054
 165  1420.356
 166  1485.819
 167  1456.134
 168  1333.907
 169  1372.784
 170  1378.149
 171  1334.942
 172  1398.507
 173  1476.565
 174  1486.848
 175  1559.953
 176  1561.138
 177  1478.424
 178  1406.583
 179  1436.973
 180  1403.526
 181  1346.458
 182  1370.691
 183  1360.354
 184  1326.711
 185  1376.59
 186  1240.416
 187  1220.135
 188  1280.013
 189  1370.42
 190  1458.593
 191  1386.756
 192  1388.186
 193  1340.493
 194  1307.057
 195  1309.588
 196  1298.052
 197  1335.78
 198  1354.41
 199  1442.617
 200  1459.184
 201  1442.472
 202  1361.722
 203  1368.573
 204  1451.808
 205  1427.606
 206  1404.206
 207  1471.046
 208  1431.745
 209  1254.785
 210  1235.236
 211  1360.162
 212  1336.231
 213  1418.648
 214  1415.75
 215  1438.345
 216  1393.997
 217  1322.152
 218  1380.519
 219  1342.325
 220  1296.814
 221  1387.624
 222  1380.079
 223  1372.416
 224  1372.338
 225  1349.934
 226  1398.733
 227  1372.268
 228  1346.925
 229  1189.015
 230  1225.952
 231  1365.877
 232  1299.41
 233  1311.05
 234  1276.364
 235  1230.716
 236  1212.516
 237  1256.725
 238  1370.707
 239  1380.336
 240  1359.063
 241  1405.172
 242  1326.304
 243  1198.127
 244  1266.995
 245  1264.87
 246  1326.215
 247  1377.234
 248  1465.576
 249  1486.828
 250  1506.561
 251  1282.837
 252  1243.522
 253  1309.631
 254  1310.68
 255  1275.851
 256  1279.542
 257  1356.844
 258  1363.54
 259  1269.405
 260  1237.152
 261  1292.521
 262  1359.68
 263  1380.767
 264  1345.72
 265  1407.455
 266  1486.523
 267  1483.851
 268  1451.183
 269  1243.698
 270  1195.885
 271  1322.406
 272  1334.529
 273  1329.074
 274  1352.023
 275  1423.217
 276  1468.813
 277  1431.816
 278  1363.399
 279  1255.178
 280  1447.325
 281  1461.58
 282  1363.037
 283  1509.97
 284  1407.887
 285  1412.347
 286  1465.118
 287  1434.722
 288  1340.287
 289  1434.616
 290  1460.246
 291  1437.008
 292  1456.832
 293  1371.197
 294  1318.892
 295  1299.112
 296  1357.823
 297  1457.16
 298  1473.398
 299  1549.163
 300  1589.617
 301  1433.675
 302  1361.252
 303  1429.402
 304  1409.85
 305  1487.582
 306  1433.299
 307  1473.811
 308  1430.681
 309  1397.986
 310  1432.299
 311  1547.377
 312  1526.509
 313  1447.89
 314  1355.057
 315  1429.575
 316  1474.43
 317  1498.051
 318  1513.057
 319  1470.23
 320  1449.209
 321  1445.575
 322  1525.739
 323  1480.925
 324  1423.843
 325  1457.441
 326  1413.649
 327  1354.599
 328  1416.442
 329  1628.403
 330  1556.782
 331  1550.373
 332  1545.934
 333  1465.609
 334  1410.248
 335  1382.248
 336  1488.51
 337  1528.052
 338  1442.198
 339  1521.586
 340  1556.968
 341  1502.781
 342  1564.459
 343  1475.475
 344  1521.25
 345  1519.193
 346  1521.326
 347  1520.43
 348  1601.767
 349  1605.384
 350  1480.922
 351  1384.837
 352  1340.375
 353  1350.887
 354  1489.068
 355  1599.365
 356  1516.517
 357  1464.653
 358  1422.825
 359  1360.454
 360  1371.405
 361  1419.064
 362  1473.681
 363  1436.401
 364  1455.495
 365  1521.765
 366  1482.996
 367  1291.558
 368  1304.602
 369  1346.098
 370  1401.714
 371  1337.901
 372  1342.456
 373  1437.798
 374  1479.221
 375  1424.606
 376  1416.847
 377  1400.45
 378  1397.502
 379  1405.877
 380  1444.792
 381  1502.905
 382  1491.03
 383  1462.883
 384  1407.865
 385  1363.078
 386  1340.165
 387  1438.471
 388  1510.66
 389  1490.919
 390  1457.377
 391  1398.938
 392  1315.838
 393  1315.587
 394  1296.193
 395  1319.413
 396  1376.406
 397  1418.479
 398  1356.592
 399  1330.709
 400  1441.137
 401  1340.753
 402  1382.635
 403  1445.463
 404  1422.429
 405  1465.387
 406  1465.778
 407  1462.556
 408  1329.874
 409  1254.339
 410  1374.896
 411  1456.262
 412  1459.219
 413  1344.067
 414  1478.438
 415  1578.793
 416  1656.148
 417  1675.042
 418  1696.439
 419  1772.095
 420  1669.467
 421  1586.607
 422  1478.453
 423  1504.183
 424  1494.019
 425  1389.136
 426  1339.797
 427  1327.495
 428  1457.522
 429  1521.719
 430  1446.112
 431  1446.735
 432  1463.177
 433  1440.706
 434  1478.185
 435  1296.096
 436  1350.118
 437  1447.638
 438  1434.989
 439  1421.097
 440  1309.347
 441  1198.633
 442  1259.395
 443  1261.373
 444  1326.239
 445  1335.898
 446  1366.401
 447  1433.763
 448  1423.496
 449  1367.992
 450  1344.269
 451  1310.517
 452  1330.139
 453  1327.988
 454  1374.38
 455  1506.609
 456  1382.584
 457  1286.591
 458  1295.07
 459  1270.675
 460  1332.581
 461  1395.42
 462  1488.406
 463  1499.818
 464  1433.988
 465  1477.165
 466  1406.053
 467  1254.082
 468  1221.414
 469  1254.984
 470  1293.356
 471  1259.349
 472  1320.709
 473  1273.386
 474  1242.715
 475  1270.604
 476  1267.742
 477  1173.647
 478  1321.301
 479  1405.029
 480  1367.582
 481  1276.353
 482  1256.269
 483  1221.45
 484  1295.593
 485  1244.911
 486  1238.311
 487  1231.2
 488  1366.2
 489  1322.459
 490  1348.462
 491  1383.79
 492  1252.142
 493  1293.183
 494  1316.134
 495  1374.598
 496  1433.001
 497  1387.634
 498  1382.818
 499  1305.406
 500  1386.352
 501  1291.332
 502  1298.721
 503  1279.66
 504  1322.646
 505  1295.771
 506  1349.659
 507  1248.199
 508  1259.368
 509  1206.249
 510  1179.29
 511  1305.249
