# Input file       =  1205755380.118942_cleaned.dat
# Candidate        =  PSR_0332+5434
# Telescope        =  AR
# Epoch_topo       =  58199.502304617381
# Epoch_bary       =  N/A
# T_sample         =  0.002
# Data Folded      =  7340032
# Data Avg         =  0.561573897915617
# Data StdDev      =  5.77946447376044 
# Profile Bins     =  512
# Profile Avg      =  8052.12146654521 
# Profile StdDev   =  691.992830074986 
# Reduced chi-sqr  =  0.800
# Prob(Noise)      <  1   (~0.0 sigma)
# P_topo (ms)      =  714.574640475713  +/- 0.000603
# P'_topo (s/s)    =  -0                +/- 3.18e-10
# P''_topo (s/s^2) =  0                 +/- 1.41e-13
# P_bary (ms)      =  N/A
# P'_bary (s/s)    =  N/A
# P''_bary (s/s^2) =  N/A
# P_orb (s)        =  N/A
# asin(i)/c (s)    =  N/A
# eccentricity     =  N/A
# w (rad)          =  N/A
# T_peri           =  N/A
######################################################
   0  8340.057
   1  8156.954
   2  8046.839
   3  7911.419
   4  8117.982
   5  8417.626
   6  8565.42
   7  8339.874
   8  8475.449
   9  8403.706
  10  8509.262
  11  8448.475
  12  8334.803
  13  8208.07
  14  8359.844
  15  8463.133
  16  8761.904
  17  8732.963
  18  8155.44
  19  8094.466
  20  8352.631
  21  8600.796
  22  8380.917
  23  8658.98
  24  8896.788
  25  8513.009
  26  8573.868
  27  8333.944
  28  8711.815
  29  8521.351
  30  8470.672
  31  8070.192
  32  8111.859
  33  7822.038
  34  8151.499
  35  8486.042
  36  8589.296
  37  8613.626
  38  8464.7
  39  8358.143
  40  8441.321
  41  8410.385
  42  8583.481
  43  8298.685
  44  8414.702
  45  8548.184
  46  8376.764
  47  8162.229
  48  8169.216
  49  8293.23
  50  8225.237
  51  7988.771
  52  7941.035
  53  7842.89
  54  8046.788
  55  8547.913
  56  8575.45
  57  8120.3
  58  8241.725
  59  8624.029
  60  8556.51
  61  8535.093
  62  8457.749
  63  7988.899
  64  8151.535
  65  8329.801
  66  8131.333
  67  8575.068
  68  8207.595
  69  8215.809
  70  8446.352
  71  8296.491
  72  8079.583
  73  8354.108
  74  8199.358
  75  7799.847
  76  7949.828
  77  8220.779
  78  8296.228
  79  8107.246
  80  8051.252
  81  8208.92
  82  8028.801
  83  8038.369
  84  7990.903
  85  8050.542
  86  8218.504
  87  8048.443
  88  7980.104
  89  8466.644
  90  8065.637
  91  7657.031
  92  8102.655
  93  8435.441
  94  8179.587
  95  8389.038
  96  8038.205
  97  7867.943
  98  7904.181
  99  7709.201
 100  7741.465
 101  7794.03
 102  8042.964
 103  7502.133
 104  7921.494
 105  7744.86
 106  7647.246
 107  7574.535
 108  7425.839
 109  7692.285
 110  7647.07
 111  7810.759
 112  7851.169
 113  7712.341
 114  7609.656
 115  7468.789
 116  7700.789
 117  7918.632
 118  7876.418
 119  8204.437
 120  8372.174
 121  9154.029
 122  8806.694
 123  8676.962
 124  8388.014
 125  8266.083
 126  8332.895
 127  8456.02
 128  8689.334
 129  8591.577
 130  8394.994
 131  8410.896
 132  8586.031
 133  8418.346
 134  8391.071
 135  8249.161
 136  7995.639
 137  7970.958
 138  7998.091
 139  8279.036
 140  8156.196
 141  7679.091
 142  7602.115
 143  7553.669
 144  7529.866
 145  7609.158
 146  7615.714
 147  7466.007
 148  7525.432
 149  7368.261
 150  7858.094
 151  7804.07
 152  7654.646
 153  7928.533
 154  8018.416
 155  8155.567
 156  8079.202
 157  7779.085
 158  8040.983
 159  8412.86
 160  8118.407
 161  8084.812
 162  8492.882
 163  8509.33
 164  8240.225
 165  7946.825
 166  8411.961
 167  8245.087
 168  8247.793
 169  8005.075
 170  8010.232
 171  8261.982
 172  8323.783
 173  8250.657
 174  8351.466
 175  8323.806
 176  8487.179
 177  8106.349
 178  8392.201
 179  8203.262
 180  8179.684
 181  8161.298
 182  8172.073
 183  8473.266
 184  8508.082
 185  8754.885
 186  8502.019
 187  8326.504
 188  8389.517
 189  8252.54
 190  8357.32
 191  8542.708
 192  8670.241
 193  8720.068
 194  8218.005
 195  8453.896
 196  8338.088
 197  8285.098
 198  8312.1
 199  8229.362
 200  8243.76
 201  8485.533
 202  8368.54
 203  8255.034
 204  8248.658
 205  7809.571
 206  8004.751
 207  8171.005
 208  7941.788
 209  7849.857
 210  7974.306
 211  7801.471
 212  7753.694
 213  8117.128
 214  8151.212
 215  7885.26
 216  8009.333
 217  8485.475
 218  8303.258
 219  8117.624
 220  7959.777
 221  7549.154
 222  7527.647
 223  7711.005
 224  7747.38
 225  8141.799
 226  8181.973
 227  8167.016
 228  7827.826
 229  7800.714
 230  8057.931
 231  8315.129
 232  8065.486
 233  7796.292
 234  7479.066
 235  7491.573
 236  7634.653
 237  8049.756
 238  8095.086
 239  7830.042
 240  7350.513
 241  7546.589
 242  7606.098
 243  7414.729
 244  7799.675
 245  7869.363
 246  7919.526
 247  7647.387
 248  7706.789
 249  7620.521
 250  7674.14
 251  7897.698
 252  8126.846
 253  8139.904
 254  8272.99
 255  8191.286
 256  7950.11
 257  8082.535
 258  7939.729
 259  7642.881
 260  7586.658
 261  7701.654
 262  7851.134
 263  7606.072
 264  7828.432
 265  7443.732
 266  7150.168
 267  7203.279
 268  7487.834
 269  7155.338
 270  7375.393
 271  7227.011
 272  7323.283
 273  7140.38
 274  7365.278
 275  7460.53
 276  7555.804
 277  8112.684
 278  7553.458
 279  7465.263
 280  7706.055
 281  7874.212
 282  8088.747
 283  8297.036
 284  8467.445
 285  8578.879
 286  8398.983
 287  7991.828
 288  8144.532
 289  8129.642
 290  8338.462
 291  8455.062
 292  8215.369
 293  8559.563
 294  8577.785
 295  8589.903
 296  8395.932
 297  8428.394
 298  9076.085
 299  9060.525
 300  9530.016
 301  9900.732
 302  10124.22
 303  10427.92
 304  10217.12
 305  10048.72
 306  9358.9
 307  8499.48
 308  8149.157
 309  7542.182
 310  7323.855
 311  7576.247
 312  7603.124
 313  7752.169
 314  7576.335
 315  7751.608
 316  8110.729
 317  7888.783
 318  7713.933
 319  8130.579
 320  8520.173
 321  8390.897
 322  7942.137
 323  8044.17
 324  7693.106
 325  7681.988
 326  8008.072
 327  7430.243
 328  7532.922
 329  7653.36
 330  7549.129
 331  7646.867
 332  7852.509
 333  8018.993
 334  7793.869
 335  7918.735
 336  8208.356
 337  8072.057
 338  8071.204
 339  7925.437
 340  7959.632
 341  7894.448
 342  7923.021
 343  8011.397
 344  7591.653
 345  7410.768
 346  7382.178
 347  7441.313
 348  7375.243
 349  7091.687
 350  7217.319
 351  7421.553
 352  7338.58
 353  7306.052
 354  7487.491
 355  7727.237
 356  7497.036
 357  7355.455
 358  7082.932
 359  6997.837
 360  7147.416
 361  7272.361
 362  7171.068
 363  7218.207
 364  7616.964
 365  7700.823
 366  7640.807
 367  7379.249
 368  7452.972
 369  7522.488
 370  7568.497
 371  7910.178
 372  8085.87
 373  8050.246
 374  8050.152
 375  8591.259
 376  8267.638
 377  8263.119
 378  8342.604
 379  8338.721
 380  8356.32
 381  8383.539
 382  8336.868
 383  7860.24
 384  7955.271
 385  8335.072
 386  8287.523
 387  8571.204
 388  8002.429
 389  7919.291
 390  7676.548
 391  7965.999
 392  8143.034
 393  7957.375
 394  7917.539
 395  8243.874
 396  8259.562
 397  8157.577
 398  8286.01
 399  8382.662
 400  8223.785
 401  8159.185
 402  8060.914
 403  7928.868
 404  8043.029
 405  7910.074
 406  8261.482
 407  8137.362
 408  8138.744
 409  8389.89
 410  8490.493
 411  8458.944
 412  8253.442
 413  8326.739
 414  8195.438
 415  8241.931
 416  8547.402
 417  8520.372
 418  8458.538
 419  8423.974
 420  8922.88
 421  8719.895
 422  8861.42
 423  8706.849
 424  8768.983
 425  8373.597
 426  8101.444
 427  7879.286
 428  7738.936
 429  8041.016
 430  8130.079
 431  7911.268
 432  7745.869
 433  7641.983
 434  7462.309
 435  7450.162
 436  7627.123
 437  7703.168
 438  7732.646
 439  7994.444
 440  8259.044
 441  7888.663
 442  8061.545
 443  8191.07
 444  7675.899
 445  7734.756
 446  7781.27
 447  7789.714
 448  7996.539
 449  8129.919
 450  7924.939
 451  7610.697
 452  7352.669
 453  7182.875
 454  7286.515
 455  7491.005
 456  7572.133
 457  7483.758
 458  7251.154
 459  7257.281
 460  7465.542
 461  7632.054
 462  7507.384
 463  7525.776
 464  7447.087
 465  7647.614
 466  7464.048
 467  7582.419
 468  8259.252
 469  8292.655
 470  8126.381
 471  8171.271
 472  7845.39
 473  7847.536
 474  7931.62
 475  7852.222
 476  7875.807
 477  7984.235
 478  7940.828
 479  7516.777
 480  7446.017
 481  7709.407
 482  7606.909
 483  7476.319
 484  7782.322
 485  8116.26
 486  8194.74
 487  7808.996
 488  7644.505
 489  7798.924
 490  7789.325
 491  7738.115
 492  7874.838
 493  8375.77
 494  8213.13
 495  8033.515
 496  8219.475
 497  8038.795
 498  7810.767
 499  7827.154
 500  7872.8
 501  7657.604
 502  7975.664
 503  8147.235
 504  8288.896
 505  8536.653
 506  8472.938
 507  8215.227
 508  8347.816
 509  8413.714
 510  8609.195
 511  8345.971
