# Input file       =  1205583670.095333_cleaned.dat
# Candidate        =  PSR_0332+5434
# Telescope        =  AR
# Epoch_topo       =  58197.514920084875
# Epoch_bary       =  N/A
# T_sample         =  0.002
# Data Folded      =  7340032
# Data Avg         =  0.506582088217588
# Data StdDev      =  5.92922262971017 
# Profile Bins     =  512
# Profile Avg      =  7262.61806357909 
# Profile StdDev   =  709.923828809033 
# Reduced chi-sqr  =  1.034
# Prob(Noise)      <  0.29   (~0.6 sigma)
# P_topo (ms)      =  714.575526382837  +/- 0.00142
# P'_topo (s/s)    =  -0                +/- 7.47e-10
# P''_topo (s/s^2) =  0                 +/- 3.3e-13
# P_bary (ms)      =  N/A
# P'_bary (s/s)    =  N/A
# P''_bary (s/s^2) =  N/A
# P_orb (s)        =  N/A
# asin(i)/c (s)    =  N/A
# eccentricity     =  N/A
# w (rad)          =  N/A
# T_peri           =  N/A
######################################################
   0  6591.776
   1  6420.497
   2  6521.418
   3  6652.469
   4  7051.331
   5  7049.071
   6  6710.848
   7  6844.914
   8  6727.75
   9  6548.077
  10  6534.731
  11  6833.158
  12  6881.92
  13  7056.827
  14  6901.745
  15  6790.929
  16  7061.717
  17  7262.791
  18  7057.885
  19  6923.849
  20  6646.381
  21  6896.032
  22  6695.203
  23  6478.619
  24  6474.299
  25  6686.733
  26  6678.95
  27  6806.991
  28  6710.7
  29  6470.166
  30  6435.616
  31  6502.552
  32  6542.659
  33  6398.048
  34  6418.199
  35  6515.727
  36  6935.097
  37  7219.315
  38  6995.086
  39  6987.234
  40  6748.556
  41  6736.089
  42  6823.885
  43  6910.836
  44  6934.048
  45  7171.566
  46  7364.563
  47  7062.054
  48  6825.708
  49  7221.599
  50  7366.867
  51  7032.698
  52  6725.875
  53  7061.071
  54  7261.048
  55  7205.459
  56  7087.188
  57  7085.961
  58  7334.286
  59  7364.072
  60  7090.115
  61  7301.835
  62  7130.973
  63  7023.572
  64  7450.918
  65  7577.834
  66  7281.465
  67  7160.471
  68  7111.575
  69  7444.393
  70  7255.672
  71  6702.926
  72  7004.967
  73  7041.132
  74  6980.769
  75  6921.572
  76  6572.501
  77  6735.87
  78  6882.642
  79  6805.513
  80  6730.819
  81  6721.537
  82  6650.012
  83  6703.919
  84  6547.482
  85  6772.042
  86  7088.661
  87  7084.911
  88  6989.746
  89  6690.327
  90  6846.792
  91  6832.963
  92  6685.316
  93  6844.583
  94  6785.166
  95  6968.743
  96  7172.721
  97  7043.275
  98  6846.133
  99  6878.759
 100  7131.876
 101  7392.555
 102  7444.239
 103  7265.073
 104  7485.205
 105  7456.605
 106  7020.198
 107  7250.85
 108  7299.706
 109  7139.364
 110  6989.487
 111  6929.151
 112  6901.949
 113  6863.149
 114  6807.68
 115  6791.741
 116  6841.104
 117  7048.922
 118  6966.496
 119  6592.86
 120  6743.959
 121  6985.717
 122  7306.596
 123  7184.744
 124  6889.057
 125  7128.239
 126  7258.212
 127  7383.532
 128  7019.374
 129  7370.596
 130  7452.683
 131  7116.713
 132  7433.846
 133  7200.382
 134  6994.104
 135  7098.685
 136  7084.283
 137  6996.77
 138  7081.485
 139  7071.618
 140  6968.048
 141  7367.423
 142  7477.64
 143  6999.75
 144  6939.461
 145  7170.165
 146  7402.698
 147  7523.049
 148  7421.771
 149  7549.46
 150  7384.749
 151  7182.483
 152  7251.044
 153  7520.77
 154  6936.072
 155  6981.667
 156  7150.571
 157  7054.251
 158  6857.272
 159  7112.102
 160  7167.652
 161  6972.738
 162  7018.869
 163  6987.358
 164  7238.071
 165  7495.702
 166  7672.961
 167  7715.013
 168  7740.916
 169  7778.064
 170  7346.533
 171  7510.077
 172  7537.816
 173  7560.88
 174  7715.699
 175  7682.805
 176  7423.437
 177  7561.279
 178  7623.654
 179  7704.024
 180  7351.724
 181  7051.67
 182  6764.118
 183  6934.024
 184  7024.737
 185  7074.74
 186  7451.366
 187  7763.742
 188  7591.026
 189  7341.011
 190  7503.153
 191  7212.903
 192  7329.874
 193  7207.96
 194  7482.72
 195  7342.548
 196  7257.554
 197  7334.323
 198  7305.929
 199  7175.453
 200  6877.125
 201  7092.801
 202  6940.824
 203  7147.233
 204  7232.797
 205  6996.921
 206  6816.158
 207  6785.242
 208  6521.421
 209  6300.693
 210  6743.435
 211  6999.373
 212  6886.722
 213  6723.94
 214  6567.936
 215  6615.853
 216  6474.855
 217  6317.332
 218  6492.883
 219  6553.768
 220  6751.896
 221  6314.343
 222  6308.371
 223  6354.379
 224  6282.683
 225  6171.71
 226  5982.74
 227  5926.902
 228  5965.671
 229  6175.819
 230  6499.173
 231  6754.596
 232  6646.21
 233  6839.722
 234  6499.627
 235  6325.838
 236  6560.533
 237  6898.7
 238  6866.541
 239  7023.012
 240  6859.331
 241  6961.946
 242  6764.114
 243  7078.921
 244  7162.304
 245  6933.023
 246  6750.635
 247  6759.436
 248  7016.203
 249  7033.396
 250  6940.642
 251  6859.806
 252  6710.286
 253  6783.442
 254  6597.016
 255  6675.093
 256  6625.269
 257  6942.153
 258  6965.173
 259  7216.666
 260  7553.886
 261  7645.876
 262  7609.485
 263  7414.568
 264  7438.335
 265  7592.131
 266  7773.422
 267  7705.152
 268  7725.832
 269  7861.454
 270  7566.183
 271  7486.947
 272  7876.654
 273  8448.736
 274  8136.789
 275  8065.768
 276  8032.707
 277  8255.545
 278  8506.095
 279  7913.426
 280  7733.682
 281  8124.838
 282  7988.91
 283  7674.536
 284  7877.998
 285  8088.595
 286  7941.528
 287  7801.1
 288  7745.628
 289  7726.125
 290  7954.058
 291  7952.794
 292  8007.293
 293  8388.636
 294  8596.141
 295  7968.415
 296  8119.923
 297  8507.156
 298  8311.545
 299  8400.141
 300  9006.555
 301  9041.558
 302  9057.783
 303  9430.946
 304  9571.297
 305  9135.704
 306  8564.688
 307  8177.792
 308  7810.464
 309  7644.526
 310  7917.559
 311  7857.159
 312  7305.878
 313  7799.775
 314  7687.338
 315  7438.957
 316  7595.896
 317  7866.189
 318  7639.695
 319  7797.517
 320  7757.096
 321  7745.004
 322  7448.083
 323  7747.903
 324  7896.511
 325  7955.532
 326  7786.383
 327  7687.468
 328  7389.785
 329  7523.885
 330  7462.939
 331  7721.957
 332  7925.281
 333  7697.502
 334  7750.704
 335  7620.067
 336  7749.517
 337  8040.117
 338  7996.273
 339  7771.512
 340  7803.129
 341  7664.385
 342  8008.567
 343  8470.043
 344  8217.889
 345  7975.545
 346  7960.314
 347  7815.194
 348  7639.009
 349  7838.337
 350  7892.788
 351  8129.055
 352  8167.239
 353  7856.416
 354  7384.604
 355  7844.966
 356  8331.035
 357  8272.095
 358  8110.218
 359  8412.43
 360  8345.152
 361  7636.152
 362  7412.342
 363  7277.521
 364  7813.289
 365  7896.76
 366  8471.183
 367  8565.805
 368  8157.792
 369  7902.091
 370  7973.181
 371  7770.256
 372  7939.725
 373  7965.957
 374  8369.707
 375  8036.603
 376  8100.962
 377  7771.078
 378  7479.454
 379  7425.31
 380  7557.447
 381  7366.091
 382  7688.399
 383  7860.156
 384  7553.039
 385  7509.256
 386  7347.798
 387  7488.202
 388  7623.109
 389  7669.976
 390  7714.375
 391  7391.184
 392  7658.599
 393  7543.457
 394  6957.495
 395  7244.013
 396  7372.698
 397  7159.353
 398  7184.184
 399  7257.859
 400  7256.017
 401  7051.463
 402  7114.864
 403  7127.315
 404  6881.409
 405  7215.546
 406  7168.357
 407  6929.979
 408  7302.044
 409  7138.3
 410  7207.739
 411  7337.14
 412  7212.429
 413  7237.356
 414  7423.84
 415  7532.228
 416  7557.972
 417  7555.862
 418  7831.498
 419  7724.717
 420  7722.844
 421  7476.272
 422  7363.845
 423  7497.476
 424  7661.689
 425  7333.938
 426  7351.026
 427  7304.328
 428  7101.162
 429  6854.405
 430  6799.199
 431  7146.044
 432  7334.409
 433  7482.111
 434  7437.316
 435  7521.791
 436  7152.911
 437  7237.242
 438  7427.119
 439  6979.846
 440  7102.085
 441  7378.467
 442  7389.995
 443  7325.922
 444  7437.771
 445  7410.354
 446  7081.308
 447  7089.142
 448  7194.112
 449  7101.642
 450  7059.015
 451  6976.182
 452  7469.8
 453  7484.782
 454  7263.354
 455  7085.312
 456  7006.434
 457  7198.115
 458  7338.392
 459  6973.722
 460  6813.237
 461  6743.513
 462  6855.704
 463  7139.955
 464  7118.545
 465  6828.759
 466  6736.642
 467  6850.796
 468  7174.475
 469  6959.92
 470  6830.345
 471  6986.909
 472  7297.417
 473  7057.663
 474  6982.477
 475  7146.647
 476  7086.723
 477  7064.302
 478  7081.12
 479  7129.735
 480  6943.113
 481  6688.782
 482  6822.705
 483  7119.614
 484  7188.844
 485  7086.354
 486  7214.515
 487  7273.411
 488  6907.233
 489  6771.17
 490  6773.303
 491  6808.681
 492  6747.377
 493  7111.74
 494  6907.542
 495  6823.345
 496  7268.581
 497  6987.404
 498  6875.2
 499  7099.504
 500  6934.52
 501  7015.034
 502  6963.456
 503  6939.7
 504  6692.561
 505  6851.908
 506  7037.583
 507  7303.65
 508  7107.511
 509  7261.648
 510  7115.464
 511  6692.694
