# Input file       =  1205065935.111248_cleaned.dat
# Candidate        =  PSR_0332+5434
# Telescope        =  AR
# Epoch_topo       =  58191.522617028335
# Epoch_bary       =  N/A
# T_sample         =  0.002
# Data Folded      =  7340032
# Data Avg         =  0.644829846320915
# Data StdDev      =  7.22424349753236 
# Profile Bins     =  512
# Profile Avg      =  9243.90935399477 
# Profile StdDev   =  864.980609484659 
# Reduced chi-sqr  =  2.206
# Prob(Noise)      <  1.98e-48   (~14.6 sigma)
# P_topo (ms)      =  714.577754116658  +/- 0.000922
# P'_topo (s/s)    =  -0                +/- 4.87e-10
# P''_topo (s/s^2) =  0                 +/- 2.15e-13
# P_bary (ms)      =  N/A
# P'_bary (s/s)    =  N/A
# P''_bary (s/s^2) =  N/A
# P_orb (s)        =  N/A
# asin(i)/c (s)    =  N/A
# eccentricity     =  N/A
# w (rad)          =  N/A
# T_peri           =  N/A
######################################################
   0  9903.146
   1  10043.54
   2  10094.62
   3  9804.801
   4  10135.93
   5  9907.522
   6  9929.962
   7  9977.209
   8  9792.25
   9  9596.464
  10  9208.987
  11  9646.671
  12  10321.6
  13  10089.17
  14  9802.479
  15  9844.805
  16  9610.673
  17  10045.57
  18  9932.662
  19  9758.97
  20  9697.412
  21  9911.622
  22  10150.32
  23  10115.48
  24  10154.92
  25  9946.347
  26  9863.474
  27  9777.422
  28  10168.34
  29  10114.67
  30  10203.72
  31  10613.99
  32  10710.08
  33  10201.05
  34  10303.69
  35  10389.67
  36  10425.78
  37  10399.07
  38  10394.2
  39  10913.84
  40  11039.37
  41  10878.72
  42  10975.43
  43  10647.13
  44  10917.26
  45  11034.01
  46  10630.32
  47  10574.07
  48  10402.22
  49  10555.11
  50  10333.98
  51  10201.98
  52  9936.56
  53  10263.64
  54  10477.91
  55  10607.18
  56  10569.08
  57  10362.93
  58  10508.94
  59  10799.5
  60  10960.28
  61  10988.41
  62  10579.89
  63  10442.6
  64  10525.35
  65  10749.91
  66  10681.82
  67  10563.56
  68  10823.58
  69  10625.66
  70  10439.8
  71  9961.516
  72  10095.49
  73  10481.5
  74  10072.13
  75  10497.73
  76  10837.75
  77  10676.59
  78  10422.32
  79  10118.41
  80  10203.04
  81  10494.93
  82  10385.17
  83  10724.53
  84  10785.33
  85  10490.49
  86  10311.97
  87  10474.48
  88  10802.51
  89  10309.22
  90  9984.5
  91  9526.516
  92  9691.22
  93  9896.275
  94  10027.41
  95  9893.298
  96  9772.16
  97  9108.091
  98  8762.08
  99  9342.253
 100  9435.097
 101  9949.593
 102  9986.745
 103  10041.19
 104  10054.75
 105  9665.426
 106  9576.251
 107  9800.977
 108  9814.941
 109  9775.557
 110  9514.505
 111  9552.029
 112  9715.078
 113  9883.093
 114  9631.313
 115  9668.715
 116  9958.191
 117  9961.257
 118  9867.503
 119  9795.004
 120  9795.721
 121  9697.645
 122  9983.297
 123  10077.88
 124  10293.63
 125  9753.357
 126  10019.94
 127  10385.52
 128  10154.62
 129  10309.36
 130  10588.05
 131  10230.54
 132  10241.87
 133  10131
 134  9709.909
 135  9237.598
 136  9260.651
 137  9332.75
 138  9417.863
 139  9388.647
 140  9479.437
 141  9714.253
 142  9650.776
 143  9206.225
 144  9132.947
 145  9511.465
 146  9221.301
 147  8981.03
 148  9080.6
 149  9090.622
 150  8743.428
 151  8645.958
 152  8778.568
 153  9191.05
 154  9488.384
 155  9636.112
 156  9493.17
 157  9420.617
 158  9052.662
 159  9152.139
 160  9200.318
 161  9334.124
 162  9240.272
 163  9030.418
 164  9307.351
 165  9483.131
 166  9272.127
 167  9248.152
 168  9145.08
 169  9441.664
 170  9228.479
 171  9552.17
 172  9413.236
 173  9560.801
 174  9597.93
 175  9164.075
 176  9673.406
 177  9349.019
 178  9389.994
 179  9630.782
 180  9774.951
 181  9852.726
 182  9390.119
 183  9533.01
 184  9310.9
 185  9354.903
 186  9553.571
 187  9996.49
 188  9797.325
 189  9664.112
 190  9548.188
 191  9274.664
 192  9306.278
 193  9238.844
 194  9321.732
 195  9433.938
 196  9488.963
 197  9737.186
 198  9556.748
 199  9618.042
 200  9330.402
 201  9131.527
 202  8947.356
 203  9219.947
 204  9587.198
 205  9668.962
 206  9067.602
 207  8850.569
 208  8874.501
 209  8658.357
 210  9221.343
 211  8914.222
 212  9094.117
 213  8859.127
 214  8992.877
 215  9279.069
 216  9046.054
 217  9452.143
 218  9031.588
 219  8887.84
 220  8855.609
 221  9148.43
 222  9438.543
 223  9562.321
 224  9608.599
 225  9182.677
 226  8713.884
 227  8366.266
 228  8540.203
 229  8445.102
 230  8187.613
 231  8422.259
 232  8574.59
 233  8477.029
 234  8488.556
 235  8247.565
 236  8319.808
 237  8612.346
 238  8715.228
 239  8630.146
 240  8226.729
 241  8439.145
 242  8345.041
 243  8387.062
 244  8343.989
 245  8079.975
 246  8314.666
 247  8399.86
 248  8360.273
 249  8294.374
 250  8124.543
 251  8207.189
 252  8037.829
 253  8039.232
 254  8067.193
 255  8502.474
 256  8520.6
 257  8571.787
 258  8461.266
 259  8514.217
 260  8826.986
 261  8936.755
 262  8618.577
 263  8496.489
 264  8929.023
 265  8316.234
 266  7895.317
 267  7671.446
 268  7565.228
 269  7999.422
 270  8246.219
 271  8514.151
 272  7980.43
 273  8169.87
 274  8054.697
 275  7938.887
 276  8205.012
 277  8216.207
 278  8370.457
 279  8299.893
 280  8628.941
 281  8918.724
 282  8487.125
 283  8091.055
 284  8062.108
 285  8135.9
 286  7940.639
 287  7953.569
 288  7807.053
 289  7825.677
 290  7966.451
 291  8075.015
 292  7784.291
 293  7771.693
 294  7970.903
 295  7861.35
 296  7674.771
 297  7731.855
 298  8291.649
 299  8079.699
 300  7473.318
 301  7564.663
 302  7263.188
 303  7636.713
 304  7732.469
 305  8169.311
 306  7836.432
 307  7544.691
 308  7650.165
 309  7734.519
 310  7758.592
 311  7566.972
 312  8197.814
 313  8277.064
 314  8035.086
 315  7592.385
 316  7346.595
 317  7481.184
 318  7174.81
 319  7723.522
 320  7733.256
 321  7648.525
 322  7427.607
 323  7338.371
 324  7304.191
 325  7437.386
 326  7760.771
 327  7783.229
 328  7785.022
 329  7973.05
 330  8165.743
 331  7965.161
 332  7820.082
 333  7853.021
 334  7862.443
 335  8114.148
 336  7978.083
 337  8371.902
 338  8356.667
 339  8003.041
 340  8150.252
 341  8284.118
 342  8575.919
 343  8516.791
 344  8444.619
 345  8661.269
 346  8563.127
 347  8737.798
 348  8982.949
 349  9425.737
 350  9146.794
 351  9031.52
 352  8876.248
 353  8921.936
 354  8854.785
 355  8876.372
 356  8774.813
 357  8313.996
 358  8260.43
 359  7991.959
 360  8365.829
 361  8383.08
 362  8166.002
 363  7747.708
 364  7438.323
 365  7710.421
 366  7740.539
 367  8027.981
 368  8228.886
 369  8168.159
 370  8242.192
 371  8223.1
 372  7804.182
 373  7812.501
 374  7925.534
 375  8023.786
 376  8387.5
 377  8156.744
 378  8148.59
 379  7970.636
 380  8320.351
 381  8431.495
 382  8507.724
 383  8616.434
 384  8512.342
 385  8419.037
 386  8319.547
 387  8048.292
 388  8455.797
 389  8514.682
 390  8400.569
 391  8305.211
 392  7836.761
 393  7956.539
 394  8229.877
 395  8320.482
 396  8174.738
 397  8445.046
 398  8553.673
 399  8703.748
 400  8879.263
 401  9026.649
 402  8661.488
 403  8571.97
 404  8621.811
 405  8408.775
 406  8156.482
 407  8226.816
 408  8640.116
 409  8941.111
 410  9331.02
 411  9017.403
 412  8803.859
 413  8644.095
 414  8809.589
 415  8818.594
 416  8691.321
 417  9044.195
 418  9387.518
 419  9224.253
 420  9186.672
 421  8780.233
 422  8841.638
 423  9398.617
 424  9409.948
 425  9541.642
 426  9458.309
 427  9327.81
 428  9566.283
 429  9743.418
 430  10331.05
 431  10209.28
 432  10382.41
 433  10436.01
 434  10900.02
 435  10874.16
 436  11169.55
 437  11567.51
 438  11185.29
 439  10810.47
 440  10361.87
 441  10141.01
 442  9711.497
 443  9921.527
 444  10290.66
 445  10597.39
 446  10017.42
 447  9883.566
 448  10052.62
 449  9943.271
 450  10202.96
 451  9979.971
 452  10073.82
 453  10132.72
 454  10308.36
 455  10278.5
 456  9930.623
 457  9994.319
 458  9972.127
 459  10218.76
 460  10713.78
 461  10639.19
 462  10259.43
 463  9967.57
 464  10149.11
 465  10203.99
 466  10608.34
 467  10334.27
 468  10284.62
 469  10075.81
 470  9836.406
 471  9578.856
 472  9301.542
 473  9782.511
 474  9776.339
 475  9650.719
 476  9422.031
 477  9331.968
 478  9173.101
 479  9529.684
 480  9789.653
 481  9803.2
 482  10032.18
 483  10004.52
 484  10017.35
 485  9486.591
 486  9704.331
 487  9837.269
 488  10136.77
 489  10383.37
 490  10104.48
 491  9744.22
 492  9699.09
 493  9524.978
 494  9574.858
 495  9706.944
 496  10023.88
 497  9650.274
 498  9474.126
 499  9337.897
 500  9283.509
 501  8905.186
 502  9486.669
 503  9899.571
 504  9910.815
 505  9621.315
 506  9504.573
 507  9851.146
 508  10285.1
 509  10420.31
 510  10017.75
 511  9735.018
