# Input file       =  1205065935.111248_cleaned.dat
# Candidate        =  PSR_0332+5434
# Telescope        =  AR
# Epoch_topo       =  58191.522617028335
# Epoch_bary       =  N/A
# T_sample         =  0.002
# Data Folded      =  7340032
# Data Avg         =  0.0901079518570587
# Data StdDev      =  1.00007844403393 
# Profile Bins     =  512
# Profile Avg      =  1291.72473437162 
# Profile StdDev   =  119.742428719134 
# Reduced chi-sqr  =  2.707
# Prob(Noise)      <  1.83e-81   (~19.1 sigma)
# P_topo (ms)      =  714.577753130153  +/- 0.000826
# P'_topo (s/s)    =  -0                +/- 4.36e-10
# P''_topo (s/s^2) =  0                 +/- 1.92e-13
# P_bary (ms)      =  N/A
# P'_bary (s/s)    =  N/A
# P''_bary (s/s^2) =  N/A
# P_orb (s)        =  N/A
# asin(i)/c (s)    =  N/A
# eccentricity     =  N/A
# w (rad)          =  N/A
# T_peri           =  N/A
######################################################
   0  1764.908
   1  1642.611
   2  1598.105
   3  1486.114
   4  1408.91
   5  1386.017
   6  1381.201
   7  1432.882
   8  1436.337
   9  1339.115
  10  1347.966
  11  1389.736
  12  1425.311
  13  1440.21
  14  1438.326
  15  1404.795
  16  1437.603
  17  1440.543
  18  1401.983
  19  1401.457
  20  1407.761
  21  1419.476
  22  1446.583
  23  1511.957
  24  1442.884
  25  1405.395
  26  1429.783
  27  1435.753
  28  1529.187
  29  1496.126
  30  1503.891
  31  1457.468
  32  1446.983
  33  1346.523
  34  1320.778
  35  1337.088
  36  1396.029
  37  1345.08
  38  1335.463
  39  1341.982
  40  1261.465
  41  1300.837
  42  1347.487
  43  1405.903
  44  1374.701
  45  1418.279
  46  1425.542
  47  1336.51
  48  1286.716
  49  1259.273
  50  1359.814
  51  1406.06
  52  1462.716
  53  1407.698
  54  1390.346
  55  1407.86
  56  1339.378
  57  1359.183
  58  1382.233
  59  1393.946
  60  1337.055
  61  1332.894
  62  1386.662
  63  1300.647
  64  1361.712
  65  1434.397
  66  1414.182
  67  1363.757
  68  1353.155
  69  1381.348
  70  1477.628
  71  1498.526
  72  1464.6
  73  1422.964
  74  1418.678
  75  1433.114
  76  1413.536
  77  1399.069
  78  1376.858
  79  1409.394
  80  1314.745
  81  1365.403
  82  1356.889
  83  1355.065
  84  1348.58
  85  1314.637
  86  1410.529
  87  1407.707
  88  1308.866
  89  1350.971
  90  1368.178
  91  1389.276
  92  1395.12
  93  1367.756
  94  1392.563
  95  1382.01
  96  1415.366
  97  1408.687
  98  1522.97
  99  1484.544
 100  1451.666
 101  1426.953
 102  1429.836
 103  1486.931
 104  1454.333
 105  1510.94
 106  1536.791
 107  1511.099
 108  1486.113
 109  1528.657
 110  1483.148
 111  1486.223
 112  1419.027
 113  1457.032
 114  1572.996
 115  1504.421
 116  1554.844
 117  1533.507
 118  1495.281
 119  1507.062
 120  1490.876
 121  1486.125
 122  1512.128
 123  1551.978
 124  1513.441
 125  1497.26
 126  1423.39
 127  1431.416
 128  1496.065
 129  1521.821
 130  1519.806
 131  1489.426
 132  1509.894
 133  1480.99
 134  1519.777
 135  1571.956
 136  1573.783
 137  1443.72
 138  1519.735
 139  1527.445
 140  1521.746
 141  1547.251
 142  1566.502
 143  1539.488
 144  1499.99
 145  1452.458
 146  1426.32
 147  1480.554
 148  1496.869
 149  1345.567
 150  1481.914
 151  1495.212
 152  1454.023
 153  1383.807
 154  1400.44
 155  1402.078
 156  1464.655
 157  1390.647
 158  1484.968
 159  1523.908
 160  1389.564
 161  1443.074
 162  1434.951
 163  1484.685
 164  1392.594
 165  1350.418
 166  1336.771
 167  1382.697
 168  1407.797
 169  1377.725
 170  1399.629
 171  1309.812
 172  1243.419
 173  1262.911
 174  1309.92
 175  1335.362
 176  1391.657
 177  1422.778
 178  1457.013
 179  1412.365
 180  1295.187
 181  1346.558
 182  1291.977
 183  1264.262
 184  1312.72
 185  1329.051
 186  1300.488
 187  1328.43
 188  1341.609
 189  1350.802
 190  1401.71
 191  1408.822
 192  1321.273
 193  1295.859
 194  1266.15
 195  1293.746
 196  1281.323
 197  1360.693
 198  1423.848
 199  1416.614
 200  1330.315
 201  1386.281
 202  1424.915
 203  1348.865
 204  1486.129
 205  1441.375
 206  1394.158
 207  1426.758
 208  1395.032
 209  1288.72
 210  1220.068
 211  1291.767
 212  1278.897
 213  1288.086
 214  1288.281
 215  1279.375
 216  1296.861
 217  1289.823
 218  1227.632
 219  1238.254
 220  1289.265
 221  1198.151
 222  1190.103
 223  1192.834
 224  1180.893
 225  1157.371
 226  1168.604
 227  1187.619
 228  1200.157
 229  1255.042
 230  1271.66
 231  1250.808
 232  1255.975
 233  1201.249
 234  1239.972
 235  1284.006
 236  1245.888
 237  1247.13
 238  1318.032
 239  1306.878
 240  1240.14
 241  1263.411
 242  1307.672
 243  1330.345
 244  1325.525
 245  1324.291
 246  1285.918
 247  1342.575
 248  1325.694
 249  1274.99
 250  1272.368
 251  1292.597
 252  1217.934
 253  1326.815
 254  1368.102
 255  1382.127
 256  1365.382
 257  1309.352
 258  1264.032
 259  1290.45
 260  1325.161
 261  1329.38
 262  1394.872
 263  1381.442
 264  1382.047
 265  1305.669
 266  1316.542
 267  1357.768
 268  1327.261
 269  1364.257
 270  1297.57
 271  1313.31
 272  1349.079
 273  1302.929
 274  1315.975
 275  1284.428
 276  1264.31
 277  1255.755
 278  1267.639
 279  1328.814
 280  1289.753
 281  1219.99
 282  1246.164
 283  1193.339
 284  1235.909
 285  1239.135
 286  1225.785
 287  1285.488
 288  1238.529
 289  1338.486
 290  1268.493
 291  1243.093
 292  1283.459
 293  1198.862
 294  1162.873
 295  1213.872
 296  1293.776
 297  1318.805
 298  1325.995
 299  1306.168
 300  1224.949
 301  1152.218
 302  1141.899
 303  1149.167
 304  1096.855
 305  1111.14
 306  1141.863
 307  1151.198
 308  1185.108
 309  1109.953
 310  1070.616
 311  1133.982
 312  1211.801
 313  1293.927
 314  1230.897
 315  1150.665
 316  1142.436
 317  1078.219
 318  1198.459
 319  1164.145
 320  1178.102
 321  1158.729
 322  1129.228
 323  1144.851
 324  1116.345
 325  1149.479
 326  1130.516
 327  1120.031
 328  1055.381
 329  1120.904
 330  1129.618
 331  1135.706
 332  1151.977
 333  1116.473
 334  1148.667
 335  1196.861
 336  1219.646
 337  1143.876
 338  1247.889
 339  1226.282
 340  1129.729
 341  1085.692
 342  1093.591
 343  1112.875
 344  1122.883
 345  1209.394
 346  1141.96
 347  1085.979
 348  1123.981
 349  1149.581
 350  1158.118
 351  1135.667
 352  1190.067
 353  1181.191
 354  1153.983
 355  1222.752
 356  1242.865
 357  1134.496
 358  1111.869
 359  1151.931
 360  1119.478
 361  1103.178
 362  1142.236
 363  1100.59
 364  1056.045
 365  1055.453
 366  1072.132
 367  1067.534
 368  1114.923
 369  1069.788
 370  1061.104
 371  999.0551
 372  1074.318
 373  1120.008
 374  990.9778
 375  1020.109
 376  1013.855
 377  1044.031
 378  1051.498
 379  1072.68
 380  1171.789
 381  1065.526
 382  1051.289
 383  1063.357
 384  1055.719
 385  1032.561
 386  1086.223
 387  1185.557
 388  1171.092
 389  1104.558
 390  1023.768
 391  991.9694
 392  987.7097
 393  997.8234
 394  1076.051
 395  1079.602
 396  1024.344
 397  1027.048
 398  971.3896
 399  1015.174
 400  1084.074
 401  1116.406
 402  1102.019
 403  1167.003
 404  1179.556
 405  1139.458
 406  1097.482
 407  1125.891
 408  1159.828
 409  1181.828
 410  1162.007
 411  1115.413
 412  1178.812
 413  1162.523
 414  1133.498
 415  1118.296
 416  1155.454
 417  1182.354
 418  1132.389
 419  1186.994
 420  1166.565
 421  1210.366
 422  1195.924
 423  1202.374
 424  1267.612
 425  1209.159
 426  1234.294
 427  1257.693
 428  1291.22
 429  1280.555
 430  1281.381
 431  1251.262
 432  1205.974
 433  1154.685
 434  1137.388
 435  1217.713
 436  1222.245
 437  1160.505
 438  1100.268
 439  1096.02
 440  1081.84
 441  1049.384
 442  1119.77
 443  1168.297
 444  1117.169
 445  1127.057
 446  1152.021
 447  1140.799
 448  1134.561
 449  1132.644
 450  1125.245
 451  1158.53
 452  1163.823
 453  1097.892
 454  1082.054
 455  1124.564
 456  1184.274
 457  1196.509
 458  1239.479
 459  1255.758
 460  1202.423
 461  1180.455
 462  1154.591
 463  1212.355
 464  1137.76
 465  1135.141
 466  1186.456
 467  1145.314
 468  1178.004
 469  1211.05
 470  1164.635
 471  1152.812
 472  1168.692
 473  1194.186
 474  1261.34
 475  1253.913
 476  1271.838
 477  1195.497
 478  1220.191
 479  1200.892
 480  1171.12
 481  1208.848
 482  1262.832
 483  1278.119
 484  1305.208
 485  1336.143
 486  1238.391
 487  1243.309
 488  1257.224
 489  1283.852
 490  1261.036
 491  1225.774
 492  1266.172
 493  1255.059
 494  1263.365
 495  1239.615
 496  1213.995
 497  1321.573
 498  1340.034
 499  1384.733
 500  1391.358
 501  1398.173
 502  1342.262
 503  1384.703
 504  1455.979
 505  1483.347
 506  1478.324
 507  1499.988
 508  1541.327
 509  1572.094
 510  1645.989
 511  1735.214
