# Input file       =  1205324951.116461_cleaned.dat
# Candidate        =  PSR_0332+5434
# Telescope        =  AR
# Epoch_topo       =  58194.520487459042
# Epoch_bary       =  N/A
# T_sample         =  0.002
# Data Folded      =  7340032
# Data Avg         =  0.818723191849129
# Data StdDev      =  6.86396369363336 
# Profile Bins     =  1024
# Profile Avg      =  5868.69014849728 
# Profile StdDev   =  581.130910128967 
# Reduced chi-sqr  =  1.070
# Prob(Noise)      <  0.0585   (~1.6 sigma)
# P_topo (ms)      =  714.576719705649  +/- 0.000528
# P'_topo (s/s)    =  -0                +/- 2.78e-10
# P''_topo (s/s^2) =  0                 +/- 1.23e-13
# P_bary (ms)      =  N/A
# P'_bary (s/s)    =  N/A
# P''_bary (s/s^2) =  N/A
# P_orb (s)        =  N/A
# asin(i)/c (s)    =  N/A
# eccentricity     =  N/A
# w (rad)          =  N/A
# T_peri           =  N/A
######################################################
   0  5718.857
   1  5761.712
   2  5836.383
   3  5780.671
   4  5810.955
   5  5712.663
   6  5643.766
   7  5554.014
   8  5351.007
   9  5374.563
  10  5384.576
  11  5457.807
  12  5567.104
  13  5652.498
  14  5636.859
  15  5540.942
  16  5483.787
  17  5662.022
  18  5730.064
  19  5736.512
  20  5646.256
  21  5714.833
  22  5725.126
  23  5648.663
  24  5647.008
  25  5793.732
  26  5884.306
  27  5872.223
  28  5825.907
  29  5849.247
  30  5877.39
  31  5935.015
  32  5820.995
  33  5730.889
  34  5777.644
  35  5916.154
  36  6059.036
  37  6080.625
  38  6004.999
  39  6050.748
  40  6133.834
  41  6209.198
  42  6141.475
  43  6144.45
  44  6021.953
  45  5973.726
  46  5830.147
  47  5733.024
  48  5568.538
  49  5647.248
  50  5914.597
  51  5965.579
  52  6064.313
  53  6143.08
  54  6196.587
  55  6069.418
  56  5799.679
  57  5814.818
  58  5682.705
  59  5767.76
  60  5685.752
  61  5804.148
  62  5799.638
  63  5816.793
  64  5921.681
  65  5925.096
  66  5917.63
  67  5936.53
  68  5791.219
  69  5689.223
  70  5566.09
  71  5617.244
  72  5633.011
  73  5603.021
  74  5686.792
  75  5727.117
  76  5891.981
  77  5901.289
  78  5797.495
  79  5650.945
  80  5584.894
  81  5518.57
  82  5547.127
  83  5754.586
  84  5725.255
  85  5741.496
  86  5618.944
  87  5637.93
  88  5588.913
  89  5548.713
  90  5558.182
  91  5507.408
  92  5647.631
  93  5659.152
  94  5651.19
  95  5553.034
  96  5564.846
  97  5581.622
  98  5694.548
  99  5677.836
 100  5710.04
 101  5726.401
 102  5590.218
 103  5486.852
 104  5502.161
 105  5682.043
 106  5747.952
 107  5678.098
 108  5649.53
 109  5660.047
 110  5770.972
 111  5839.692
 112  5931.123
 113  5877.08
 114  5768.392
 115  5779.211
 116  5719.761
 117  5846.616
 118  5907.383
 119  6023.201
 120  6062.29
 121  6014.259
 122  5966.316
 123  6090.085
 124  6161.238
 125  6256.357
 126  6317.018
 127  6322.479
 128  6292.325
 129  6343.085
 130  6382.958
 131  6343.698
 132  6154.945
 133  6152.101
 134  6181.589
 135  6170.247
 136  6208.524
 137  6168.149
 138  6214.388
 139  6117.187
 140  6236.648
 141  6302.86
 142  6306.909
 143  6202.689
 144  6263.413
 145  6235.342
 146  6202.012
 147  6262.036
 148  6085.164
 149  5968.827
 150  5883.938
 151  5862.974
 152  5940.044
 153  5969.63
 154  5915.177
 155  5841.758
 156  5774.869
 157  5847.405
 158  5999.925
 159  6074.627
 160  6049.954
 161  5988.605
 162  5884.266
 163  5950.372
 164  5916.408
 165  5945.999
 166  5926.069
 167  5847.97
 168  5800.065
 169  5764.221
 170  5791.126
 171  5810.932
 172  5898.786
 173  6052.033
 174  6085.688
 175  6166.767
 176  6201.21
 177  6265.014
 178  6188.75
 179  6200.484
 180  6243.101
 181  6268.057
 182  6239.55
 183  6263.757
 184  6237.3
 185  6234.475
 186  6254.339
 187  6301.511
 188  6415.824
 189  6448.564
 190  6533.884
 191  6521.019
 192  6578.914
 193  6583.355
 194  6536.5
 195  6446.725
 196  6350.023
 197  6415.888
 198  6390.537
 199  6383.722
 200  6348.914
 201  6442.894
 202  6475.138
 203  6497.307
 204  6559.823
 205  6795.295
 206  6746.983
 207  6756.738
 208  6591.026
 209  6572.749
 210  6477.495
 211  6615.025
 212  6623.37
 213  6555.269
 214  6363.177
 215  6445.81
 216  6345.815
 217  6499.469
 218  6499.333
 219  6470.286
 220  6456.912
 221  6326.622
 222  6361.086
 223  6491.108
 224  6504.412
 225  6465.701
 226  6230.138
 227  6278.692
 228  6431.84
 229  6421.228
 230  6297.476
 231  6126.814
 232  6095.153
 233  6233.081
 234  5999.598
 235  5949.172
 236  5839.604
 237  5919.769
 238  5893.642
 239  5790.625
 240  5584.603
 241  5608.023
 242  5608.606
 243  5778.136
 244  5746.706
 245  5912.356
 246  5855.37
 247  5808.39
 248  5733.624
 249  5828.498
 250  5875.516
 251  5951.128
 252  5862.971
 253  5871.998
 254  5904.333
 255  5978.781
 256  6012.202
 257  6099.515
 258  6097.979
 259  6167.194
 260  6166.512
 261  6095.691
 262  6056.253
 263  6136.848
 264  6252.455
 265  6179.565
 266  6125.347
 267  6076.226
 268  5983.545
 269  5908.3
 270  5951.711
 271  6105.55
 272  6039.706
 273  5879.882
 274  5805.55
 275  5960.107
 276  6087.025
 277  6318.916
 278  6397.064
 279  6263.407
 280  6097.845
 281  5948.127
 282  6022.076
 283  6132.853
 284  6198.134
 285  6247.666
 286  6189.453
 287  6035.524
 288  6070.447
 289  6087.467
 290  6273.806
 291  6402.074
 292  6611.654
 293  6601.205
 294  6464.238
 295  6405.949
 296  6509.357
 297  6422.75
 298  6356.235
 299  6257.784
 300  6202.5
 301  6091.997
 302  6086.412
 303  6222.774
 304  6258.544
 305  6218.68
 306  6048.092
 307  6036.132
 308  6137.516
 309  6314.887
 310  6429.988
 311  6442.268
 312  6272.361
 313  6253.109
 314  6197.111
 315  6140.371
 316  6141.032
 317  6252.471
 318  6266.556
 319  6066.582
 320  5985.087
 321  5980.923
 322  6076.421
 323  5958.457
 324  5809.409
 325  5814.13
 326  5985.039
 327  6090.138
 328  6075.64
 329  6218.419
 330  6292.271
 331  6165.918
 332  5975.858
 333  5775.504
 334  5724.34
 335  5816.619
 336  5857.201
 337  5900.497
 338  5859.783
 339  5863.87
 340  5841.476
 341  5831.567
 342  5820.315
 343  5753.158
 344  5722.412
 345  5583.799
 346  5676.855
 347  5823.813
 348  5886.66
 349  5885.172
 350  5854.963
 351  5847.552
 352  5736.945
 353  5771.211
 354  5678.334
 355  5779.435
 356  5770.193
 357  5886.917
 358  5879.851
 359  5912.347
 360  5885.975
 361  5806.443
 362  5722.48
 363  5803.792
 364  5896.239
 365  5958.239
 366  5893.868
 367  5902.315
 368  5903.452
 369  5830.574
 370  5633.637
 371  5646.023
 372  5707.323
 373  5739.576
 374  5765.308
 375  5827.547
 376  5953.463
 377  5961.76
 378  5950.568
 379  5931.143
 380  5809.688
 381  5727.156
 382  5648.369
 383  5673.874
 384  5658.232
 385  5687.631
 386  5672.287
 387  5701.768
 388  5584.607
 389  5523.853
 390  5585.429
 391  5606.976
 392  5577.008
 393  5596.431
 394  5689.749
 395  5848.553
 396  5729.062
 397  5593.807
 398  5551.026
 399  5667.33
 400  5787.786
 401  5719.903
 402  5688.528
 403  5646.155
 404  5647.373
 405  5620.158
 406  5558.457
 407  5519.125
 408  5567.837
 409  5537.362
 410  5556.696
 411  5568.156
 412  5523.711
 413  5381.009
 414  5361.958
 415  5405.343
 416  5480.905
 417  5498.172
 418  5480.361
 419  5439.963
 420  5357.054
 421  5400.282
 422  5427.216
 423  5499.708
 424  5596.305
 425  5704.086
 426  5659.272
 427  5528.471
 428  5471.384
 429  5499.593
 430  5611.585
 431  5638.503
 432  5588.996
 433  5519.082
 434  5550.758
 435  5591.042
 436  5629.427
 437  5555.925
 438  5494.625
 439  5495.029
 440  5463.548
 441  5516.011
 442  5650.584
 443  5636.287
 444  5499
 445  5509.991
 446  5524.642
 447  5603.741
 448  5666.116
 449  5688.984
 450  5686.691
 451  5602.634
 452  5643.854
 453  5676.021
 454  5630.056
 455  5543.086
 456  5439.146
 457  5515.767
 458  5589.795
 459  5552.152
 460  5452.103
 461  5483.711
 462  5610.107
 463  5623.775
 464  5457.591
 465  5345.97
 466  5294.285
 467  5349.319
 468  5399.531
 469  5454.083
 470  5569.879
 471  5564.594
 472  5549.48
 473  5388.681
 474  5244.113
 475  5314.587
 476  5331.878
 477  5448.689
 478  5491.422
 479  5511.906
 480  5447.44
 481  5495.563
 482  5558.049
 483  5654.099
 484  5535.527
 485  5606.825
 486  5584.699
 487  5543.96
 488  5497.142
 489  5543.696
 490  5549.594
 491  5590.721
 492  5647.475
 493  5664.938
 494  5678.132
 495  5736.346
 496  5635.223
 497  5580.442
 498  5496.98
 499  5671.976
 500  5761.162
 501  5715.564
 502  5533.667
 503  5496.927
 504  5465.443
 505  5497.198
 506  5504.792
 507  5500.456
 508  5394.05
 509  5426.891
 510  5566.878
 511  5726.918
 512  5614.526
 513  5588.87
 514  5681.937
 515  5765.792
 516  5764.415
 517  5725.877
 518  5853.083
 519  5923.918
 520  5934.543
 521  5765.705
 522  5771.201
 523  5808.308
 524  5804.898
 525  5624.16
 526  5490.371
 527  5522.364
 528  5562.697
 529  5601.531
 530  5627.501
 531  5470.803
 532  5363.125
 533  5306.966
 534  5411.753
 535  5517.904
 536  5676.83
 537  5797.045
 538  5827.977
 539  5840.375
 540  5789.106
 541  5876.091
 542  5846.42
 543  5877.424
 544  5873.949
 545  5855.603
 546  5817.508
 547  5802.292
 548  5845.817
 549  5944.686
 550  5989.225
 551  5991.078
 552  6004.619
 553  6013.853
 554  6019.621
 555  5906.688
 556  5876.505
 557  5884.409
 558  6046.836
 559  5951.46
 560  5779.462
 561  5764.53
 562  5860.379
 563  5913.51
 564  5852.732
 565  5824.406
 566  5743.594
 567  5672.869
 568  5723.055
 569  5831.607
 570  5891.938
 571  5959.896
 572  5953.359
 573  6038.749
 574  5999.384
 575  5944.028
 576  5922.472
 577  6039.315
 578  6147.285
 579  6111.846
 580  5990.63
 581  5761.579
 582  5743.277
 583  5726.761
 584  5726.479
 585  5726.579
 586  5581.589
 587  5510.184
 588  5632.483
 589  5803.659
 590  5924.962
 591  5923.066
 592  5906.649
 593  6013.677
 594  5949.383
 595  5990.688
 596  5918.478
 597  5932.3
 598  5972.342
 599  6112.949
 600  6234.316
 601  6221.935
 602  6230.046
 603  6304.04
 604  6553.143
 605  6693.768
 606  6909.627
 607  6849.805
 608  6916.873
 609  6952.619
 610  6968.907
 611  6823.227
 612  6785.198
 613  6773.235
 614  6730.136
 615  6531.948
 616  6372.452
 617  6225.406
 618  6193.752
 619  6033.07
 620  6010.698
 621  6001.79
 622  6098.038
 623  5991.941
 624  5937.886
 625  5893.561
 626  5969.704
 627  6064.2
 628  6207.082
 629  6194.97
 630  6064.315
 631  5938.554
 632  5894.831
 633  5984.649
 634  5974.113
 635  6006.467
 636  5962.224
 637  6019.278
 638  6032.803
 639  6050.105
 640  6006.498
 641  6002.472
 642  5962.889
 643  5886.747
 644  6102.821
 645  6178.074
 646  6200.7
 647  6131.952
 648  6254.97
 649  6326.304
 650  6269.535
 651  6110.827
 652  6000.326
 653  5877.676
 654  5924.839
 655  5990.574
 656  6057.417
 657  6046.636
 658  6054.466
 659  6032.013
 660  5784.895
 661  5732.035
 662  5768.102
 663  5875.312
 664  5738.18
 665  5497.069
 666  5376.888
 667  5361.338
 668  5458.47
 669  5618.384
 670  5790.331
 671  5740.706
 672  5631.574
 673  5533.406
 674  5429.362
 675  5203.48
 676  5385.169
 677  5552.592
 678  5687.028
 679  5528.746
 680  5399.864
 681  5472.72
 682  5408.237
 683  5514.682
 684  5497.678
 685  5512.276
 686  5481.438
 687  5393.491
 688  5235.459
 689  5193.598
 690  5305.181
 691  5428.183
 692  5443.229
 693  5401.775
 694  5419.297
 695  5526.775
 696  5485.641
 697  5514.467
 698  5459.536
 699  5414.272
 700  5352.345
 701  5400.793
 702  5434.835
 703  5342.517
 704  5341.561
 705  5251.515
 706  5313.974
 707  5274.778
 708  5258.176
 709  5362.383
 710  5463.955
 711  5394.036
 712  5162.764
 713  5244.061
 714  5243.364
 715  5342.164
 716  5318.161
 717  5384.505
 718  5276.121
 719  5291.057
 720  5378.738
 721  5357.812
 722  5328.055
 723  5426.149
 724  5408.824
 725  5364.597
 726  5213.922
 727  5248.837
 728  5224.891
 729  5296.177
 730  5369.427
 731  5472.375
 732  5393.598
 733  5387.624
 734  5380.356
 735  5280.353
 736  5249.526
 737  5254.679
 738  5422.392
 739  5565.533
 740  5749.527
 741  5791.577
 742  5740.564
 743  5559.709
 744  5473.074
 745  5223.236
 746  5094.043
 747  5097.561
 748  5374.609
 749  5610.458
 750  5413.733
 751  5334.099
 752  5336.382
 753  5412.438
 754  5348.587
 755  5374.104
 756  5445.045
 757  5433.584
 758  5524.893
 759  5552.996
 760  5493.116
 761  5352.928
 762  5365.408
 763  5521.441
 764  5579.558
 765  5510.292
 766  5407.545
 767  5397.367
 768  5392.841
 769  5336.343
 770  5539.264
 771  5601.053
 772  5661.391
 773  5484.061
 774  5367.478
 775  5457.543
 776  5621.164
 777  5735.237
 778  5674.921
 779  5583.729
 780  5657.651
 781  5674.354
 782  5686.688
 783  5649.381
 784  5705.252
 785  5795.604
 786  5882.973
 787  6004.821
 788  5977.285
 789  5984.812
 790  6000.342
 791  5988.421
 792  5798.619
 793  5701.415
 794  5752.043
 795  5837.824
 796  5846.36
 797  5747.144
 798  5908.714
 799  5990.958
 800  6040.304
 801  5999.76
 802  6045.327
 803  6171.747
 804  6291.861
 805  6243.254
 806  6209.527
 807  6098.759
 808  6049.956
 809  6163.629
 810  6037.334
 811  6018.677
 812  5873.483
 813  5961.415
 814  5959.4
 815  6127.917
 816  6085.29
 817  6055.649
 818  5962.305
 819  6011.159
 820  5956.82
 821  5983.696
 822  5886.428
 823  5750.179
 824  5602.13
 825  5547.169
 826  5658.133
 827  5765.832
 828  5863.67
 829  5954.263
 830  5989.626
 831  5811.73
 832  5631.16
 833  5581.082
 834  5643.841
 835  5707.913
 836  5746.458
 837  5620.171
 838  5508.439
 839  5527.215
 840  5800.136
 841  5773.247
 842  5656.929
 843  5632.18
 844  5601.77
 845  5633.435
 846  5661.718
 847  5607.61
 848  5695.622
 849  5666.751
 850  5599.622
 851  5396.213
 852  5369.467
 853  5379.321
 854  5492.445
 855  5390.84
 856  5514.099
 857  5574.789
 858  5775.292
 859  5872.089
 860  5822.302
 861  5723.496
 862  5641.053
 863  5647.323
 864  5576.82
 865  5504.149
 866  5442.515
 867  5474.34
 868  5546.318
 869  5760.875
 870  5834.295
 871  5750.994
 872  5593.33
 873  5449.273
 874  5432.218
 875  5417.832
 876  5525.442
 877  5614.909
 878  5785.67
 879  5903.004
 880  5936.451
 881  5895.983
 882  5872.354
 883  5979.052
 884  6058.011
 885  6082.058
 886  6092.868
 887  6183.085
 888  6111.142
 889  6106.003
 890  6036.842
 891  6088.415
 892  6027.423
 893  5982.754
 894  6112.738
 895  6330.467
 896  6438.625
 897  6242.621
 898  6038.972
 899  6023.909
 900  6063.315
 901  6075.594
 902  5944.379
 903  6054.126
 904  6204.36
 905  6261.123
 906  6295.591
 907  6256.813
 908  6201.489
 909  6114.54
 910  6056.776
 911  6041.809
 912  5975.311
 913  5980.241
 914  5993.286
 915  6013.65
 916  5957.389
 917  5900.605
 918  5840.206
 919  5960.794
 920  6137.132
 921  6121.972
 922  5984.802
 923  5892.774
 924  5887.937
 925  5720.249
 926  5606.437
 927  5614.63
 928  5742.564
 929  5913.188
 930  5982.763
 931  6086.657
 932  6068.493
 933  6103.612
 934  6077.161
 935  6222.692
 936  6228.531
 937  6009.357
 938  5926.753
 939  5875.092
 940  5889.976
 941  5904.153
 942  5973.289
 943  6090.092
 944  6095.532
 945  6080.469
 946  6056.655
 947  6003.873
 948  6047.436
 949  6079.194
 950  6351.308
 951  6411.102
 952  6424.961
 953  6372.872
 954  6318.706
 955  6336.466
 956  6391.958
 957  6372.118
 958  6161.229
 959  5973.492
 960  6033.042
 961  6171.674
 962  6421.69
 963  6495.084
 964  6449.739
 965  6309.337
 966  6443.786
 967  6512.451
 968  6618.571
 969  6632.568
 970  6713.397
 971  6580.189
 972  6372.187
 973  6287.542
 974  6299.996
 975  6365.902
 976  6277.088
 977  6295.101
 978  6290.039
 979  6281.771
 980  6318.515
 981  6411.999
 982  6345.741
 983  6290.017
 984  6285.728
 985  6407.266
 986  6480.586
 987  6446.735
 988  6514.151
 989  6302.984
 990  6056.323
 991  5953.799
 992  6013.628
 993  6113.018
 994  6130.1
 995  6154.08
 996  6271.535
 997  6342.479
 998  6234.337
 999  6156.492
1000  6215.264
1001  6282.826
1002  6358.602
1003  6257.765
1004  6174.157
1005  6057.285
1006  6007.628
1007  6020.809
1008  6025.15
1009  6021.134
1010  6044.909
1011  6024.847
1012  6046.948
1013  5987.706
1014  6000.125
1015  5995.733
1016  5900.311
1017  5845.921
1018  5802.845
1019  5905.019
1020  5940.734
1021  5916.883
1022  5793.648
1023  5717.471
