# Input file       =  1205253810.115375_cleaned.dat
# Candidate        =  PSR_0332+5434
# Telescope        =  AR
# Epoch_topo       =  58193.697096242766
# Epoch_bary       =  N/A
# T_sample         =  0.002
# Data Folded      =  7340032
# Data Avg         =  0.0313314512344992
# Data StdDev      =  2.75555069676922 
# Profile Bins     =  512
# Profile Avg      =  449.117968484832 
# Profile StdDev   =  329.930451814292 
# Reduced chi-sqr  =  1.176
# Prob(Noise)      <  0.00366   (~2.7 sigma)
# P_topo (ms)      =  714.577364451287  +/- 0.000259
# P'_topo (s/s)    =  -0                +/- 1.36e-10
# P''_topo (s/s^2) =  0                 +/- 6.03e-14
# P_bary (ms)      =  N/A
# P'_bary (s/s)    =  N/A
# P''_bary (s/s^2) =  N/A
# P_orb (s)        =  N/A
# asin(i)/c (s)    =  N/A
# eccentricity     =  N/A
# w (rad)          =  N/A
# T_peri           =  N/A
######################################################
   0  -42.488
   1  5.764806
   2  332.0756
   3  818.6757
   4  511.1447
   5  383.8937
   6  774.8558
   7  442.3668
   8  101.5063
   9  375.2107
  10  575.719
  11  454.7437
  12  550.7717
  13  455.0241
  14  227.3493
  15  375.0403
  16  264.5344
  17  410.8344
  18  765.7392
  19  286.3471
  20  48.38414
  21  346.4654
  22  435.5695
  23  538.3304
  24  741.6849
  25  601.1097
  26  170.8516
  27  156.0695
  28  375.0233
  29  902.0084
  30  563.0699
  31  302.4427
  32  655.3224
  33  782.3442
  34  730.5053
  35  506.3175
  36  533.957
  37  449.3957
  38  330.7081
  39  364.5125
  40  485.2881
  41  243.9061
  42  91.95918
  43  153.187
  44  364.2414
  45  593.923
  46  668.2553
  47  715.7649
  48  602.9201
  49  528.3767
  50  584.7062
  51  631.2871
  52  310.5313
  53  338.9475
  54  674.9531
  55  223.6244
  56  558.7598
  57  608.6415
  58  291.0155
  59  244.7918
  60  194.0704
  61  413.6822
  62  555.5537
  63  530.3572
  64  265.5438
  65  368.2603
  66  308.763
  67  561.1609
  68  403.8407
  69  308.573
  70  510.0573
  71  273.2941
  72  466.1712
  73  275.1832
  74  523.1225
  75  456.5883
  76  238.1846
  77  301.3343
  78  391.0575
  79  507.733
  80  193.7593
  81  444.4682
  82  468.2522
  83  268.9272
  84  286.3542
  85  -40.82313
  86  -64.55588
  87  206.0521
  88  145.4612
  89  224.2074
  90  261.7632
  91  305.6089
  92  411.5259
  93  481.3932
  94  363.6356
  95  504.6083
  96  473.4358
  97  428.8393
  98  575.8959
  99  532.834
 100  606.4922
 101  422.3861
 102  654.748
 103  315.6263
 104  355.7636
 105  382.9089
 106  161.2116
 107  386.2605
 108  868.8207
 109  436.213
 110  377.7619
 111  339.6809
 112  572.0636
 113  452.1592
 114  315.2805
 115  403.32
 116  306.0106
 117  -26.63264
 118  315.0651
 119  292.1866
 120  572.7731
 121  888.6061
 122  494.2498
 123  271.792
 124  488.7163
 125  465.2248
 126  582.6158
 127  440.9754
 128  528.7806
 129  611.7682
 130  441.6137
 131  547.0649
 132  617.6171
 133  757.6896
 134  655.1605
 135  507.6018
 136  510.6098
 137  534.5652
 138  399.0371
 139  481.6623
 140  394.1721
 141  798.5925
 142  832.4131
 143  669.2142
 144  679.5084
 145  306.1131
 146  228.1828
 147  317.3971
 148  541.9299
 149  661.7517
 150  483.7895
 151  339.8683
 152  276.8399
 153  464.9492
 154  536.5693
 155  609.0978
 156  501.626
 157  454.2301
 158  735.7564
 159  1310.411
 160  1917.146
 161  1932.789
 162  2231.444
 163  2202.675
 164  1386.254
 165  976.3826
 166  931.3206
 167  603.6072
 168  664.8194
 169  452.4633
 170  355.3116
 171  487.2298
 172  651.984
 173  559.7026
 174  393.4207
 175  612.7639
 176  460.6518
 177  330.52
 178  342.2633
 179  418.3701
 180  127.1129
 181  221.7265
 182  128.8846
 183  161.1544
 184  463.6566
 185  388.1409
 186  513.3566
 187  469.7775
 188  173.2687
 189  503.6638
 190  333.8387
 191  360.2509
 192  506.7207
 193  406.8572
 194  193.5264
 195  210.7909
 196  384.1924
 197  476.9348
 198  546.0349
 199  580.7254
 200  572.4467
 201  565.0066
 202  487.85
 203  405.0326
 204  633.7947
 205  573.5007
 206  551.0653
 207  653.0118
 208  593.714
 209  827.4398
 210  724.9855
 211  825.9891
 212  651.7199
 213  552.9496
 214  773.3584
 215  914.8616
 216  483.757
 217  541.7086
 218  523.8167
 219  344.7056
 220  176.1604
 221  202.8161
 222  576.8456
 223  723.606
 224  348.028
 225  454.1901
 226  612.4699
 227  382.485
 228  227.4634
 229  375.3009
 230  459.1223
 231  232.0825
 232  452.6599
 233  482.3625
 234  513.6807
 235  562.407
 236  691.0468
 237  754.1569
 238  671.9852
 239  575.8531
 240  662.8006
 241  682.7238
 242  259.862
 243  213.1833
 244  320.5129
 245  631.9443
 246  346.9055
 247  40.21622
 248  275.7639
 249  488.1362
 250  905.8123
 251  310.9273
 252  255.1361
 253  474.4713
 254  394.7249
 255  414.4634
 256  593.441
 257  232.1422
 258  -29.33555
 259  384.0693
 260  323.7546
 261  195.3727
 262  143.9951
 263  40.75581
 264  457.3227
 265  491.2939
 266  449.1156
 267  547.5104
 268  443.0743
 269  278.2938
 270  250.9998
 271  402.0539
 272  507.0238
 273  196.7007
 274  132.6371
 275  66.06235
 276  420.6456
 277  440.4796
 278  347.4693
 279  -77.25723
 280  323.4215
 281  393.8621
 282  663.8079
 283  435.7343
 284  331.0166
 285  613.5195
 286  303.257
 287  518.549
 288  627.6693
 289  372.3112
 290  213.0429
 291  825.2466
 292  1072.718
 293  483.2684
 294  317.3607
 295  317.8331
 296  405.2498
 297  655.7375
 298  803.1053
 299  543.403
 300  533.6329
 301  443.9434
 302  515.2374
 303  37.63132
 304  -50.56391
 305  492.0176
 306  865.9542
 307  559.1895
 308  399.9268
 309  425.5395
 310  340.9218
 311  376.0497
 312  646.0795
 313  613.8395
 314  435.2493
 315  357.9261
 316  201.9875
 317  403.8664
 318  640.8813
 319  532.0504
 320  668.6475
 321  392.6022
 322  347.6241
 323  357.3699
 324  515.3809
 325  471.7628
 326  388.821
 327  212.2488
 328  142.3483
 329  386.7792
 330  408.5468
 331  637.3868
 332  243.2951
 333  213.8412
 334  91.92851
 335  619.5368
 336  369.906
 337  213.8031
 338  558.7891
 339  599.9897
 340  539.2482
 341  225.7252
 342  482.6593
 343  455.2924
 344  218.714
 345  24.90053
 346  -106.4004
 347  138.4998
 348  297.5066
 349  503.4037
 350  491.183
 351  362.2003
 352  377.7253
 353  323.0344
 354  314.0318
 355  0.163027
 356  323.929
 357  17.97828
 358  460.7636
 359  646.0125
 360  600.9405
 361  275.6726
 362  580.4121
 363  569.3318
 364  27.13508
 365  259.2898
 366  698.6147
 367  398.0062
 368  621.5948
 369  314.5125
 370  617.2828
 371  737.3156
 372  416.3913
 373  252.6619
 374  294.6062
 375  444.8326
 376  579.826
 377  422.896
 378  526.2164
 379  597.874
 380  481.8386
 381  556.8456
 382  565.997
 383  254.0377
 384  15.60468
 385  21.24316
 386  785.3819
 387  1267.11
 388  802.1474
 389  559.0612
 390  416.4302
 391  189.364
 392  547.2874
 393  828.8307
 394  542.783
 395  549.2289
 396  663.844
 397  771.9341
 398  695.1541
 399  383.2821
 400  694.8736
 401  597.937
 402  497.1098
 403  507.2886
 404  454.1795
 405  323.9691
 406  1014.45
 407  838.3456
 408  866.6855
 409  577.5323
 410  360.4817
 411  116.7144
 412  42.95361
 413  239.6308
 414  144.1279
 415  211.0174
 416  499.2881
 417  282.5108
 418  336.103
 419  552.2833
 420  570.0735
 421  154.7675
 422  378.1628
 423  370.9795
 424  291.4896
 425  258.2659
 426  197.0482
 427  456.3006
 428  614.3565
 429  477.7621
 430  509.494
 431  571.9487
 432  253.7057
 433  6.675502
 434  480.0816
 435  682.9938
 436  727.9657
 437  365.7659
 438  341.8466
 439  543.6273
 440  719.4361
 441  682.6818
 442  539.3345
 443  566.7246
 444  485.6798
 445  584.8364
 446  316.8275
 447  172.2835
 448  366.5709
 449  451.0753
 450  355.2037
 451  -47.47872
 452  46.72889
 453  290.6165
 454  261.8029
 455  541.0933
 456  313.5937
 457  140.6267
 458  512.0319
 459  734.0815
 460  554.3564
 461  406.71
 462  479.7615
 463  111.6955
 464  187.4872
 465  344.7049
 466  562.1712
 467  726.1465
 468  574.9856
 469  453.2251
 470  325.2885
 471  584.6207
 472  733.3279
 473  829.2769
 474  690.059
 475  443.9527
 476  220.0298
 477  -25.29831
 478  -0.1632062
 479  491.876
 480  700.3151
 481  524.723
 482  112.6167
 483  276.2297
 484  384.4884
 485  520.9233
 486  104.5537
 487  -6.039428
 488  162.5925
 489  330.4115
 490  737.1212
 491  503.908
 492  293.0146
 493  414.8893
 494  577.4674
 495  421.4015
 496  102.6835
 497  219.6077
 498  366.0274
 499  -21.56455
 500  -28.38407
 501  486.6165
 502  681.1602
 503  342.41
 504  340.4265
 505  427.6964
 506  584.4549
 507  403.9627
 508  510.3587
 509  427.2906
 510  383.7721
 511  90.36442
