# Input file       =  1205137482.115043_cleaned.dat
# Candidate        =  PSR_0332+5434
# Telescope        =  AR
# Epoch_topo       =  58192.350707350037
# Epoch_bary       =  N/A
# T_sample         =  0.002
# Data Folded      =  7208960
# Data Avg         =  0.660582986675117
# Data StdDev      =  6.47246073083578 
# Profile Bins     =  512
# Profile Avg      =  9301.0304590695  
# Profile StdDev   =  768.016855676966 
# Reduced chi-sqr  =  3.327
# Prob(Noise)      <  1.59e-127   (~24.0 sigma)
# P_topo (ms)      =  714.577470415184  +/- 1.74e-05
# P'_topo (s/s)    =  -0                +/- 9.35e-12
# P''_topo (s/s^2) =  0                 +/- 4.2e-15
# P_bary (ms)      =  N/A
# P'_bary (s/s)    =  N/A
# P''_bary (s/s^2) =  N/A
# P_orb (s)        =  N/A
# asin(i)/c (s)    =  N/A
# eccentricity     =  N/A
# w (rad)          =  N/A
# T_peri           =  N/A
######################################################
   0  8273.462
   1  9836.852
   2  9866.081
   3  9004.953
   4  7948.01
   5  7789.387
   6  8250.108
   7  8683.757
   8  10046.5
   9  11145.68
  10  11358.3
  11  10748.11
  12  9786.693
  13  9069.222
  14  9018.075
  15  8700.285
  16  8774.113
  17  9195.886
  18  9393.944
  19  9194.729
  20  8475.454
  21  8344.419
  22  8491.385
  23  8883.804
  24  9225.792
  25  10339.08
  26  11353.82
  27  11313.22
  28  10632.69
  29  9834.304
  30  9030.771
  31  8790.183
  32  8436.408
  33  9081.278
  34  9671.264
  35  9710.266
  36  9043.538
  37  7950.013
  38  7417.542
  39  8498.099
  40  8775.958
  41  9810.029
  42  10670.05
  43  11246.43
  44  10848.38
  45  9661.911
  46  8934.772
  47  8876.862
  48  8738.979
  49  8499.89
  50  8938.975
  51  9783.463
  52  8971.766
  53  8231.775
  54  7904.215
  55  8034.154
  56  8010.058
  57  8912.654
  58  10003.42
  59  10552.13
  60  10733.52
  61  9786.79
  62  8937.957
  63  8603.76
  64  8486.816
  65  8154.768
  66  8244.414
  67  9074.174
  68  9244.872
  69  8201.801
  70  7649.943
  71  7678.891
  72  7114.089
  73  7545.567
  74  8634.993
  75  10246.93
  76  10809.71
  77  10404.64
  78  9226.813
  79  8525.92
  80  8442.244
  81  8045.393
  82  8138.117
  83  8838.535
  84  9680.877
  85  9201.189
  86  8206.793
  87  7541.192
  88  7281.281
  89  7435.811
  90  8558.957
  91  9940.504
  92  11009.13
  93  11079.06
  94  10072.46
  95  9092.142
  96  8674.451
  97  8654.657
  98  8409.353
  99  8780.644
 100  9476.438
 101  9246.115
 102  8372.048
 103  7411.161
 104  7223.593
 105  7708.851
 106  8261.512
 107  9005.47
 108  10216.75
 109  11026.66
 110  10771.51
 111  9396.261
 112  8938.762
 113  8874.622
 114  8367.191
 115  7947.346
 116  8785.807
 117  9446.359
 118  9288.603
 119  8635.783
 120  8320.5
 121  8051.766
 122  8120.038
 123  8834.882
 124  10214.3
 125  11219.91
 126  11146.99
 127  10128.99
 128  8468.312
 129  8624.568
 130  8746.118
 131  8331.049
 132  8848.291
 133  9521.606
 134  9500.149
 135  8979.44
 136  8374.451
 137  7877.952
 138  8197.847
 139  8469.031
 140  9329.57
 141  10666.62
 142  11719.08
 143  11142.73
 144  10348.73
 145  9621.974
 146  9176.26
 147  8920.521
 148  8726.731
 149  9085.373
 150  9801.228
 151  10044.15
 152  8597.646
 153  8032.673
 154  8525.411
 155  8326.072
 156  8740.01
 157  10223.1
 158  11325.39
 159  11799.42
 160  10192.17
 161  9419.116
 162  9334.489
 163  9187.927
 164  9169.484
 165  9207.904
 166  9854.5
 167  9700.905
 168  9079.098
 169  8069.531
 170  8252.24
 171  8437.873
 172  8750.891
 173  9600.225
 174  10535.14
 175  10959.41
 176  10590.92
 177  9939.644
 178  9171.87
 179  8986.52
 180  8743.737
 181  8369.092
 182  8631.969
 183  9575.531
 184  9145.89
 185  8276.461
 186  8198.107
 187  8287.492
 188  8544.805
 189  9202.955
 190  9946.328
 191  11009.79
 192  10955.44
 193  9896.097
 194  9198.938
 195  8820.078
 196  8798.305
 197  8522.896
 198  8504.289
 199  9240.656
 200  9569.837
 201  8423.26
 202  7816.239
 203  7666.979
 204  8012.065
 205  8527.419
 206  9502.259
 207  10902.33
 208  11492.5
 209  11262.46
 210  10067.46
 211  9152.575
 212  8723.799
 213  8536.202
 214  8833.212
 215  9472.446
 216  9960.253
 217  10101.32
 218  9237.533
 219  8180.52
 220  7757.996
 221  8210.593
 222  8368.622
 223  9700.405
 224  11507.95
 225  11687.13
 226  11071.32
 227  9591.985
 228  9717.81
 229  9831.133
 230  9292.115
 231  9099.225
 232  9463.786
 233  10199.65
 234  9812.846
 235  9463.923
 236  9292.136
 237  8987.11
 238  8910.544
 239  9711.909
 240  11238.35
 241  11893.23
 242  11900.32
 243  10574.37
 244  10049.79
 245  9762.199
 246  9582.041
 247  9709.682
 248  10268.53
 249  10749.42
 250  10567.63
 251  9659.446
 252  8659.773
 253  9106.542
 254  9388.632
 255  9754.605
 256  10833.75
 257  11283.2
 258  11446.1
 259  10896.19
 260  10056.66
 261  9725.605
 262  9861.938
 263  9359.221
 264  8930.844
 265  9804.723
 266  10029.32
 267  9520.749
 268  8452.266
 269  8062.516
 270  8494.07
 271  8833.971
 272  9557.446
 273  10603.13
 274  11440.49
 275  11060.56
 276  10181.13
 277  9515.912
 278  9161.966
 279  9267.254
 280  9242.805
 281  9559.522
 282  10093.98
 283  9981.324
 284  8946.83
 285  8506.982
 286  8094.151
 287  8278.95
 288  9279.097
 289  10343.42
 290  11434.55
 291  11817.93
 292  10998.34
 293  9674.309
 294  8891.928
 295  7939.207
 296  8187.067
 297  8916.444
 298  10167.03
 299  10808.15
 300  10027.69
 301  9154.536
 302  8869.285
 303  9485.026
 304  9770.341
 305  10263.93
 306  11246.67
 307  11637.66
 308  10763.1
 309  10002.91
 310  9324.273
 311  8981.075
 312  8699.42
 313  8488.236
 314  9124.43
 315  9813.809
 316  9528.757
 317  8752.474
 318  8317.387
 319  8732.312
 320  8832.459
 321  8834.961
 322  9879.04
 323  10713.34
 324  11108.85
 325  10771.68
 326  9816.837
 327  9463.867
 328  9465.896
 329  8946.983
 330  9233.684
 331  10337.54
 332  10139.06
 333  9234.876
 334  8395.417
 335  8017.164
 336  8215.083
 337  8513.289
 338  9307.571
 339  10418.54
 340  11160.45
 341  10591.38
 342  9544.644
 343  9352.388
 344  9209.212
 345  9069.118
 346  9164.225
 347  9466.864
 348  10162.32
 349  9512.464
 350  8576.633
 351  7962.736
 352  8327.625
 353  8405.745
 354  8565.871
 355  10040.49
 356  11324.41
 357  11236.06
 358  10485.91
 359  10080.56
 360  8862.433
 361  8596.725
 362  8494.109
 363  8698.561
 364  9574.902
 365  10231.21
 366  9661.665
 367  8811.463
 368  8405.275
 369  8439.928
 370  8458.147
 371  9469.205
 372  10531.99
 373  11896.08
 374  11379.83
 375  10161.92
 376  9491.94
 377  8894.709
 378  8905.176
 379  9163.302
 380  9603.478
 381  10106.11
 382  9718.344
 383  8745.367
 384  8179.538
 385  8349.11
 386  8350.075
 387  9262.572
 388  10247.02
 389  11424.12
 390  11274.3
 391  10510.08
 392  9594.105
 393  9007.748
 394  9033.221
 395  8608.871
 396  8625.785
 397  9128.906
 398  9766.883
 399  9170.477
 400  7888.619
 401  7829.751
 402  8167.26
 403  8326.397
 404  8765.946
 405  10335.89
 406  10876.23
 407  10624.43
 408  10216.62
 409  9214.443
 410  8678.103
 411  8603.77
 412  8512.323
 413  8642.436
 414  9322.951
 415  9274.543
 416  8601.641
 417  8150.653
 418  7992.366
 419  8378.094
 420  8582.996
 421  9395.774
 422  10838.44
 423  11208.87
 424  10652.82
 425  9417.399
 426  8955.241
 427  8226.647
 428  7805.251
 429  8319.036
 430  9320.686
 431  9695.142
 432  9122.686
 433  8424.831
 434  8169.774
 435  8283.916
 436  8328.989
 437  8761.684
 438  10066.76
 439  10664.62
 440  10538.32
 441  10049.65
 442  9140.08
 443  8846.1
 444  9029.374
 445  8789.712
 446  8842.311
 447  9831.636
 448  9698.648
 449  9058.707
 450  7969.319
 451  7565.074
 452  8209.232
 453  8474.959
 454  10176.01
 455  10997.16
 456  11144.75
 457  10324.67
 458  9261.674
 459  8637.562
 460  8620.016
 461  8566.771
 462  8536.848
 463  8982.272
 464  9679.2
 465  8934.436
 466  7962.91
 467  7169.568
 468  7787.206
 469  7915.627
 470  8490.779
 471  9752.559
 472  10602.41
 473  10532.31
 474  9400.155
 475  8818.332
 476  8442.507
 477  8534.722
 478  8228.415
 479  8629.993
 480  9149.83
 481  8727.574
 482  8243.895
 483  7377.315
 484  7876.167
 485  8286.099
 486  8500.858
 487  9279.968
 488  10677.68
 489  10966.16
 490  9650.344
 491  9008.41
 492  8932.029
 493  8600.184
 494  8467.068
 495  8067.443
 496  8697.853
 497  9362.888
 498  9304.624
 499  8149.71
 500  7831.021
 501  8035.082
 502  7854.31
 503  8296.57
 504  9940.238
 505  10712.29
 506  11047.81
 507  10635.05
 508  9658.898
 509  9020.837
 510  8379.87
 511  8104.873
