# Input file       =  1205498225.096636_cleaned.dat
# Candidate        =  PSR_0332+5434
# Telescope        =  AR
# Epoch_topo       =  58196.525973340693
# Epoch_bary       =  N/A
# T_sample         =  0.002
# Data Folded      =  7340032
# Data Avg         =  0.399382603521061
# Data StdDev      =  5.90135428729045 
# Profile Bins     =  512
# Profile Avg      =  5725.55075171013 
# Profile StdDev   =  706.587067552332 
# Reduced chi-sqr  =  1.951
# Prob(Noise)      <  1.09e-33   (~12.0 sigma)
# P_topo (ms)      =  714.575949844898  +/- 0.00031
# P'_topo (s/s)    =  -0                +/- 1.64e-10
# P''_topo (s/s^2) =  0                 +/- 7.22e-14
# P_bary (ms)      =  N/A
# P'_bary (s/s)    =  N/A
# P''_bary (s/s^2) =  N/A
# P_orb (s)        =  N/A
# asin(i)/c (s)    =  N/A
# eccentricity     =  N/A
# w (rad)          =  N/A
# T_peri           =  N/A
######################################################
   0  6260.137
   1  6562.735
   2  6527.574
   3  6065.042
   4  5918.646
   5  5988.373
   6  6066.497
   7  6162.774
   8  6249.475
   9  6306.443
  10  5770.069
  11  5877.119
  12  6327.222
  13  6345.549
  14  6558.032
  15  6336.779
  16  5829.802
  17  6114.496
  18  6551.548
  19  5988.55
  20  6036.225
  21  6206.342
  22  6489.717
  23  6233.059
  24  5984.794
  25  6151.809
  26  6248.396
  27  6528.377
  28  6531.45
  29  6180.388
  30  6203.668
  31  6599.347
  32  6708.326
  33  6651.868
  34  7013.799
  35  7022.166
  36  7120.386
  37  6642.77
  38  6437.719
  39  6589.685
  40  6319.989
  41  6230.465
  42  6188.007
  43  6662.412
  44  7222.712
  45  7181.594
  46  6926.273
  47  6891.72
  48  6849.725
  49  6905.528
  50  6969.855
  51  6901.444
  52  7049.443
  53  7084.103
  54  7048.829
  55  7323.117
  56  7420.592
  57  7087.292
  58  6860.961
  59  6899.781
  60  6872.759
  61  6645.421
  62  6614.218
  63  6834.111
  64  6737.131
  65  6640.344
  66  6328.12
  67  6292.778
  68  6673.786
  69  6953.943
  70  6678.992
  71  6612.766
  72  6984.521
  73  6453.331
  74  6609.922
  75  6678.551
  76  6515.472
  77  6594.038
  78  6112.703
  79  6489.603
  80  6350.561
  81  6231.564
  82  5900.54
  83  5831.551
  84  5895.773
  85  5649.637
  86  5649.766
  87  5620.492
  88  5675.644
  89  5922.155
  90  5737.941
  91  5391.828
  92  5056.962
  93  5540.574
  94  5674.19
  95  5821.276
  96  5876.41
  97  5768.429
  98  5841.553
  99  5564.933
 100  5586.488
 101  6036.525
 102  6248.363
 103  6284.386
 104  5773.313
 105  5962.168
 106  5968.402
 107  5682.225
 108  5674.661
 109  5940.209
 110  6424
 111  6276.501
 112  5786.227
 113  5974.241
 114  6062.731
 115  6048.383
 116  5947.488
 117  6206.427
 118  6253.313
 119  6208.124
 120  6059.637
 121  5748.103
 122  5861.053
 123  5956.195
 124  5941.143
 125  6212.481
 126  6514.432
 127  6358.518
 128  6532.105
 129  6714.04
 130  6522.965
 131  6527.384
 132  6337.981
 133  5939.541
 134  6198.831
 135  6977.207
 136  6823.863
 137  6356.524
 138  6451.135
 139  6662.486
 140  6723.814
 141  6098.543
 142  6043.861
 143  6278.228
 144  6212.037
 145  6296.666
 146  6380.12
 147  6320.51
 148  6010.507
 149  5806.693
 150  5925.544
 151  5733.729
 152  5657.166
 153  5619.032
 154  5439.388
 155  5231.008
 156  5478.029
 157  5192.067
 158  4882.234
 159  4669.501
 160  4642.81
 161  4841.588
 162  5049.718
 163  5395.795
 164  5115.499
 165  5059.787
 166  5400.069
 167  5651.186
 168  5705.701
 169  5425.644
 170  5700.016
 171  6047.493
 172  6081.93
 173  5980.888
 174  5811.724
 175  5960.628
 176  6403.064
 177  6472.083
 178  6724.442
 179  6136.651
 180  6768.357
 181  6713.506
 182  6229.041
 183  6351.693
 184  6625.749
 185  6848.771
 186  6592.799
 187  6329.496
 188  6339.432
 189  6511.68
 190  6404.827
 191  6653.315
 192  6827.634
 193  6881.045
 194  6906.995
 195  6640.935
 196  6286.348
 197  6597.048
 198  6438.417
 199  6413.009
 200  6500.808
 201  6581.422
 202  6543.187
 203  6269.907
 204  6493.803
 205  6661.57
 206  6448.581
 207  6390.395
 208  6725.312
 209  6580.104
 210  6410.026
 211  6592.397
 212  6653.387
 213  6163.632
 214  5893.321
 215  6108.841
 216  6264.605
 217  6114.653
 218  5961.53
 219  6040.983
 220  6051.914
 221  5745.928
 222  5419.015
 223  5262.863
 224  5260.435
 225  5475.613
 226  5221.786
 227  5140.621
 228  5072.708
 229  4851.531
 230  4613.136
 231  4497.999
 232  4786.375
 233  4734.783
 234  4521.866
 235  4324.46
 236  4219.372
 237  4446.108
 238  4551.472
 239  4392.879
 240  4263.001
 241  4280.579
 242  4342.208
 243  4412.82
 244  4573.382
 245  4584.247
 246  4495.152
 247  4160.845
 248  4125.054
 249  4514.009
 250  4275.132
 251  4333.617
 252  4743.95
 253  4583.089
 254  4623.635
 255  4683.555
 256  4809.46
 257  5038.229
 258  4944.022
 259  5009.439
 260  5078.008
 261  4980.911
 262  5251.629
 263  5509.769
 264  5691.471
 265  5620.756
 266  5721.639
 267  5841.059
 268  5895.25
 269  5634.74
 270  5547.44
 271  5672.842
 272  5738.299
 273  5819.996
 274  6012.37
 275  6143.808
 276  6166.649
 277  5710.72
 278  5700.289
 279  5977.266
 280  6214.448
 281  6326.46
 282  6006.152
 283  6234.197
 284  6671.657
 285  6125.248
 286  5903.529
 287  5879.396
 288  6107.611
 289  5972.027
 290  5694.734
 291  5686.202
 292  5822.979
 293  5675.583
 294  5526.365
 295  5336.245
 296  5523.351
 297  5470.969
 298  5225.897
 299  5241.176
 300  5156.109
 301  5150.021
 302  4964.61
 303  5275.876
 304  5399.381
 305  5340.081
 306  4921.254
 307  4642.943
 308  5181.794
 309  5519.073
 310  5261.952
 311  5083.157
 312  5296.333
 313  5002.719
 314  5191.675
 315  4984.896
 316  4966.59
 317  4976.66
 318  4960.618
 319  5034.821
 320  5192.92
 321  5124.169
 322  5171.741
 323  4795.248
 324  5194.856
 325  5261.399
 326  5149.036
 327  5275.9
 328  5425.733
 329  5495.546
 330  5254.857
 331  5102.124
 332  5117.469
 333  5402.729
 334  5583.284
 335  5605.433
 336  5556.809
 337  5370.418
 338  5254.625
 339  5286.53
 340  5281.589
 341  5266.106
 342  5153.584
 343  5437.227
 344  5673.794
 345  5551.459
 346  5466.764
 347  5517.829
 348  5679.396
 349  5896.92
 350  5591.034
 351  5480.644
 352  5537.15
 353  5794.994
 354  5929.877
 355  5611.187
 356  5535.439
 357  5416.703
 358  5602.125
 359  5257.452
 360  5080.052
 361  5212.407
 362  5284.717
 363  4838.004
 364  4968.479
 365  4756.273
 366  4598.568
 367  4691.127
 368  4662.111
 369  4732.912
 370  4766.059
 371  5214.207
 372  5626.774
 373  6243.523
 374  6482.329
 375  5946.195
 376  4851.007
 377  4370.156
 378  3993.723
 379  4095.542
 380  4288.85
 381  4406.404
 382  4642.827
 383  4203.754
 384  4111.354
 385  4350.778
 386  4399.772
 387  4493.102
 388  4254.5
 389  4704.543
 390  4884.238
 391  4852.498
 392  4953.345
 393  4855.571
 394  4982.615
 395  5083.152
 396  5452.482
 397  5343.117
 398  5168.777
 399  5044.727
 400  5097.794
 401  5304.705
 402  5055.589
 403  5095.394
 404  5428.525
 405  5174.061
 406  4985.683
 407  5124.49
 408  5119.706
 409  5365.298
 410  5053.9
 411  5423.263
 412  5245.258
 413  4829.57
 414  5014.398
 415  5402.569
 416  5432.879
 417  5342.361
 418  5567.877
 419  5346.945
 420  5608.259
 421  5318.837
 422  5152.749
 423  5379.926
 424  5451.439
 425  5354.942
 426  5577.788
 427  5641.334
 428  5409.598
 429  5263.284
 430  5525.886
 431  5698.279
 432  5809.697
 433  5625.133
 434  5682.109
 435  5518.925
 436  4995.793
 437  5382.22
 438  5571.412
 439  5275.5
 440  5121.527
 441  4741.846
 442  5112.586
 443  5209.624
 444  5431.974
 445  5285.707
 446  4617.575
 447  4783.295
 448  4591.882
 449  4795.908
 450  5189.054
 451  5145.496
 452  4685.957
 453  4679.832
 454  4890.466
 455  4639.072
 456  4777.941
 457  4731.249
 458  4962.384
 459  4962.602
 460  5010.229
 461  5096.301
 462  5173.431
 463  5140.268
 464  5491.475
 465  5342.954
 466  5432.381
 467  5192.394
 468  5203.354
 469  5059.866
 470  5205.22
 471  5306.723
 472  5528.487
 473  5680.876
 474  5512.122
 475  5673.533
 476  5314.274
 477  5350.292
 478  5936.517
 479  6285.126
 480  6225.704
 481  6154.093
 482  6471.307
 483  6589.979
 484  6131.413
 485  6211.197
 486  6299.24
 487  6307.908
 488  6155.752
 489  6307.096
 490  6149.933
 491  6286.034
 492  6350.165
 493  5894.751
 494  6286.987
 495  6492.653
 496  6149.742
 497  6566.2
 498  6847.093
 499  6667.727
 500  6294.362
 501  6248.861
 502  6845.222
 503  6280.217
 504  6451.5
 505  6439.968
 506  6405.997
 507  6608.918
 508  6611.302
 509  6736.891
 510  6338.637
 511  6342.259
