# Input file       =  1205684143.112546_cleaned.dat
# Candidate        =  PSR_0332+5434
# Telescope        =  AR
# Epoch_topo       =  58198.677802228543
# Epoch_bary       =  N/A
# T_sample         =  0.002
# Data Folded      =  7340032
# Data Avg         =  0.104089985323153
# Data StdDev      =  1.00017794788617 
# Profile Bins     =  512
# Profile Avg      =  1492.15400506205 
# Profile StdDev   =  119.754342617494 
# Reduced chi-sqr  =  1.601
# Prob(Noise)      <  1.35e-16   (~8.2 sigma)
# P_topo (ms)      =  714.57534761716   +/- 0.000328
# P'_topo (s/s)    =  -0                +/- 1.73e-10
# P''_topo (s/s^2) =  0                 +/- 7.64e-14
# P_bary (ms)      =  N/A
# P'_bary (s/s)    =  N/A
# P''_bary (s/s^2) =  N/A
# P_orb (s)        =  N/A
# asin(i)/c (s)    =  N/A
# eccentricity     =  N/A
# w (rad)          =  N/A
# T_peri           =  N/A
######################################################
   0  1457.827
   1  1417
   2  1440.084
   3  1421.865
   4  1350.683
   5  1368.18
   6  1463.65
   7  1414.084
   8  1374.638
   9  1406.181
  10  1318.819
  11  1306.83
  12  1442.659
  13  1492.743
  14  1532.155
  15  1418.014
  16  1458.046
  17  1512.259
  18  1459.102
  19  1553.702
  20  1512.083
  21  1511.896
  22  1549.257
  23  1530.311
  24  1441.316
  25  1425.737
  26  1460.773
  27  1516.971
  28  1594.911
  29  1564.098
  30  1530.117
  31  1507.425
  32  1650.919
  33  1661.755
  34  1570.126
  35  1544.721
  36  1516.577
  37  1586.098
  38  1478.211
  39  1387.541
  40  1459.831
  41  1453.601
  42  1460.253
  43  1502.437
  44  1485.373
  45  1421.152
  46  1404.875
  47  1501.736
  48  1592.186
  49  1502.016
  50  1557.431
  51  1580.233
  52  1497.465
  53  1564.903
  54  1547.27
  55  1508.6
  56  1513.25
  57  1450.636
  58  1519.922
  59  1507.169
  60  1498.49
  61  1515.802
  62  1630.456
  63  1587.839
  64  1493.808
  65  1520.784
  66  1538.458
  67  1503.136
  68  1557.261
  69  1572.498
  70  1550.123
  71  1558.822
  72  1545.318
  73  1557.949
  74  1598.429
  75  1588.741
  76  1567.188
  77  1707.253
  78  1711.727
  79  1813.392
  80  2043.82
  81  2155.265
  82  2138.701
  83  2081.753
  84  1891.941
  85  1815.57
  86  1705.378
  87  1683.764
  88  1651.027
  89  1711.349
  90  1662.778
  91  1716.414
  92  1641.929
  93  1648.003
  94  1619.793
  95  1585.808
  96  1602.881
  97  1634.568
  98  1593.968
  99  1654.659
 100  1767.085
 101  1653.718
 102  1551.532
 103  1570.146
 104  1466.513
 105  1530.759
 106  1596.652
 107  1705.241
 108  1713.157
 109  1659.27
 110  1598.51
 111  1587.006
 112  1601.02
 113  1655.823
 114  1695.885
 115  1619.664
 116  1578.578
 117  1505.905
 118  1523.55
 119  1546.801
 120  1552.789
 121  1534.895
 122  1612.151
 123  1562.009
 124  1497.614
 125  1534.641
 126  1498.142
 127  1541.454
 128  1454.904
 129  1406.614
 130  1380.605
 131  1466.315
 132  1489.992
 133  1472.356
 134  1498.869
 135  1489.654
 136  1476.362
 137  1500.01
 138  1462.573
 139  1475.935
 140  1480.917
 141  1454.005
 142  1533.091
 143  1409.932
 144  1364.672
 145  1509.837
 146  1408.366
 147  1448.639
 148  1553.175
 149  1482.904
 150  1431.136
 151  1394.238
 152  1351.872
 153  1380.538
 154  1411.222
 155  1424.582
 156  1503.209
 157  1432.188
 158  1400.387
 159  1405.739
 160  1526.64
 161  1495.902
 162  1433.22
 163  1504.257
 164  1546.974
 165  1432.28
 166  1415.83
 167  1457.066
 168  1475.527
 169  1497.307
 170  1423.33
 171  1382.655
 172  1488.241
 173  1543.937
 174  1612.979
 175  1549.682
 176  1625.078
 177  1672.741
 178  1502.122
 179  1472.949
 180  1491.573
 181  1595.508
 182  1733.673
 183  1687.697
 184  1686.307
 185  1629.66
 186  1555.688
 187  1583.751
 188  1552.052
 189  1521.733
 190  1551.279
 191  1542.433
 192  1557.1
 193  1560.987
 194  1556.679
 195  1538.131
 196  1529.197
 197  1513.941
 198  1528.339
 199  1547.556
 200  1614.78
 201  1504.384
 202  1438.747
 203  1468.731
 204  1323.821
 205  1274.106
 206  1335.972
 207  1403.264
 208  1392.769
 209  1454.715
 210  1454.797
 211  1536.701
 212  1499.515
 213  1389.242
 214  1334.85
 215  1482.506
 216  1533.635
 217  1439.341
 218  1404.707
 219  1277.097
 220  1415.988
 221  1407.175
 222  1418.542
 223  1500.717
 224  1423.522
 225  1325.404
 226  1463.358
 227  1461.466
 228  1388.658
 229  1390.578
 230  1369.888
 231  1456.936
 232  1420.78
 233  1390.415
 234  1410.255
 235  1412.401
 236  1329.406
 237  1275.01
 238  1432.977
 239  1516.239
 240  1442.009
 241  1375.208
 242  1340.691
 243  1440.253
 244  1473.932
 245  1452.14
 246  1434.044
 247  1451.479
 248  1447.488
 249  1430.477
 250  1480.017
 251  1561.234
 252  1499.31
 253  1602.81
 254  1506.286
 255  1415.238
 256  1455.224
 257  1535.693
 258  1557.698
 259  1519.576
 260  1566.11
 261  1583.16
 262  1471.622
 263  1472.221
 264  1483.943
 265  1528.429
 266  1524.67
 267  1535.011
 268  1559.249
 269  1579.293
 270  1533.225
 271  1409.951
 272  1444.428
 273  1457.46
 274  1453.049
 275  1426.778
 276  1478.308
 277  1525.739
 278  1516.727
 279  1543.971
 280  1505.001
 281  1461.733
 282  1473.151
 283  1564.619
 284  1577.402
 285  1562.762
 286  1573.391
 287  1581.829
 288  1522.445
 289  1446.658
 290  1514.29
 291  1525.178
 292  1615.103
 293  1570.05
 294  1580.849
 295  1546.399
 296  1512.964
 297  1531.635
 298  1609.563
 299  1667.172
 300  1534.324
 301  1425.191
 302  1446.842
 303  1587.837
 304  1606.9
 305  1624.506
 306  1603.182
 307  1445.675
 308  1448.333
 309  1508.47
 310  1485.646
 311  1593.029
 312  1545.416
 313  1504.966
 314  1522.607
 315  1538.551
 316  1495.312
 317  1410.405
 318  1574.786
 319  1592.699
 320  1557.679
 321  1489.361
 322  1563.919
 323  1600.576
 324  1555.738
 325  1540.63
 326  1558.043
 327  1595.09
 328  1628.924
 329  1544.31
 330  1591.604
 331  1573.443
 332  1523.323
 333  1523.01
 334  1423.706
 335  1468.657
 336  1516.319
 337  1549.231
 338  1587.558
 339  1530.865
 340  1571.1
 341  1557.667
 342  1488.025
 343  1458.26
 344  1484.312
 345  1532.374
 346  1528.734
 347  1539.336
 348  1445.344
 349  1312.833
 350  1400.994
 351  1519.31
 352  1508.734
 353  1480.252
 354  1529.082
 355  1492.712
 356  1459.888
 357  1515.221
 358  1439.504
 359  1518.683
 360  1645.977
 361  1606.682
 362  1544.015
 363  1545.361
 364  1576.95
 365  1580.033
 366  1524.15
 367  1466.138
 368  1435.63
 369  1403.408
 370  1394.312
 371  1452.852
 372  1516.265
 373  1546.646
 374  1485.149
 375  1505.785
 376  1514.279
 377  1539.286
 378  1486.094
 379  1495.249
 380  1470.8
 381  1462.208
 382  1563.758
 383  1496.009
 384  1445.563
 385  1449.282
 386  1493.572
 387  1509.182
 388  1616.183
 389  1615.593
 390  1593.535
 391  1530.871
 392  1495.714
 393  1438.396
 394  1345.325
 395  1405.033
 396  1543.071
 397  1578.095
 398  1535.875
 399  1565.639
 400  1482.57
 401  1379.68
 402  1451.756
 403  1439.401
 404  1481.477
 405  1504.057
 406  1553.924
 407  1497.07
 408  1378.121
 409  1360.427
 410  1366.197
 411  1358.63
 412  1451.233
 413  1537.016
 414  1502.634
 415  1382.262
 416  1401.616
 417  1347.089
 418  1300.384
 419  1433.879
 420  1458.455
 421  1369.562
 422  1451.756
 423  1514.199
 424  1431.801
 425  1490.038
 426  1562.547
 427  1383.481
 428  1406.992
 429  1396.19
 430  1334.424
 431  1274.176
 432  1328.943
 433  1445.321
 434  1541.237
 435  1463.001
 436  1307.555
 437  1337.713
 438  1394.99
 439  1365.227
 440  1401.272
 441  1426.7
 442  1374.921
 443  1425.366
 444  1454.946
 445  1494.137
 446  1473.704
 447  1339.878
 448  1312.239
 449  1302.758
 450  1345.655
 451  1286.115
 452  1429.643
 453  1405.036
 454  1427.634
 455  1431.307
 456  1445.331
 457  1401.665
 458  1347.321
 459  1373.062
 460  1370.529
 461  1408.123
 462  1441.294
 463  1496.34
 464  1510.041
 465  1433.115
 466  1333.822
 467  1444.984
 468  1341.703
 469  1354.097
 470  1376.526
 471  1380.145
 472  1332.056
 473  1379.721
 474  1414.034
 475  1363.444
 476  1357.529
 477  1444.194
 478  1394.586
 479  1470.366
 480  1507.387
 481  1460.89
 482  1418.827
 483  1350.797
 484  1378.27
 485  1362.38
 486  1292.298
 487  1386.689
 488  1442.202
 489  1424.64
 490  1371.332
 491  1316.327
 492  1393.463
 493  1386.708
 494  1349.257
 495  1441.238
 496  1436.448
 497  1379.795
 498  1353.746
 499  1293.474
 500  1305.985
 501  1282.51
 502  1308.229
 503  1343.88
 504  1430.904
 505  1386.707
 506  1258.657
 507  1217.47
 508  1372.434
 509  1455.772
 510  1411.775
 511  1429.366
