# Input file       =  1205223715.118029_cleaned.dat
# Candidate        =  PSR_0332+5434
# Telescope        =  AR
# Epoch_topo       =  58193.348774514227
# Epoch_bary       =  N/A
# T_sample         =  0.002
# Data Folded      =  7471104
# Data Avg         =  0.263691815449611
# Data StdDev      =  5.62708535532723 
# Profile Bins     =  1024
# Profile Avg      =  1923.92862906254 
# Profile StdDev   =  480.646645357506 
# Reduced chi-sqr  =  2.663
# Prob(Noise)      <  1.71e-154   (~26.5 sigma)
# P_topo (ms)      =  714.577125823476  +/- 1.19e-05
# P'_topo (s/s)    =  -0                +/- 6.19e-12
# P''_topo (s/s^2) =  0                 +/- 2.68e-15
# P_bary (ms)      =  N/A
# P'_bary (s/s)    =  N/A
# P''_bary (s/s^2) =  N/A
# P_orb (s)        =  N/A
# asin(i)/c (s)    =  N/A
# eccentricity     =  N/A
# w (rad)          =  N/A
# T_peri           =  N/A
######################################################
   0  1612.636
   1  1840.294
   2  1944.921
   3  2031.966
   4  2174.288
   5  2105.739
   6  2247.216
   7  2223.133
   8  2167.533
   9  1990.203
  10  1750.727
  11  1523.623
  12  1239.758
  13  1291.489
  14  1177.234
  15  1081.864
  16  1222.68
  17  1496.056
  18  1703.216
  19  1933.138
  20  2145.639
  21  2476.977
  22  2545.169
  23  2550.952
  24  2638.19
  25  2388.715
  26  2280.78
  27  1889.501
  28  1771.366
  29  1526.136
  30  1318.6
  31  1488.434
  32  1495.35
  33  1672.496
  34  1839.039
  35  2030.992
  36  2178.644
  37  2231.617
  38  2234.089
  39  2246.939
  40  2031.002
  41  2072.63
  42  1870.586
  43  1724.118
  44  1549.118
  45  1373.978
  46  1367.156
  47  1124.822
  48  1272.953
  49  1342.217
  50  1482.59
  51  1622.857
  52  1728.744
  53  1956.096
  54  2090.298
  55  2106.021
  56  2193.552
  57  2221.41
  58  2171.842
  59  2108.874
  60  1885.647
  61  1766.734
  62  1647.055
  63  1795.85
  64  1801.524
  65  1766.713
  66  1929.041
  67  1918.865
  68  1927.849
  69  2009.729
  70  2290.617
  71  2391.64
  72  2530.232
  73  2444.061
  74  2275.926
  75  1995.86
  76  1842.797
  77  1606.139
  78  1518.048
  79  1358.891
  80  1348.813
  81  1272.772
  82  1190.333
  83  1398.816
  84  1685.158
  85  1893.048
  86  2067.942
  87  2213.99
  88  2360.374
  89  2564.354
  90  2537.104
  91  2532.899
  92  2220.874
  93  2022.606
  94  1876.114
  95  1667.627
  96  1592.473
  97  1676.442
  98  1849.472
  99  1945.026
 100  2000.8
 101  1998.448
 102  2263.333
 103  2358.143
 104  2633.739
 105  2522.812
 106  2519.894
 107  2495.566
 108  2399.648
 109  2205.845
 110  1812.464
 111  1603.697
 112  1356.624
 113  1197.268
 114  1055.786
 115  1079.408
 116  1287.998
 117  1465.87
 118  1756.571
 119  1953.594
 120  2017.921
 121  2155.915
 122  2632.898
 123  2831.608
 124  2812.275
 125  2346.543
 126  2094.27
 127  1696.643
 128  1617.848
 129  1518.759
 130  1430.971
 131  1427.776
 132  1634.674
 133  1926.01
 134  2231.41
 135  2173.507
 136  2225.669
 137  2399.574
 138  2418.887
 139  2485.474
 140  2308.992
 141  2129.391
 142  1838.995
 143  1679.177
 144  1705.901
 145  1473.347
 146  1292.792
 147  1156.091
 148  1177.481
 149  1316.227
 150  1494.477
 151  1819.667
 152  2025.702
 153  2107.205
 154  2377.682
 155  2458.272
 156  2567.512
 157  2549.741
 158  2507.115
 159  2343.753
 160  1948.558
 161  1675.793
 162  1448.159
 163  1374.385
 164  1529.151
 165  1646.54
 166  1834.932
 167  1947.922
 168  2110.148
 169  2317.301
 170  2329.025
 171  2500.385
 172  2556.975
 173  2290.512
 174  2022.138
 175  1799.869
 176  1811.669
 177  1589.924
 178  1463.232
 179  1298.161
 180  1048.004
 181  1179.771
 182  1379.762
 183  1543.335
 184  1746.408
 185  1924.536
 186  2193.647
 187  2223.961
 188  2269.98
 189  2470.665
 190  2316.957
 191  2297.042
 192  2172.167
 193  1890.424
 194  1575.974
 195  1394.318
 196  1567.229
 197  1470.932
 198  1447.284
 199  1732.667
 200  1877.964
 201  1890.989
 202  1989.093
 203  2180.343
 204  2351.277
 205  2289.844
 206  2142.088
 207  1926.818
 208  1776.255
 209  1803.742
 210  1632.377
 211  1534.745
 212  1257.713
 213  1321.09
 214  1348.698
 215  1408.809
 216  1558.83
 217  1741.902
 218  1961.694
 219  2224.181
 220  2242.055
 221  2345.233
 222  2352.685
 223  2325.95
 224  2251.116
 225  1897.336
 226  1657.211
 227  1572.262
 228  1651.801
 229  1650.792
 230  1726.203
 231  1931.451
 232  2065.653
 233  2019.947
 234  2169.123
 235  2232.892
 236  2381.028
 237  2444.25
 238  2299.726
 239  2163.105
 240  1996.694
 241  1962.463
 242  1774.301
 243  1566.434
 244  1412.517
 245  1221.179
 246  1228.037
 247  1153.416
 248  1320.143
 249  1623.939
 250  1852.833
 251  2126.64
 252  2335.551
 253  2407.392
 254  2490.92
 255  2548.574
 256  2571.313
 257  2307.816
 258  1991.053
 259  1855.189
 260  1500.473
 261  1382.082
 262  1447.57
 263  1722.317
 264  1744.425
 265  1651.524
 266  1708.113
 267  2121.664
 268  2402.767
 269  2565.489
 270  2600.858
 271  2467.17
 272  2384.81
 273  2113.062
 274  1979.924
 275  1652.194
 276  1425.173
 277  1310.984
 278  1220.772
 279  1112.417
 280  1077.101
 281  1232.476
 282  1471.588
 283  1657.862
 284  1967.835
 285  2117.616
 286  2429.678
 287  2710.669
 288  2678.034
 289  2634.626
 290  2358.196
 291  2176.332
 292  1800.695
 293  1424.253
 294  1305.725
 295  1282.062
 296  1477.6
 297  1672.148
 298  1781.995
 299  2050.583
 300  2070.767
 301  2208.469
 302  2300.24
 303  2330.103
 304  2463.947
 305  2406.235
 306  2242.27
 307  1986.814
 308  1737.781
 309  1568.098
 310  1214.94
 311  1067.605
 312  1023.084
 313  1012.497
 314  1383.958
 315  1714.972
 316  1891.946
 317  2158.244
 318  2343.848
 319  2670.531
 320  2691.202
 321  2623.537
 322  2643.206
 323  2333.754
 324  2210.715
 325  1751.297
 326  1733.587
 327  1550.219
 328  1541.239
 329  1655.901
 330  1640.041
 331  1757.654
 332  1988.134
 333  2197.889
 334  2422.526
 335  2361.308
 336  2408.61
 337  2367.945
 338  2180.283
 339  2237.585
 340  2017.525
 341  1781.278
 342  1376.961
 343  1129.82
 344  1110.91
 345  1005.854
 346  1322.435
 347  1547.911
 348  1797.828
 349  1879.223
 350  1963.369
 351  2203.721
 352  2418.163
 353  2400.018
 354  2485.014
 355  2436.435
 356  2451.748
 357  2182.638
 358  1854.31
 359  1569.996
 360  1393.981
 361  1480.968
 362  1668.831
 363  1805.822
 364  1788.797
 365  1736.44
 366  1851.418
 367  2192.935
 368  2399.387
 369  2557.26
 370  2610.648
 371  2470.69
 372  2159.596
 373  1891.567
 374  1748.005
 375  1426.522
 376  1317.681
 377  1148.081
 378  1275.085
 379  1281.227
 380  1376.584
 381  1644.57
 382  2050.993
 383  2167.786
 384  2355.168
 385  2489.946
 386  2706.107
 387  2630.219
 388  2566.351
 389  2416.646
 390  2183.717
 391  1868.399
 392  1665.055
 393  1417.217
 394  1409.682
 395  1394.219
 396  1632.389
 397  1815.781
 398  2007.768
 399  2154.28
 400  2329.012
 401  2412.407
 402  2497.691
 403  2329.864
 404  2243.809
 405  2059.155
 406  1903.183
 407  1757.057
 408  1498.641
 409  1275.464
 410  1112.094
 411  1136.485
 412  1187.984
 413  1434.309
 414  1679.744
 415  2009.602
 416  2088.21
 417  2416.817
 418  2429.812
 419  2530.857
 420  2499.415
 421  2422.685
 422  2368.659
 423  2120.393
 424  1987.709
 425  1682.858
 426  1596.71
 427  1639.613
 428  1645.361
 429  1675.49
 430  1767.426
 431  1936.718
 432  2250.229
 433  2336.703
 434  2452.666
 435  2508.226
 436  2382.446
 437  2423.068
 438  2355.765
 439  2274.888
 440  1977.265
 441  1701.862
 442  1472.373
 443  1137.838
 444  1155.992
 445  1089.794
 446  1238.508
 447  1538.661
 448  1820.789
 449  2134.434
 450  2167.121
 451  2237.023
 452  2483.729
 453  2575.611
 454  2667.923
 455  2505.187
 456  2207.581
 457  1991.816
 458  1570.892
 459  1535.497
 460  1398.801
 461  1567.222
 462  1725.236
 463  1674.304
 464  1758.853
 465  1934.751
 466  2264.517
 467  2512.891
 468  2389.275
 469  2547.798
 470  2429.648
 471  2304.78
 472  2156.889
 473  1852.986
 474  1702.189
 475  1277.559
 476  1258.907
 477  1050.198
 478  999.9904
 479  1208.252
 480  1461.788
 481  1576.096
 482  1673.108
 483  1833.021
 484  2031.421
 485  2284.889
 486  2367.403
 487  2440.552
 488  2237.47
 489  2239.208
 490  2138.627
 491  1922.475
 492  1798.394
 493  1738.878
 494  1888.234
 495  1858.172
 496  1891.235
 497  2108.291
 498  2214.399
 499  2296.365
 500  2258.553
 501  2250.855
 502  2420.911
 503  2397.051
 504  2274.661
 505  1988.061
 506  1795.721
 507  1669.608
 508  1492.211
 509  1434.917
 510  1252.81
 511  1303.879
 512  1331.102
 513  1500.448
 514  1705.192
 515  2062.871
 516  2220.344
 517  2503.183
 518  2545.877
 519  2680.675
 520  2513.369
 521  2384.934
 522  2241.059
 523  1863.367
 524  1535.19
 525  1344.91
 526  1405.168
 527  1550.361
 528  1571.44
 529  1695.809
 530  1848.5
 531  1978.4
 532  2267.912
 533  2486.196
 534  2548.879
 535  2529.758
 536  2448.537
 537  2281.008
 538  1927.689
 539  1711.862
 540  1588.479
 541  1428.896
 542  1072.746
 543  889.65
 544  1176.119
 545  1434.173
 546  1723.506
 547  1831.637
 548  1999.113
 549  2283.632
 550  2610.947
 551  2683.623
 552  2595.69
 553  2490.651
 554  2273.076
 555  2033.683
 556  1748.324
 557  1731.795
 558  1561.909
 559  1516.992
 560  1518.931
 561  1585.708
 562  1758.214
 563  1864.503
 564  1853.662
 565  2124.391
 566  2260.651
 567  2620.393
 568  2537.212
 569  2412.865
 570  2251.107
 571  2114.416
 572  1914.207
 573  1582.803
 574  1391.094
 575  1255.857
 576  1085.093
 577  1126.883
 578  1408.844
 579  1831.776
 580  2040.53
 581  2232.439
 582  2494.908
 583  2562.291
 584  2562.926
 585  2646.984
 586  2420.287
 587  2317.573
 588  2045.119
 589  1952.73
 590  1799.728
 591  1729.259
 592  1900.965
 593  1759.152
 594  1786.864
 595  2009.607
 596  2150.274
 597  2392.726
 598  2375.616
 599  2602.116
 600  2760.575
 601  2677.867
 602  2752.861
 603  2651.928
 604  2684.125
 605  2647.602
 606  2468.74
 607  2346.517
 608  2050.287
 609  2178.833
 610  2038.882
 611  1921.097
 612  1961.191
 613  2204.144
 614  2357.427
 615  2408.451
 616  2254.053
 617  2314.263
 618  2301.326
 619  2395.921
 620  2358.001
 621  2223.899
 622  2285.429
 623  1957.196
 624  1845.743
 625  1617.462
 626  1638.629
 627  1791.789
 628  1855.728
 629  2019.017
 630  2050.82
 631  2082.885
 632  2256.639
 633  2460.837
 634  2496.612
 635  2474.044
 636  2220.742
 637  2171.002
 638  1745.324
 639  1585.057
 640  1272.487
 641  1260.066
 642  1261.559
 643  1241.554
 644  1547.002
 645  1703.753
 646  1862.947
 647  2001.677
 648  2151.861
 649  2429.445
 650  2475.64
 651  2478.911
 652  2478.123
 653  2371.543
 654  2248.133
 655  2105.898
 656  1855.314
 657  1585.383
 658  1422.104
 659  1601.214
 660  1708.697
 661  1897.475
 662  2077.061
 663  2264.393
 664  2246.597
 665  2436.446
 666  2403.87
 667  2488.673
 668  2283.62
 669  2256.043
 670  1982.308
 671  1785.826
 672  1569.806
 673  1359.726
 674  1220.025
 675  1070.243
 676  1174.565
 677  1447.921
 678  1517.915
 679  1786.437
 680  2170.731
 681  2444.7
 682  2546.212
 683  2622.208
 684  2709.415
 685  2667.472
 686  2516.923
 687  2377.85
 688  1963.415
 689  1518.167
 690  1417.671
 691  1448.848
 692  1589.624
 693  1563.883
 694  1674.283
 695  1865.138
 696  2010.602
 697  2198.67
 698  2272.059
 699  2202.401
 700  2363.7
 701  2356.044
 702  2283.784
 703  1944.935
 704  1631.69
 705  1567.79
 706  1318.886
 707  1191.217
 708  984.7609
 709  1066.591
 710  1201.109
 711  1493.065
 712  1812.359
 713  1889.286
 714  2096.618
 715  2432.743
 716  2544.542
 717  2490.873
 718  2336.403
 719  2251.109
 720  2078.934
 721  1803.511
 722  1731.794
 723  1437.354
 724  1321.358
 725  1339.627
 726  1651.892
 727  1940.275
 728  2106.314
 729  2004.819
 730  2134.868
 731  2126.507
 732  2295.803
 733  2354.789
 734  2195.622
 735  2205.967
 736  1954.041
 737  1899.056
 738  1513.588
 739  1357.685
 740  1242.484
 741  1151.61
 742  1316.555
 743  1411.254
 744  1636.379
 745  1748.264
 746  1833.299
 747  2087.477
 748  2279.352
 749  2337.057
 750  2558.504
 751  2547.585
 752  2665.622
 753  2170.079
 754  1844.177
 755  1675.464
 756  1623.468
 757  1620.836
 758  1479.989
 759  1613.847
 760  1816.514
 761  1871.122
 762  1907.795
 763  1948.224
 764  2071.68
 765  2279
 766  2253.836
 767  2124.719
 768  1956.448
 769  1870.484
 770  1779.257
 771  1596.997
 772  1505.389
 773  1380.111
 774  1221.149
 775  1144.868
 776  1182.657
 777  1486.476
 778  1815.668
 779  2092.475
 780  2383.011
 781  2423.281
 782  2492.502
 783  2431.248
 784  2402.875
 785  2479.182
 786  2261.88
 787  2193.398
 788  1937.848
 789  1818.095
 790  1596.466
 791  1541.982
 792  1782.474
 793  1893.096
 794  1908.174
 795  2210.629
 796  2620.562
 797  2663.148
 798  2469.954
 799  2125.528
 800  2078.67
 801  1843.515
 802  1858.107
 803  1642.597
 804  1554.993
 805  1235.066
 806  1158.881
 807  1271.369
 808  1193.091
 809  1230.792
 810  1362.554
 811  1634.801
 812  1774.284
 813  2003.366
 814  2203.348
 815  2387.797
 816  2406.733
 817  2656.275
 818  2531.423
 819  2370.452
 820  2205.613
 821  2070.245
 822  1808.317
 823  1570.815
 824  1587.718
 825  1694.6
 826  1747.543
 827  1897.12
 828  2045.721
 829  2045.249
 830  2212.463
 831  2302.23
 832  2321.08
 833  2222.478
 834  2225.009
 835  2237.88
 836  2027.783
 837  1712.561
 838  1409.903
 839  1211.304
 840  1015.995
 841  920.2119
 842  1106.813
 843  1345.267
 844  1695.655
 845  2046.28
 846  2183.662
 847  2255.005
 848  2378.93
 849  2403.845
 850  2612.864
 851  2494.324
 852  2329.881
 853  1912.797
 854  1675.761
 855  1528.275
 856  1328.341
 857  1373.133
 858  1612.051
 859  1849.068
 860  2128.658
 861  2147.595
 862  2141.795
 863  2223.755
 864  2150.475
 865  2274.958
 866  2059.039
 867  1982.055
 868  1822.851
 869  1734.413
 870  1665.51
 871  1349.818
 872  1252.817
 873  1086.406
 874  1094.172
 875  1168.677
 876  1475.26
 877  1775.052
 878  2016.251
 879  2104.951
 880  2319.447
 881  2395.936
 882  2371.164
 883  2445.197
 884  2204.576
 885  2127.965
 886  1758.797
 887  1647.426
 888  1530.831
 889  1503.002
 890  1603.827
 891  1659.838
 892  1719.963
 893  1746.317
 894  1860.568
 895  2064.734
 896  2066.877
 897  2200.176
 898  2439.982
 899  2459.819
 900  2336.838
 901  2024.005
 902  1918.93
 903  1621.367
 904  1341.464
 905  1045.347
 906  896.6848
 907  957.8519
 908  1172.782
 909  1425.353
 910  1765.554
 911  1944.389
 912  2118.433
 913  2438.058
 914  2554.103
 915  2574.482
 916  2322.02
 917  2296.336
 918  2243.422
 919  2063.846
 920  1969.875
 921  1830.368
 922  1803.944
 923  1667.321
 924  1609.304
 925  1860.854
 926  1884.432
 927  1882.625
 928  1959.43
 929  2094.135
 930  2321.913
 931  2380.304
 932  2551.096
 933  2462.581
 934  2267.134
 935  2106.796
 936  1761.757
 937  1506.085
 938  1201.392
 939  1167.416
 940  1203.128
 941  1081.042
 942  1354.503
 943  1677.226
 944  2031.545
 945  2271.917
 946  2296.175
 947  2387.196
 948  2407.775
 949  2419.691
 950  2470.726
 951  2239.814
 952  1944.811
 953  1770.864
 954  1740.778
 955  1568.442
 956  1471.22
 957  1555.337
 958  1767.176
 959  1860.347
 960  2073.85
 961  2269.401
 962  2397.829
 963  2456.849
 964  2414.866
 965  2346.299
 966  2203.995
 967  2073.975
 968  1830.708
 969  1694.978
 970  1530.529
 971  1332.214
 972  1198.736
 973  1038.093
 974  1178.554
 975  1451.05
 976  1684.177
 977  1917.594
 978  2235.766
 979  2409.505
 980  2607.793
 981  2632.763
 982  2633.349
 983  2486.983
 984  2369.045
 985  2360.3
 986  2001.397
 987  1763.881
 988  1537.224
 989  1502.811
 990  1527.699
 991  1574.61
 992  1710.748
 993  1964.966
 994  2228.091
 995  2494.934
 996  2530.518
 997  2498.335
 998  2505.949
 999  2273.909
1000  2148.66
1001  1917.789
1002  1768.512
1003  1515.262
1004  1270.618
1005  1162.951
1006  1097.812
1007  1182.412
1008  1288.854
1009  1511.267
1010  1801.144
1011  1971.027
1012  2038.046
1013  2331.324
1014  2223.138
1015  2407.913
1016  2312.037
1017  2352.217
1018  2179.973
1019  1811.769
1020  1692.926
1021  1499.562
1022  1485.297
1023  1527.779
