# Input file       =  1205137482.115043_cleaned.dat
# Candidate        =  PSR_0332+5434
# Telescope        =  AR
# Epoch_topo       =  58192.350707350037
# Epoch_bary       =  N/A
# T_sample         =  0.002
# Data Folded      =  7208960
# Data Avg         =  0.660582986675117
# Data StdDev      =  6.47246073083578 
# Profile Bins     =  512
# Profile Avg      =  9301.03045906291 
# Profile StdDev   =  768.016855676966 
# Reduced chi-sqr  =  3.322
# Prob(Noise)      <  3.69e-127   (~24.0 sigma)
# P_topo (ms)      =  714.577470476232  +/- 1.74e-05
# P'_topo (s/s)    =  -0                +/- 9.35e-12
# P''_topo (s/s^2) =  0                 +/- 4.2e-15
# P_bary (ms)      =  N/A
# P'_bary (s/s)    =  N/A
# P''_bary (s/s^2) =  N/A
# P_orb (s)        =  N/A
# asin(i)/c (s)    =  N/A
# eccentricity     =  N/A
# w (rad)          =  N/A
# T_peri           =  N/A
######################################################
   0  8319.252
   1  7896.56
   2  8471.75
   3  9545.455
   4  10521.89
   5  10626.73
   6  9449.538
   7  9044.317
   8  9109.709
   9  9687.298
  10  9879.003
  11  10633.99
  12  11693.68
  13  11250.66
  14  10445.21
  15  9573.562
  16  9100.307
  17  8960.21
  18  8549.987
  19  8749.133
  20  9378.737
  21  9851.102
  22  9138.86
  23  8647.215
  24  8354.65
  25  8875.954
  26  8625.751
  27  9232.408
  28  10421.31
  29  10865.82
  30  11146.16
  31  10247.13
  32  9607.096
  33  9533.892
  34  9278.793
  35  8914.72
  36  9688.475
  37  10506.3
  38  9726.877
  39  8887.518
  40  8000.801
  41  8091.706
  42  8391.998
  43  8729.785
  44  9880.433
  45  10749.7
  46  11175.32
  47  10094.02
  48  9384.29
  49  9307.489
  50  9014.265
  51  9160.135
  52  9193.678
  53  9921.521
  54  9929.878
  55  9049.397
  56  8201.491
  57  8088.914
  58  8534.851
  59  8285.738
  60  9093.194
  61  10752.34
  62  11550.02
  63  10883.08
  64  10294.58
  65  9445.132
  66  8700.117
  67  8575.969
  68  8560.732
  69  8920.793
  70  9985.063
  71  10043.66
  72  9412.425
  73  8530.193
  74  8407.674
  75  8307.419
  76  8858.884
  77  9948.703
  78  11206.9
  79  11950.13
  80  10674.88
  81  9815.732
  82  9309.395
  83  8772.634
  84  9087.129
  85  9207.278
  86  9940.11
  87  10125.08
  88  9287.769
  89  8333.616
  90  8146.818
  91  8381.367
  92  8647.342
  93  9756.942
  94  10765.81
  95  11522.33
  96  10977.53
  97  10109.87
  98  9293.699
  99  8975.37
 100  8888.555
 101  8513.72
 102  8742.262
 103  9593.732
 104  9591.579
 105  8577.246
 106  7659.382
 107  8094.749
 108  8257.078
 109  8312.909
 110  9445.359
 111  10767.47
 112  10861.29
 113  10475.39
 114  9817.047
 115  8800.507
 116  8652.105
 117  8569.253
 118  8528.764
 119  8921.903
 120  9388.377
 121  9022.564
 122  8384.825
 123  8018.904
 124  8102.693
 125  8480.937
 126  8847.883
 127  10073.86
 128  11183.86
 129  10940.01
 130  10119.57
 131  9150.926
 132  8723.42
 133  7946.815
 134  7824.249
 135  8902.319
 136  9574.407
 137  9626.042
 138  8729.676
 139  8183.779
 140  8173.922
 141  8349.445
 142  8415.24
 143  9359.65
 144  10369.73
 145  10690.96
 146  10381.86
 147  9764.653
 148  8852.808
 149  8848.044
 150  9019.213
 151  8606.86
 152  9463.487
 153  9800.922
 154  9408.796
 155  8534.977
 156  7709.202
 157  7890.151
 158  8309.807
 159  9087.114
 160  10703.3
 161  11154.95
 162  10895.42
 163  9817.235
 164  8849.548
 165  8607.533
 166  8572.971
 167  8578.438
 168  8615.676
 169  9398.06
 170  9435.578
 171  8558.733
 172  7502.87
 173  7376.297
 174  7829.97
 175  8081.285
 176  9010.491
 177  10357.99
 178  10618.45
 179  10069.48
 180  9021.08
 181  8596.361
 182  8556.229
 183  8385.271
 184  8339.186
 185  8872.106
 186  9040.264
 187  8626.182
 188  7786.303
 189  7398.12
 190  8155.349
 191  8394.399
 192  8678.452
 193  9947.153
 194  10937.14
 195  10555.84
 196  9206.978
 197  9076.747
 198  8699.826
 199  8576.721
 200  8242.82
 201  8224.178
 202  9069.604
 203  9461.775
 204  8799.31
 205  7847.689
 206  7945.947
 207  8055.625
 208  7748.884
 209  9064.235
 210  10386.11
 211  11038.69
 212  10953.54
 213  10156.15
 214  9277.619
 215  8730.194
 216  8338.153
 217  7930.821
 218  9007.562
 219  9942.069
 220  9617.392
 221  8552.368
 222  7757.501
 223  7953.967
 224  8363.617
 225  9211.329
 226  10674.44
 227  11335.65
 228  11115.3
 229  10357.93
 230  9316.565
 231  9114.191
 232  8885.181
 233  8687.292
 234  8883.536
 235  9366.019
 236  9467.158
 237  8841.462
 238  8355.952
 239  8252.744
 240  8688.982
 241  9052.966
 242  9625.678
 243  10908.25
 244  11405.6
 245  11059.69
 246  10307.97
 247  9507.354
 248  8804.692
 249  8648.771
 250  8482.433
 251  9486.535
 252  9767.894
 253  9490.919
 254  8590.405
 255  7462.46
 256  7952.731
 257  8600.3
 258  9184.241
 259  10215.38
 260  11031.83
 261  11292.29
 262  10274.21
 263  9254.808
 264  8788.528
 265  8874.332
 266  8580.033
 267  8615.666
 268  9391.229
 269  9580.914
 270  8574.403
 271  8084.734
 272  7937.868
 273  7988.195
 274  8216.651
 275  9532.491
 276  10300.04
 277  10704.89
 278  10384.03
 279  9216.034
 280  8835.434
 281  8571.326
 282  8378.756
 283  8050.288
 284  8562.067
 285  9411.609
 286  8826.699
 287  7882.505
 288  7540.94
 289  7503.427
 290  7119.06
 291  8031.846
 292  9394.034
 293  10552.19
 294  10780.65
 295  9907.464
 296  8934.007
 297  8402.485
 298  8309.661
 299  7887.688
 300  8437.604
 301  9366.236
 302  9599.822
 303  8647.824
 304  7763.921
 305  7458.194
 306  7271.751
 307  7890.117
 308  9165.211
 309  10485.26
 310  11246.31
 311  10681.35
 312  9670.134
 313  8679.238
 314  8703.715
 315  8454.034
 316  8497.396
 317  9248.896
 318  9421.661
 319  8945.595
 320  7862.827
 321  7316.737
 322  7367.465
 323  7953.859
 324  8548.441
 325  9494.791
 326  10785.3
 327  10948.56
 328  10236.26
 329  8899.214
 330  9019.929
 331  8709.686
 332  8109.637
 333  8200.261
 334  9143.724
 335  9476.722
 336  9052.726
 337  8404.578
 338  8243.018
 339  7914.402
 340  8478.754
 341  9318.35
 342  10857.82
 343  11197.53
 344  10914.95
 345  9299.591
 346  8413.734
 347  8772.72
 348  8495.464
 349  8438.015
 350  9213.62
 351  9600.26
 352  9270.324
 353  8693.903
 354  8093.61
 355  7966.03
 356  8429.945
 357  8601.266
 358  9967.319
 359  11235.7
 360  11701.76
 361  10771.37
 362  9951.669
 363  9362.438
 364  9053.989
 365  8838.317
 366  8890.113
 367  9250.675
 368  10141.63
 369  9388.802
 370  8259.984
 371  8242.649
 372  8539.204
 373  8243.877
 374  9426.3
 375  10777.83
 376  11746.1
 377  11209.07
 378  9608.483
 379  9317.11
 380  9310.426
 381  9237.15
 382  9129.87
 383  9456.11
 384  9851.893
 385  9540.285
 386  8585.26
 387  8037.769
 388  8312.916
 389  8513.721
 390  9106.949
 391  10127.19
 392  10766.35
 393  10836.93
 394  10281.88
 395  9563.471
 396  9151.003
 397  8907.836
 398  8586.707
 399  8187.648
 400  9199.051
 401  9584.116
 402  8729.561
 403  8067.887
 404  8249.811
 405  8333.248
 406  8893.207
 407  9446.135
 408  10437.38
 409  11179.57
 410  10545.08
 411  9583.072
 412  8928.06
 413  8764.1
 414  8671.76
 415  8465.707
 416  8811.9
 417  9538.001
 418  9093.896
 419  8078.523
 420  7756.396
 421  7742.471
 422  8251.908
 423  8760.034
 424  10208.83
 425  11340.33
 426  11520.43
 427  10747.66
 428  9480.833
 429  9003.286
 430  8612.1
 431  8620.753
 432  9042.155
 433  9654.679
 434  10204.4
 435  9850.47
 436  8830.996
 437  7702.028
 438  7962.605
 439  8321.473
 440  8746.012
 441  10688.93
 442  11627.62
 443  11552.36
 444  10303.94
 445  9615.251
 446  9846.745
 447  9641.536
 448  9028.093
 449  9234.096
 450  9861.282
 451  10192.81
 452  9526.178
 453  9345.871
 454  9228.687
 455  8866.107
 456  9174.489
 457  10439.37
 458  11548.92
 459  12119.92
 460  11260.62
 461  10402.34
 462  9778.965
 463  9718.083
 464  9472.253
 465  9969.61
 466  10571.53
 467  10709.09
 468  10237.59
 469  9081.57
 470  8802.617
 471  9364.271
 472  9362.303
 473  10294.22
 474  11090.66
 475  11489.08
 476  11241.7
 477  10482.34
 478  9737.433
 479  9813.61
 480  9777.589
 481  9037.123
 482  9244.624
 483  10032.31
 484  9894.641
 485  9130.463
 486  8076.982
 487  8213.886
 488  8559.479
 489  9218.202
 490  9953.413
 491  11115.5
 492  11279.26
 493  10741.33
 494  9851.457
 495  9378.239
 496  9152.697
 497  9248.789
 498  9293.603
 499  9866.967
 500  10192.15
 501  9507.533
 502  8603.41
 503  8345.715
 504  8043.301
 505  8805.848
 506  9663.811
 507  10844.51
 508  11677.36
 509  11710.47
 510  10408.53
 511  9306.812
