# Input file       =  1205080843.115398_cleaned.dat
# Candidate        =  PSR_0332+5434
# Telescope        =  AR
# Epoch_topo       =  58191.695163372664
# Epoch_bary       =  N/A
# T_sample         =  0.002
# Data Folded      =  7340032
# Data Avg         =  0.193731883123941
# Data StdDev      =  4.68917289449514 
# Profile Bins     =  1024
# Profile Avg      =  1388.67364042612 
# Profile StdDev   =  397.00433066941  
# Reduced chi-sqr  =  1.408
# Prob(Noise)      <  9.85e-17   (~8.2 sigma)
# P_topo (ms)      =  714.578032086114  +/- 0.000725
# P'_topo (s/s)    =  -0                +/- 3.83e-10
# P''_topo (s/s^2) =  0                 +/- 1.69e-13
# P_bary (ms)      =  N/A
# P'_bary (s/s)    =  N/A
# P''_bary (s/s^2) =  N/A
# P_orb (s)        =  N/A
# asin(i)/c (s)    =  N/A
# eccentricity     =  N/A
# w (rad)          =  N/A
# T_peri           =  N/A
######################################################
   0  1519.472
   1  1445.881
   2  1361.53
   3  1403.695
   4  1530.354
   5  1582.038
   6  1539.382
   7  1529.006
   8  1486.206
   9  1475.119
  10  1338.042
  11  1340.15
  12  1319.294
  13  1416.346
  14  1319.454
  15  1346.8
  16  1347.161
  17  1393.971
  18  1341.72
  19  1170.188
  20  1020.514
  21  1020.617
  22  1186.471
  23  1349.465
  24  1314.044
  25  1278.621
  26  1193.588
  27  1174.561
  28  1239.664
  29  1219.064
  30  1107.449
  31  1006.694
  32  1112.904
  33  1241.912
  34  1275.728
  35  1248.074
  36  1151.514
  37  1002.859
  38  942.351
  39  995.5858
  40  1037.245
  41  984.7175
  42  931.5469
  43  1123.434
  44  1307.649
  45  1208.469
  46  1129.171
  47  1196.034
  48  1241.271
  49  1180.885
  50  1198.643
  51  1200.902
  52  1192.894
  53  1221.1
  54  1230.648
  55  1311.105
  56  1252.481
  57  1409.633
  58  1544.868
  59  1515.023
  60  1481.676
  61  1455.306
  62  1403.338
  63  1468.366
  64  1402.35
  65  1541.183
  66  1489.639
  67  1630.342
  68  1516.352
  69  1395.906
  70  1400.616
  71  1333.736
  72  1363.328
  73  1390.916
  74  1554.646
  75  1533.147
  76  1416.677
  77  1380.821
  78  1465.114
  79  1493.759
  80  1497.311
  81  1341.065
  82  1470.171
  83  1455.113
  84  1479.958
  85  1456.726
  86  1415.76
  87  1315.086
  88  1258.419
  89  1234.002
  90  1178.047
  91  1177.738
  92  1206.484
  93  1316.995
  94  1335.701
  95  1309.974
  96  1269.516
  97  1432.884
  98  1525.669
  99  1554.319
 100  1460.48
 101  1359.238
 102  1268.606
 103  1493.121
 104  1663.473
 105  1554.885
 106  1431.692
 107  1513.584
 108  1552.402
 109  1597.137
 110  1573.315
 111  1512.116
 112  1455.617
 113  1350.942
 114  1311.729
 115  1208.71
 116  1178.876
 117  1284.838
 118  1356.349
 119  1300.409
 120  1198.828
 121  1211.635
 122  1228.926
 123  1225.429
 124  1301.175
 125  1366.665
 126  1187.606
 127  983.2162
 128  1077.86
 129  1169.994
 130  1287.38
 131  1135.211
 132  1154.733
 133  1104.767
 134  1231.499
 135  1294.168
 136  1279.128
 137  1286.261
 138  1219.594
 139  1242.508
 140  1298.882
 141  1223.506
 142  1243.911
 143  1215.39
 144  1235.923
 145  1138.43
 146  1038.932
 147  1112.811
 148  1196.029
 149  1176.361
 150  1262.415
 151  1308.841
 152  1399.956
 153  1251.223
 154  1259.511
 155  1248.656
 156  1303.326
 157  1378.654
 158  1398.041
 159  1400.227
 160  1387.138
 161  1515.666
 162  1511.239
 163  1483.861
 164  1385.139
 165  1359.939
 166  1255.05
 167  1218.929
 168  1236.576
 169  1225.073
 170  1154.515
 171  1148.807
 172  1151.793
 173  1189.811
 174  1191.257
 175  1341.231
 176  1311.935
 177  1237.821
 178  1152.051
 179  1088.784
 180  1077.701
 181  1144.45
 182  1216.841
 183  1189.766
 184  1155.702
 185  1121.652
 186  1066.079
 187  1177.809
 188  1219.195
 189  1180.533
 190  1065.287
 191  1091.115
 192  1056.724
 193  1008.746
 194  977.0236
 195  1028.369
 196  991.9267
 197  861.9115
 198  951.5598
 199  954.7026
 200  928.3527
 201  795.9401
 202  870.462
 203  912.0454
 204  971.8936
 205  1072.568
 206  1193.84
 207  1298.933
 208  1294.663
 209  1157.519
 210  1061.78
 211  922.3213
 212  953.5087
 213  977.7781
 214  957.8893
 215  950.8006
 216  800.8368
 217  788.0508
 218  758.7062
 219  950.9874
 220  1132.118
 221  1039.495
 222  988.5558
 223  1100.583
 224  1195.412
 225  1212.208
 226  1142.749
 227  1108.474
 228  1083.833
 229  1136.12
 230  1226.518
 231  1268.36
 232  1267.688
 233  1254.225
 234  1171.723
 235  1204.286
 236  1085.051
 237  1130.848
 238  1178.152
 239  1298.859
 240  1415.447
 241  1428.844
 242  1285.635
 243  1211.715
 244  1162.048
 245  1266.128
 246  1334.799
 247  1307.543
 248  1154.783
 249  1167.103
 250  1229.697
 251  1238.229
 252  1093.675
 253  959.6761
 254  1050.025
 255  1280.061
 256  1421.83
 257  1322.542
 258  1189.765
 259  1100.012
 260  1046.478
 261  1133.081
 262  1329.631
 263  1247.558
 264  1102.833
 265  1012.293
 266  1106.839
 267  1246.842
 268  1294.771
 269  1246.75
 270  1271.021
 271  1289.558
 272  1359.196
 273  1210.562
 274  1193.953
 275  1210.809
 276  1312.781
 277  1490.845
 278  1517.701
 279  1488.197
 280  1390.439
 281  1393.284
 282  1418.73
 283  1307.95
 284  1228.795
 285  1349.275
 286  1344.141
 287  1377.776
 288  1360.957
 289  1373.821
 290  1305.533
 291  1195.756
 292  1195.156
 293  1377.574
 294  1557.966
 295  1475.986
 296  1262.507
 297  1279.157
 298  1214.898
 299  1332.651
 300  1285.529
 301  1236.069
 302  1189.982
 303  1186.722
 304  1256.761
 305  1385.525
 306  1344.275
 307  1236.71
 308  1142.093
 309  1204.967
 310  1268.023
 311  1220.577
 312  1309.435
 313  1284.817
 314  1213.127
 315  1278.099
 316  1338.699
 317  1333.549
 318  1215.204
 319  1200.853
 320  1223.443
 321  1254.537
 322  1291.403
 323  1245.278
 324  1241.025
 325  1201.962
 326  1304.605
 327  1409.087
 328  1497.209
 329  1420.232
 330  1203.39
 331  1048.772
 332  941.3467
 333  992.0752
 334  1019.919
 335  1033.635
 336  1156.413
 337  1423.26
 338  1455.227
 339  1412.596
 340  1320.769
 341  1203.296
 342  1051.101
 343  894.1429
 344  990.926
 345  1141.329
 346  1262.589
 347  1144.367
 348  965.662
 349  965.1721
 350  1134.801
 351  1239.497
 352  1155.494
 353  1251.275
 354  1320.462
 355  1401.091
 356  1251.696
 357  1316.612
 358  1278.366
 359  1214.222
 360  1005.305
 361  1003.227
 362  1021.982
 363  1106.567
 364  1050.394
 365  1009.935
 366  1101.217
 367  1154.599
 368  1121.366
 369  1057.781
 370  1103.237
 371  1146.932
 372  1195.456
 373  1069.901
 374  1216.162
 375  1180.681
 376  1141.441
 377  1054.723
 378  1070.633
 379  1100.214
 380  1079.031
 381  1180.654
 382  1290.447
 383  1282.811
 384  1113.415
 385  1038.124
 386  1018.446
 387  1130.679
 388  1188.712
 389  1263.633
 390  1299.515
 391  1243.24
 392  1211.666
 393  1075.896
 394  1000.192
 395  972.8749
 396  1095.523
 397  1006.116
 398  1000.808
 399  954.9274
 400  1086.925
 401  1070.621
 402  1038.186
 403  1004.428
 404  987.3306
 405  1010.846
 406  925.812
 407  956.9457
 408  1011.298
 409  1133.531
 410  1199.655
 411  1167.443
 412  1001.294
 413  920.2925
 414  902.6144
 415  846.4826
 416  820.5013
 417  880.0763
 418  887.5465
 419  921.0635
 420  962.1567
 421  1072.333
 422  1203.453
 423  1297.009
 424  1277.271
 425  1224.019
 426  1154.697
 427  1012.233
 428  986.2689
 429  1006.594
 430  1116.403
 431  1182.775
 432  1217.545
 433  1196.269
 434  1248.909
 435  1300.507
 436  1215.76
 437  1151.91
 438  1311.9
 439  1362.27
 440  1314.801
 441  1162.177
 442  1133.908
 443  1211.921
 444  1312.854
 445  1352.642
 446  1282.424
 447  1263.931
 448  1273.776
 449  1274.499
 450  1294.553
 451  1270.302
 452  1235.13
 453  1169.466
 454  1116.18
 455  1329.337
 456  1404.117
 457  1326.724
 458  1167.311
 459  1121.032
 460  1076.07
 461  1087.27
 462  1109.04
 463  1201.923
 464  1297.995
 465  1199.953
 466  1110.479
 467  1262.421
 468  1447.026
 469  1408.911
 470  1271.484
 471  1302.924
 472  1326.504
 473  1308.831
 474  1234.823
 475  1232.306
 476  1169.528
 477  1199.846
 478  1125.417
 479  1166.696
 480  1035.218
 481  1134.984
 482  1261.68
 483  1506.85
 484  1454.924
 485  1532.843
 486  1685.591
 487  1815.59
 488  1648.506
 489  1512.445
 490  1574.119
 491  1506.033
 492  1489.702
 493  1439.267
 494  1462.187
 495  1521.966
 496  1563.358
 497  1603.54
 498  1517.159
 499  1454.655
 500  1499.397
 501  1577.671
 502  1529.287
 503  1538.744
 504  1586.949
 505  1722.929
 506  1791.06
 507  1645.765
 508  1628.083
 509  1579.47
 510  1665.399
 511  1564.937
 512  1516.292
 513  1472.251
 514  1594.582
 515  1636.515
 516  1648.107
 517  1668.364
 518  1772.049
 519  1753.948
 520  1611.403
 521  1560.884
 522  1573.99
 523  1584.502
 524  1641.152
 525  1706.33
 526  1700.628
 527  1651.14
 528  1546.883
 529  1570.491
 530  1602.264
 531  1546.897
 532  1669.496
 533  1805.752
 534  1832.555
 535  1738.348
 536  1771.372
 537  1827.321
 538  1831.885
 539  1782.58
 540  1775.993
 541  1700.602
 542  1650.885
 543  1541.351
 544  1432.797
 545  1485.247
 546  1608.83
 547  1708.618
 548  1664.509
 549  1536.838
 550  1439.547
 551  1502.201
 552  1582.742
 553  1716.227
 554  1776.698
 555  1707.046
 556  1564.823
 557  1599.441
 558  1540.107
 559  1527.583
 560  1567.267
 561  1621.591
 562  1595.446
 563  1619.179
 564  1683.742
 565  1615.184
 566  1575.615
 567  1535.098
 568  1469.644
 569  1521.78
 570  1521.067
 571  1589.756
 572  1570.317
 573  1568.308
 574  1479.644
 575  1489.668
 576  1392.365
 577  1409.396
 578  1390.071
 579  1425.101
 580  1440.862
 581  1512.012
 582  1529.26
 583  1484.556
 584  1377.387
 585  1298.971
 586  1375.1
 587  1389.297
 588  1416.583
 589  1483.304
 590  1693.326
 591  1829.546
 592  1918.36
 593  2008.657
 594  1916.103
 595  1837.646
 596  1861.008
 597  2039.777
 598  2241.703
 599  2162.919
 600  2090.251
 601  2128.718
 602  2308.16
 603  2523.04
 604  2685.734
 605  2733.667
 606  2593.876
 607  2612.891
 608  2839.335
 609  2891.506
 610  2710.13
 611  2510.984
 612  2330.822
 613  2292.054
 614  2077.397
 615  1894.58
 616  1809.883
 617  1782.787
 618  1741.269
 619  1656.943
 620  1580.08
 621  1410.855
 622  1384.938
 623  1493.912
 624  1549.384
 625  1474.851
 626  1577.401
 627  1773.529
 628  1982.406
 629  1870.072
 630  1763.654
 631  1794.853
 632  1924.282
 633  1807.132
 634  1879.557
 635  1815.504
 636  1800.168
 637  1651.8
 638  1658.683
 639  1638.816
 640  1626.714
 641  1518.894
 642  1480.466
 643  1402.729
 644  1383.881
 645  1318.822
 646  1360.199
 647  1250.977
 648  1358.785
 649  1492.474
 650  1738.493
 651  1730.245
 652  1577.727
 653  1446.781
 654  1464.813
 655  1583.409
 656  1699.469
 657  1623.786
 658  1586.543
 659  1524.881
 660  1543.415
 661  1544.208
 662  1536.484
 663  1505.18
 664  1443.321
 665  1373.128
 666  1302.611
 667  1314.593
 668  1310.223
 669  1374.694
 670  1387.922
 671  1455.939
 672  1351.095
 673  1467.33
 674  1495.475
 675  1536.41
 676  1484.972
 677  1499.83
 678  1638.213
 679  1612.237
 680  1417.806
 681  1193.451
 682  1200.57
 683  1246.632
 684  1302.959
 685  1245.734
 686  1287.308
 687  1355.374
 688  1475.949
 689  1511.52
 690  1527.016
 691  1626.165
 692  1623.961
 693  1598.203
 694  1512.753
 695  1538.409
 696  1437.802
 697  1374.786
 698  1428.774
 699  1430.959
 700  1474.574
 701  1453.041
 702  1480.085
 703  1557.912
 704  1563.368
 705  1555.454
 706  1496.78
 707  1554.346
 708  1420.948
 709  1405.618
 710  1370.301
 711  1464.818
 712  1552.122
 713  1656.231
 714  1672.294
 715  1616.942
 716  1575.123
 717  1564.962
 718  1681.991
 719  1752.041
 720  1680.862
 721  1590.745
 722  1537.349
 723  1573.538
 724  1627.693
 725  1581.874
 726  1425.002
 727  1425.364
 728  1544.622
 729  1650.4
 730  1616.714
 731  1530.102
 732  1558.033
 733  1750.372
 734  1796.97
 735  1720.074
 736  1626.43
 737  1697.589
 738  1680.557
 739  1604.66
 740  1643.748
 741  1606.882
 742  1672.615
 743  1654.822
 744  1805.914
 745  1874.446
 746  1924.077
 747  1773.632
 748  1710.41
 749  1655.129
 750  1617.175
 751  1707.683
 752  1611.209
 753  1580.307
 754  1580.228
 755  1576.161
 756  1618.35
 757  1648.869
 758  1738.849
 759  1694.955
 760  1756.697
 761  1791.06
 762  1717.467
 763  1640.36
 764  1626.584
 765  1624.41
 766  1507.883
 767  1498.779
 768  1485.1
 769  1489.596
 770  1428.411
 771  1580.26
 772  1690.768
 773  1717.452
 774  1741.146
 775  1691.036
 776  1727.568
 777  1547.453
 778  1534.805
 779  1582.809
 780  1673.803
 781  1760.319
 782  1643.219
 783  1573.713
 784  1507.399
 785  1507.5
 786  1500.346
 787  1492.335
 788  1427.792
 789  1449.091
 790  1519.71
 791  1532.882
 792  1523.802
 793  1573.612
 794  1535.74
 795  1542.623
 796  1441.259
 797  1440.74
 798  1502.435
 799  1506.439
 800  1506.915
 801  1489.535
 802  1621.934
 803  1530.679
 804  1508.85
 805  1445.253
 806  1427.891
 807  1378.614
 808  1346.229
 809  1358.503
 810  1370.601
 811  1453.364
 812  1492.843
 813  1508.309
 814  1453.062
 815  1394.829
 816  1402.15
 817  1418.202
 818  1460.489
 819  1469.094
 820  1511.811
 821  1519.255
 822  1436.681
 823  1311.596
 824  1274.414
 825  1350.494
 826  1388.127
 827  1338.511
 828  1259.785
 829  1339.004
 830  1341.723
 831  1477.744
 832  1554.308
 833  1464.293
 834  1310.698
 835  1349.921
 836  1403.151
 837  1348.432
 838  1284.353
 839  1292.619
 840  1233.681
 841  1272.142
 842  1320.807
 843  1388.055
 844  1289.671
 845  1298.95
 846  1288.887
 847  1400.711
 848  1505.861
 849  1585.087
 850  1483.334
 851  1448.165
 852  1418.453
 853  1341.364
 854  1370.181
 855  1345.304
 856  1523.711
 857  1533.395
 858  1564.534
 859  1552.016
 860  1518.889
 861  1532.594
 862  1503.214
 863  1529.688
 864  1542.74
 865  1435.382
 866  1350.207
 867  1216.941
 868  1272.17
 869  1275.321
 870  1343.26
 871  1302.59
 872  1324.37
 873  1345.672
 874  1422.781
 875  1363.533
 876  1421.996
 877  1373.677
 878  1384.063
 879  1300.104
 880  1222.968
 881  1122.408
 882  1088.616
 883  1072.908
 884  990.6546
 885  1046.895
 886  1040.364
 887  935.0807
 888  947.5222
 889  1021.93
 890  1097.829
 891  1058.548
 892  1118.625
 893  1233.695
 894  1372.336
 895  1365.993
 896  1511.022
 897  1563.862
 898  1557.601
 899  1362.943
 900  1409.177
 901  1378.457
 902  1251.568
 903  1200.903
 904  1216.997
 905  1263.448
 906  1275.478
 907  1267.113
 908  1309.349
 909  1280.324
 910  1428.913
 911  1347.618
 912  1314.16
 913  1248.493
 914  1271.969
 915  1404.435
 916  1469.347
 917  1468.202
 918  1444.169
 919  1557.837
 920  1471.613
 921  1348.841
 922  1308.712
 923  1295.599
 924  1319.213
 925  1239.649
 926  1309.867
 927  1479.569
 928  1603.317
 929  1639.663
 930  1626.101
 931  1545.037
 932  1484.408
 933  1411.399
 934  1516.381
 935  1592.088
 936  1522.638
 937  1386.113
 938  1354.19
 939  1389.587
 940  1513.319
 941  1454.122
 942  1432.109
 943  1440.906
 944  1573.791
 945  1643.135
 946  1577.737
 947  1598.083
 948  1690.768
 949  1754.462
 950  1721.513
 951  1594.641
 952  1522.548
 953  1604.422
 954  1859.798
 955  1875.136
 956  1874.142
 957  1751.647
 958  1730.55
 959  1673.805
 960  1565.88
 961  1577.868
 962  1594.677
 963  1574.482
 964  1372.825
 965  1282.414
 966  1329.071
 967  1314.195
 968  1374.075
 969  1575.174
 970  1580.773
 971  1472.64
 972  1544.993
 973  1529.538
 974  1362.816
 975  1208.152
 976  1272.84
 977  1345.689
 978  1241.266
 979  1081.415
 980  1049.523
 981  1106.168
 982  1057.668
 983  1134.007
 984  1337.948
 985  1458.836
 986  1349.14
 987  1333.564
 988  1354.724
 989  1335.728
 990  1341.084
 991  1299.788
 992  1289.51
 993  1210.487
 994  1298.286
 995  1409.349
 996  1626.58
 997  1631.18
 998  1496.909
 999  1405.153
1000  1423.562
1001  1487.532
1002  1422.313
1003  1498.388
1004  1561.967
1005  1530.395
1006  1580.473
1007  1587.657
1008  1640.215
1009  1403.094
1010  1409.431
1011  1398.384
1012  1493.247
1013  1434.299
1014  1430.105
1015  1485.228
1016  1568.604
1017  1559.36
1018  1520.919
1019  1528.817
1020  1554.96
1021  1521.531
1022  1460.557
1023  1494.641
