# Input file       =  1205498225.096636_cleaned.dat
# Candidate        =  PSR_0332+5434
# Telescope        =  AR
# Epoch_topo       =  58196.525973340693
# Epoch_bary       =  N/A
# T_sample         =  0.002
# Data Folded      =  7340032
# Data Avg         =  0.0663541581813663
# Data StdDev      =  1.00010111943334 
# Profile Bins     =  512
# Profile Avg      =  951.254122911745 
# Profile StdDev   =  119.745143713557 
# Reduced chi-sqr  =  1.784
# Prob(Noise)      <  5.2e-25   (~10.3 sigma)
# P_topo (ms)      =  714.575948933824  +/- 0.00091
# P'_topo (s/s)    =  -0                +/- 4.8e-10
# P''_topo (s/s^2) =  0                 +/- 2.12e-13
# P_bary (ms)      =  N/A
# P'_bary (s/s)    =  N/A
# P''_bary (s/s^2) =  N/A
# P_orb (s)        =  N/A
# asin(i)/c (s)    =  N/A
# eccentricity     =  N/A
# w (rad)          =  N/A
# T_peri           =  N/A
######################################################
   0  1382.944
   1  1272.089
   2  1032.869
   3  881.7881
   4  763.5529
   5  755.5618
   6  788.301
   7  798.6294
   8  819.7718
   9  812.0204
  10  765.0974
  11  797.688
  12  881.7987
  13  861.8937
  14  794.9017
  15  798.3366
  16  938.5101
  17  939.4784
  18  924.0833
  19  943.0038
  20  924.8992
  21  917.4045
  22  872.5957
  23  971.6678
  24  962.33
  25  887.2156
  26  862.0031
  27  938.5215
  28  925.4855
  29  862.5709
  30  882.6816
  31  870.2904
  32  809.2222
  33  849.5021
  34  863.4317
  35  859.0294
  36  892.5518
  37  872.2018
  38  918.2168
  39  844.0992
  40  801.6284
  41  883.4666
  42  917.1924
  43  815.1473
  44  852.6384
  45  903.9403
  46  890.4778
  47  897.6384
  48  828.3205
  49  844.3787
  50  916.1219
  51  858.4475
  52  910.1273
  53  972.9615
  54  982.3748
  55  858.8406
  56  902.0887
  57  926.4129
  58  1010.207
  59  1006.897
  60  940.4937
  61  966.7017
  62  824.9517
  63  792.4246
  64  971.7179
  65  928.0493
  66  920.1114
  67  826.2368
  68  834.9026
  69  901.7806
  70  920.8732
  71  992.1096
  72  839.5536
  73  812.4402
  74  814.595
  75  848.564
  76  917.221
  77  961.6549
  78  862.6266
  79  822.1304
  80  921.686
  81  868.2102
  82  869.3306
  83  916.3967
  84  916.3638
  85  920.7463
  86  912.9564
  87  916.9342
  88  916.5786
  89  927.1853
  90  933.1108
  91  898.1572
  92  957.0165
  93  921.2219
  94  890.1566
  95  896.3815
  96  894.8157
  97  909.6724
  98  923.1049
  99  970.9948
 100  951.5237
 101  1016.994
 102  1005.848
 103  916.5005
 104  1022.754
 105  1117.989
 106  1093.79
 107  1024.675
 108  1057.3
 109  1215.008
 110  1105.87
 111  1050.318
 112  1061.951
 113  1093.708
 114  1059.326
 115  1026.621
 116  1054.894
 117  1069.083
 118  1089.099
 119  1022.746
 120  979.677
 121  1134.794
 122  1079.221
 123  1104.63
 124  1155.535
 125  1157.422
 126  1076.993
 127  1078.262
 128  1118.575
 129  1111.196
 130  1033.549
 131  1106.807
 132  1058.898
 133  1071.233
 134  1103.194
 135  1123.839
 136  1092.312
 137  1051.676
 138  1054.718
 139  1081.388
 140  1159.796
 141  1119.67
 142  1018.526
 143  1015.184
 144  1022.15
 145  1068.296
 146  1074.656
 147  1131.927
 148  1094.608
 149  1060.002
 150  1123.242
 151  1163.853
 152  1177.862
 153  1190.665
 154  1029.356
 155  968.1199
 156  1137.375
 157  1159.544
 158  1060.787
 159  1110.638
 160  1163.573
 161  1185.442
 162  1070.543
 163  1094.675
 164  1053.163
 165  1118.15
 166  1098.101
 167  1044.758
 168  995.5308
 169  1087.831
 170  1190.421
 171  1152.21
 172  1218.056
 173  1186.466
 174  1205.527
 175  1176.089
 176  1075.652
 177  1058.613
 178  1068.022
 179  1034.839
 180  1015.138
 181  1048.28
 182  1183.16
 183  1196.851
 184  1156.462
 185  1111.445
 186  1114.285
 187  1135.919
 188  1136.618
 189  1129.356
 190  1131.573
 191  1117.877
 192  1135.037
 193  1154.797
 194  1221.004
 195  1189.311
 196  1111.2
 197  1073.731
 198  1116.95
 199  1072.287
 200  1056.9
 201  1101.189
 202  1100.471
 203  1105.505
 204  1041.063
 205  986.0796
 206  1044.88
 207  1138.92
 208  1159.102
 209  1086.482
 210  1176.241
 211  1080.872
 212  1063.016
 213  1119.283
 214  1114.718
 215  1149.36
 216  1069.913
 217  1095.946
 218  1160.324
 219  1099.357
 220  1006.745
 221  962.6566
 222  989.3182
 223  994.3996
 224  898.0392
 225  997.7703
 226  968.0146
 227  980.4446
 228  977.3105
 229  900.9307
 230  846.2132
 231  859.8262
 232  953.4987
 233  959.061
 234  931.8008
 235  912.4083
 236  960.4455
 237  966.1801
 238  896.9048
 239  965.9257
 240  1033.87
 241  1049.62
 242  1034.701
 243  924.6263
 244  977.3398
 245  961.2028
 246  931.9902
 247  940.1239
 248  1045.797
 249  1060.48
 250  983.3162
 251  929.8223
 252  997.7069
 253  955.7409
 254  910.967
 255  953.1443
 256  989.2932
 257  1007.545
 258  1016.06
 259  934.8832
 260  861.9659
 261  901.3253
 262  886.5153
 263  898.4604
 264  973.1975
 265  966.5425
 266  988.4148
 267  1032.423
 268  946.3301
 269  960.9086
 270  939.2874
 271  890.1388
 272  854.778
 273  1047.154
 274  1068.152
 275  959.782
 276  977.3992
 277  986.5751
 278  1078.49
 279  964.8425
 280  878.1456
 281  1009.605
 282  984.9643
 283  954.3291
 284  986.0912
 285  958.7285
 286  913.4307
 287  853.2162
 288  914.2413
 289  930.8463
 290  879.9473
 291  937.1439
 292  950.4186
 293  874.9528
 294  926.679
 295  927.9165
 296  838.2372
 297  763.205
 298  711.3502
 299  782.1888
 300  815.6126
 301  871.4408
 302  858.7833
 303  805.7118
 304  852.0964
 305  905.0922
 306  955.8189
 307  921.4054
 308  867.7855
 309  930.4714
 310  998.2342
 311  971.4999
 312  949.4481
 313  958.8656
 314  994.098
 315  1003.176
 316  1046.53
 317  985.8417
 318  969.5423
 319  1087.926
 320  1035.481
 321  999.4621
 322  1009.267
 323  1055.938
 324  1083.299
 325  1012.647
 326  983.4445
 327  950.4496
 328  976.4917
 329  973.7109
 330  1026.347
 331  1025.537
 332  1066.277
 333  1096.656
 334  979.1987
 335  990.8384
 336  994.5325
 337  980.236
 338  1013.936
 339  1028.844
 340  1066.535
 341  1019.211
 342  1013.61
 343  1034.593
 344  1034.895
 345  993.1896
 346  1049.774
 347  1080.051
 348  1017.363
 349  1006.272
 350  1077.569
 351  1011.668
 352  912.327
 353  1011.95
 354  1011.202
 355  984.563
 356  926.3157
 357  918.5358
 358  969.7275
 359  963.3984
 360  890.0186
 361  812.3056
 362  791.1444
 363  910.3753
 364  932.6344
 365  892.1717
 366  848.2524
 367  829.0988
 368  776.405
 369  738.4186
 370  799.9332
 371  863.9068
 372  803.9456
 373  745.263
 374  694.7653
 375  764.8088
 376  805.8747
 377  739.5573
 378  704.5224
 379  705.2184
 380  710.048
 381  710.7806
 382  713.6608
 383  728.1531
 384  722.5874
 385  718.7827
 386  678.2302
 387  707.7275
 388  719.1661
 389  637.0996
 390  757.9822
 391  737.0331
 392  680.6744
 393  682.3188
 394  751.6982
 395  779.8824
 396  831.9099
 397  805.4962
 398  776.9958
 399  720.3309
 400  766.5634
 401  784.9074
 402  831.2194
 403  872.306
 404  877.6885
 405  864.9846
 406  905.8217
 407  900.6212
 408  823.1645
 409  838.6177
 410  865.7111
 411  884.2188
 412  863.157
 413  876.7831
 414  895.5339
 415  836.3479
 416  838.4696
 417  870.0287
 418  891.5939
 419  978.833
 420  927.977
 421  902.2524
 422  1023.02
 423  990.5682
 424  890.0344
 425  881.4641
 426  959.9777
 427  949.6508
 428  914.2359
 429  866.7313
 430  906.7772
 431  923.9858
 432  950.3817
 433  887.3246
 434  907.0457
 435  944.1159
 436  883.2048
 437  916.2919
 438  903.4033
 439  956.0037
 440  855.4169
 441  924.3384
 442  933.6365
 443  969.0671
 444  922.0945
 445  801.032
 446  791.6874
 447  943.735
 448  983.0673
 449  920.5338
 450  929.7397
 451  906.5587
 452  852.602
 453  888.7749
 454  792.318
 455  868.938
 456  857.1416
 457  855.8864
 458  919.8137
 459  930.3558
 460  926.1036
 461  847.8495
 462  856.4575
 463  927.2306
 464  901.2007
 465  908.5411
 466  938.8085
 467  884.9431
 468  937.6488
 469  869.9667
 470  844.5177
 471  926.4801
 472  963.6844
 473  944.6616
 474  917.9164
 475  958.1174
 476  891.0543
 477  865.3094
 478  906.5019
 479  920.1181
 480  858.6266
 481  867.7757
 482  890.2957
 483  855.4736
 484  826.4468
 485  822.9103
 486  840.3859
 487  893.9131
 488  884.9771
 489  856.1983
 490  839.0117
 491  847.5847
 492  940.1771
 493  915.8646
 494  911.8059
 495  845.8024
 496  924.3037
 497  937.1375
 498  871.4218
 499  815.2517
 500  939.6716
 501  879.8542
 502  850.8326
 503  889.1082
 504  847.806
 505  860.2117
 506  847.0352
 507  853.5218
 508  918.8317
 509  948.0522
 510  1119.076
 511  1237.089
