# Input file       =  1205583670.095333_cleaned.dat
# Candidate        =  PSR_0332+5434
# Telescope        =  AR
# Epoch_topo       =  58197.514920084875
# Epoch_bary       =  N/A
# T_sample         =  0.002
# Data Folded      =  7340032
# Data Avg         =  0.506582088217588
# Data StdDev      =  5.92922262971017 
# Profile Bins     =  512
# Profile Avg      =  7262.61806376986 
# Profile StdDev   =  709.923828809033 
# Reduced chi-sqr  =  1.035
# Prob(Noise)      <  0.285   (~0.6 sigma)
# P_topo (ms)      =  714.575526513192  +/- 0.00142
# P'_topo (s/s)    =  -0                +/- 7.47e-10
# P''_topo (s/s^2) =  0                 +/- 3.3e-13
# P_bary (ms)      =  N/A
# P'_bary (s/s)    =  N/A
# P''_bary (s/s^2) =  N/A
# P_orb (s)        =  N/A
# asin(i)/c (s)    =  N/A
# eccentricity     =  N/A
# w (rad)          =  N/A
# T_peri           =  N/A
######################################################
   0  7002.037
   1  7140.893
   2  7054.34
   3  7026.863
   4  7078.895
   5  7050.891
   6  7008.414
   7  7445.906
   8  7413.862
   9  6909.82
  10  7010.59
  11  7221.686
  12  7456.024
  13  7493.539
  14  7429.922
  15  7547.614
  16  7320.804
  17  7138.209
  18  7390.412
  19  7393.974
  20  6910.652
  21  7024.954
  22  7133.281
  23  7022.948
  24  6836.341
  25  7208.813
  26  7077.004
  27  6979.052
  28  7056.656
  29  6961.276
  30  7342.032
  31  7560.501
  32  7732.19
  33  7640.057
  34  7835.648
  35  7646.604
  36  7339.795
  37  7595.486
  38  7493.978
  39  7576.137
  40  7737.693
  41  7621.308
  42  7448.931
  43  7548.623
  44  7683.867
  45  7647.347
  46  7251.916
  47  6978.43
  48  6718.043
  49  7043.364
  50  6978.71
  51  7174.494
  52  7532.736
  53  7816.52
  54  7445.224
  55  7427.521
  56  7415.04
  57  7235.899
  58  7291.766
  59  7271.427
  60  7441.263
  61  7338.463
  62  7246.458
  63  7376.563
  64  7273.423
  65  7094.264
  66  6864.906
  67  7121.09
  68  6933.829
  69  7209.004
  70  7227.153
  71  6864.774
  72  6847.659
  73  6671.571
  74  6505.037
  75  6357.131
  76  6858.55
  77  7007.701
  78  6822.426
  79  6696.341
  80  6542.239
  81  6651.605
  82  6349.225
  83  6373.412
  84  6482.78
  85  6668.506
  86  6694.727
  87  6197.476
  88  6377.829
  89  6313.507
  90  6294.859
  91  6099.704
  92  5962.573
  93  5885.46
  94  6013.425
  95  6273.489
  96  6613.676
  97  6752.587
  98  6642.83
  99  6872.522
 100  6332.693
 101  6417.518
 102  6622.396
 103  6898.804
 104  6861.283
 105  7031.312
 106  6881.129
 107  6935.092
 108  6771.365
 109  7215.475
 110  7054.172
 111  6914.831
 112  6689.166
 113  6828.101
 114  7045.383
 115  6980.872
 116  6954.309
 117  6792.515
 118  6765.584
 119  6694.083
 120  6619.231
 121  6685.196
 122  6658.704
 123  6961.193
 124  7010.007
 125  7320.021
 126  7631.295
 127  7632.918
 128  7563.104
 129  7389.321
 130  7497.163
 131  7608.695
 132  7794.308
 133  7682.348
 134  7755.625
 135  7886.972
 136  7402.465
 137  7609.344
 138  8028.763
 139  8464.735
 140  8059.812
 141  8036.957
 142  8068.469
 143  8377.915
 144  8406.715
 145  7779.456
 146  7851.564
 147  8137.804
 148  7859.685
 149  7700.784
 150  7957.959
 151  8055.984
 152  7896.916
 153  7805.446
 154  7693.873
 155  7813.604
 156  7972.12
 157  7921.831
 158  8116.42
 159  8467.414
 160  8520.721
 161  7856.214
 162  8325.902
 163  8437.518
 164  8232.426
 165  8548.678
 166  9113.253
 167  9030.459
 168  9126.588
 169  9488.192
 170  9507.662
 171  8998.793
 172  8446.993
 173  8095.018
 174  7751.672
 175  7650.443
 176  7982.932
 177  7667.964
 178  7353.66
 179  7912.369
 180  7573.79
 181  7431.76
 182  7677.714
 183  7838.398
 184  7660.092
 185  7788.247
 186  7787.814
 187  7654.376
 188  7468.842
 189  7799.96
 190  7974.012
 191  7904.329
 192  7755.416
 193  7613.499
 194  7380.925
 195  7569.117
 196  7465.125
 197  7825.158
 198  7855.25
 199  7685.501
 200  7729.561
 201  7605.694
 202  7878.98
 203  8006.175
 204  7967.08
 205  7745.246
 206  7806.385
 207  7680.839
 208  8171.015
 209  8449.443
 210  8097.175
 211  8029.159
 212  7895.229
 213  7821.614
 214  7583.488
 215  7942.486
 216  7893.917
 217  8174.415
 218  8112.127
 219  7715.1
 220  7457.755
 221  7960.089
 222  8385.48
 223  8182.442
 224  8184.392
 225  8471.94
 226  8183.173
 227  7532.093
 228  7312.211
 229  7436.575
 230  7839.169
 231  8002.993
 232  8591.555
 233  8455.974
 234  8066.945
 235  7902.854
 236  7945.505
 237  7775.03
 238  7937.476
 239  8083.138
 240  8359.282
 241  7985.949
 242  8070.551
 243  7652.614
 244  7427.812
 245  7478.426
 246  7508.903
 247  7412.738
 248  7829.666
 249  7765.158
 250  7528.432
 251  7431.437
 252  7349.767
 253  7582.234
 254  7615.27
 255  7703.497
 256  7631.379
 257  7416.825
 258  7728.583
 259  7357.763
 260  6959.095
 261  7330.141
 262  7308.188
 263  7129.899
 264  7257.558
 265  7238.429
 266  7231.916
 267  7017.614
 268  7154.504
 269  7016.132
 270  6952.344
 271  7275.389
 272  7067.595
 273  7005.213
 274  7331.797
 275  7089.48
 276  7274.18
 277  7299.321
 278  7222.626
 279  7270.195
 280  7461.931
 281  7536.857
 282  7504.338
 283  7674.798
 284  7823.62
 285  7719.862
 286  7623.173
 287  7477.746
 288  7348.895
 289  7621.121
 290  7547.583
 291  7304.278
 292  7367.945
 293  7268.483
 294  7065.757
 295  6769.808
 296  6922.46
 297  7172.462
 298  7409.378
 299  7408.42
 300  7516.001
 301  7443.25
 302  7118.716
 303  7318.957
 304  7336.69
 305  6958.059
 306  7179.491
 307  7422.842
 308  7335.02
 309  7370.648
 310  7424.48
 311  7348.178
 312  7038.408
 313  7086.513
 314  7236.865
 315  7078.729
 316  6991.462
 317  7084.798
 318  7531.279
 319  7451.854
 320  7185.997
 321  7082.069
 322  7017.387
 323  7255.619
 324  7325.165
 325  6825.017
 326  6857.421
 327  6704.05
 328  6939.143
 329  7202.495
 330  7021.115
 331  6817.742
 332  6720.467
 333  6932.921
 334  7142.315
 335  6923.097
 336  6844.423
 337  7080.754
 338  7297.283
 339  6963.494
 340  7042.846
 341  7127.054
 342  7106.452
 343  7033.055
 344  7137.616
 345  7084.659
 346  6864.571
 347  6682.372
 348  6877.33
 349  7241.208
 350  7061.566
 351  7181.42
 352  7193.213
 353  7266.395
 354  6790.683
 355  6797.808
 356  6740.071
 357  6795.469
 358  6845.01
 359  7129.78
 360  6780.034
 361  6969.022
 362  7231.903
 363  6963.002
 364  6902.448
 365  7101.429
 366  6906.768
 367  7020.042
 368  6994.018
 369  6862.292
 370  6706.191
 371  6844.528
 372  7191.403
 373  7229.555
 374  7138.469
 375  7272.759
 376  7013.849
 377  6625.424
 378  6541.256
 379  6453.813
 380  6529.153
 381  6721.891
 382  7126.762
 383  6973.631
 384  6695.675
 385  6859.795
 386  6662.496
 387  6511.636
 388  6613.349
 389  6856.991
 390  6952.097
 391  7040.873
 392  6826.712
 393  6804.606
 394  7176.763
 395  7204.06
 396  7064.578
 397  6793.735
 398  6750.36
 399  6833.13
 400  6668.726
 401  6401.637
 402  6579.164
 403  6647.375
 404  6729.067
 405  6805.163
 406  6643.637
 407  6444.55
 408  6477.92
 409  6499.593
 410  6489.705
 411  6444.19
 412  6401.412
 413  6636.155
 414  7013.769
 415  7188.543
 416  6944.557
 417  6925.588
 418  6754.301
 419  6739.411
 420  6879.788
 421  6890.096
 422  6982.711
 423  7292.539
 424  7306.41
 425  6938.769
 426  6884.733
 427  7284.016
 428  7378.82
 429  6866.635
 430  6803.175
 431  7137.418
 432  7225.662
 433  7204.421
 434  7033.29
 435  7155.302
 436  7385.004
 437  7276.992
 438  7139.674
 439  7305.786
 440  7053.841
 441  7079.535
 442  7585.82
 443  7510.57
 444  7222.767
 445  7157.265
 446  7123.337
 447  7539.466
 448  7032.554
 449  6742.282
 450  7068.438
 451  6967.528
 452  7045.721
 453  6814.349
 454  6542.543
 455  6843.869
 456  6836.478
 457  6768.855
 458  6756.204
 459  6678.262
 460  6687.042
 461  6643.65
 462  6555.148
 463  6907.764
 464  7089.684
 465  7111.345
 466  6881.596
 467  6718.907
 468  6858.01
 469  6773.565
 470  6729.861
 471  6847.401
 472  6784.481
 473  7015.489
 474  7206.578
 475  6946.716
 476  6879.697
 477  6913.752
 478  7205.858
 479  7437.928
 480  7383.572
 481  7250.611
 482  7568.151
 483  7324.015
 484  7059.759
 485  7268.933
 486  7312.875
 487  7036.281
 488  7011.001
 489  6890.796
 490  6914.741
 491  6824.993
 492  6802.406
 493  6792.488
 494  6866.326
 495  7125.213
 496  6839.246
 497  6581.609
 498  6817.151
 499  7071.423
 500  7321.437
 501  7061.007
 502  6970.29
 503  7154.604
 504  7329.139
 505  7288.663
 506  7034.964
 507  7470.284
 508  7377.824
 509  7119.159
 510  7468.171
 511  7067.44
