# Input file       =  1205498225.096636_cleaned.dat
# Candidate        =  PSR_0332+5434
# Telescope        =  AR
# Epoch_topo       =  58196.525973340693
# Epoch_bary       =  N/A
# T_sample         =  0.002
# Data Folded      =  7340032
# Data Avg         =  0.399382603521061
# Data StdDev      =  5.90135428729045 
# Profile Bins     =  512
# Profile Avg      =  5725.55075170393 
# Profile StdDev   =  706.587067552332 
# Reduced chi-sqr  =  1.952
# Prob(Noise)      <  9.89e-34   (~12.0 sigma)
# P_topo (ms)      =  714.575949835967  +/- 0.00031
# P'_topo (s/s)    =  -0                +/- 1.63e-10
# P''_topo (s/s^2) =  0                 +/- 7.22e-14
# P_bary (ms)      =  N/A
# P'_bary (s/s)    =  N/A
# P''_bary (s/s^2) =  N/A
# P_orb (s)        =  N/A
# asin(i)/c (s)    =  N/A
# eccentricity     =  N/A
# w (rad)          =  N/A
# T_peri           =  N/A
######################################################
   0  6901.069
   1  6480.8
   2  6943.295
   3  6629.515
   4  6501.561
   5  6698.199
   6  6545.188
   7  6632.369
   8  6260.956
   9  6280.959
  10  6487.592
  11  6318.84
  12  6000.4
  13  5861.759
  14  5797.431
  15  5876.098
  16  5540.688
  17  5712.894
  18  5572.028
  19  5852.518
  20  5884.895
  21  5521.927
  22  5127.837
  23  5292.483
  24  5646.155
  25  5754.132
  26  5870.493
  27  5851.053
  28  5801.727
  29  5690.321
  30  5520.318
  31  5829.051
  32  6208.649
  33  6320.288
  34  5963.911
  35  5782.057
  36  6104.2
  37  5761.856
  38  5681.464
  39  5738.362
  40  6267.797
  41  6430.646
  42  5916.079
  43  5860.673
  44  6077.327
  45  6070.69
  46  5967.649
  47  6042.345
  48  6293.348
  49  6223.873
  50  6174.222
  51  5851.965
  52  5744.566
  53  5966.18
  54  5929.709
  55  6063.429
  56  6441.028
  57  6419.956
  58  6411.715
  59  6699.521
  60  6616.375
  61  6526.709
  62  6422.696
  63  6113.702
  64  5951.094
  65  6739.831
  66  7014.675
  67  6410.094
  68  6455.735
  69  6498.105
  70  6800.37
  71  6386.883
  72  5915.865
  73  6281.567
  74  6203.229
  75  6279.411
  76  6309.92
  77  6392.295
  78  6114.984
  79  5861.126
  80  5908.342
  81  5823.296
  82  5691.45
  83  5608.473
  84  5596.536
  85  5238.3
  86  5421.135
  87  5301.154
  88  4999.412
  89  4744.662
  90  4605.088
  91  4798.949
  92  4932.481
  93  5322.737
  94  5231.94
  95  5030.589
  96  5237.322
  97  5549.055
  98  5762.8
  99  5485.902
 100  5578.232
 101  5950.164
 102  6044.7
 103  6037.616
 104  5851.855
 105  5883.837
 106  6223.097
 107  6425.026
 108  6703.826
 109  6317.907
 110  6446.057
 111  6875.847
 112  6391.693
 113  6214.344
 114  6581.126
 115  6735.675
 116  6763.918
 117  6396.854
 118  6321.392
 119  6466.404
 120  6465.552
 121  6461.863
 122  6834.979
 123  6858.008
 124  6869.33
 125  6859.858
 126  6303.62
 127  6500.353
 128  6531.773
 129  6402.205
 130  6466.49
 131  6507.76
 132  6649.21
 133  6271.144
 134  6447.881
 135  6610.691
 136  6588.985
 137  6287.474
 138  6607.247
 139  6732.189
 140  6440.766
 141  6514.829
 142  6658.368
 143  6425.643
 144  5897.499
 145  6010.698
 146  6228.047
 147  6168.785
 148  6017.23
 149  5976.087
 150  6118.58
 151  5894.504
 152  5508.059
 153  5317.549
 154  5196.888
 155  5454.296
 156  5362.796
 157  5175.819
 158  5097.069
 159  4915.663
 160  4692.562
 161  4519.679
 162  4681.717
 163  4797.268
 164  4600.223
 165  4432.034
 166  4219.337
 167  4339.644
 168  4560.989
 169  4477.098
 170  4277.153
 171  4222.823
 172  4292.254
 173  4412.325
 174  4480.131
 175  4640.836
 176  4519.263
 177  4333.941
 178  4052.165
 179  4390.349
 180  4447.557
 181  4195.573
 182  4659.333
 183  4632.562
 184  4589.784
 185  4635.618
 186  4764.832
 187  4921.923
 188  5074.386
 189  4909.15
 190  5111.525
 191  4987.348
 192  5087.854
 193  5417.985
 194  5624.202
 195  5704.08
 196  5618.887
 197  5818.836
 198  5882.053
 199  5796.267
 200  5521.828
 201  5607.569
 202  5695.47
 203  5783.964
 204  5925.75
 205  6098.358
 206  6205.137
 207  5883.836
 208  5675.028
 209  5890.942
 210  6089.831
 211  6361.471
 212  6136.859
 213  6060.82
 214  6564.913
 215  6367.499
 216  5950.295
 217  5826.255
 218  6080.421
 219  6032.735
 220  5842.755
 221  5589.649
 222  5804.317
 223  5734.435
 224  5643.001
 225  5396.107
 226  5412.448
 227  5558.53
 228  5256.028
 229  5278.09
 230  5140.939
 231  5283.052
 232  4888.401
 233  5233.061
 234  5281.226
 235  5476.07
 236  5069.882
 237  4721.54
 238  4877.723
 239  5497.803
 240  5364.505
 241  5093.777
 242  5237.667
 243  5182.789
 244  4975.645
 245  5205.764
 246  4854.709
 247  5055.321
 248  4908.444
 249  5017.839
 250  5099.622
 251  5149.398
 252  5206.621
 253  4904.483
 254  4982.664
 255  5296.086
 256  5201.387
 257  5156.167
 258  5412.837
 259  5513.256
 260  5376.913
 261  5093.331
 262  5126.291
 263  5270.012
 264  5549.089
 265  5606.29
 266  5573.997
 267  5473.177
 268  5236.347
 269  5296.703
 270  5298.789
 271  5297.618
 272  5139.319
 273  5311.103
 274  5560.072
 275  5657.1
 276  5455.385
 277  5514.917
 278  5581.693
 279  5880.351
 280  5739.514
 281  5476.91
 282  5506.123
 283  5637.916
 284  5945.689
 285  5714.605
 286  5633.417
 287  5356.2
 288  5624.77
 289  5356.313
 290  5150.135
 291  5074.897
 292  5361.851
 293  4998.586
 294  4905.817
 295  4865.174
 296  4622.282
 297  4651.561
 298  4718.017
 299  4699.798
 300  4747.739
 301  4918.394
 302  5489.512
 303  5989.488
 304  6484.457
 305  6281.129
 306  5252.857
 307  4518.055
 308  4130.92
 309  3994.953
 310  4235.578
 311  4339.177
 312  4592.589
 313  4411.352
 314  4081.652
 315  4185.586
 316  4486.271
 317  4412.365
 318  4384.077
 319  4438.947
 320  4919.255
 321  4821.218
 322  4911.496
 323  4941.844
 324  4876.389
 325  5036.382
 326  5256.045
 327  5485.708
 328  5186.277
 329  5168.744
 330  4929.235
 331  5311.685
 332  5170.329
 333  4994.848
 334  5360.876
 335  5264.448
 336  5098.06
 337  5072.362
 338  5127.978
 339  5255.846
 340  5179.64
 341  5213.644
 342  5451.416
 343  4943.667
 344  4884.43
 345  5258.389
 346  5433.42
 347  5354.777
 348  5523.901
 349  5440.684
 350  5465.303
 351  5502.354
 352  5159.263
 353  5263.316
 354  5507.204
 355  5318.258
 356  5497.073
 357  5593.564
 358  5590.413
 359  5217.062
 360  5455.409
 361  5590.492
 362  5820.994
 363  5704.472
 364  5655.021
 365  5632.205
 366  5177.448
 367  5090.12
 368  5668.943
 369  5317.026
 370  5284.857
 371  4770.324
 372  4991.199
 373  5192.113
 374  5274.16
 375  5524.675
 376  4749.963
 377  4747.417
 378  4669.527
 379  4660.853
 380  5058.409
 381  5286.877
 382  4779.53
 383  4615.262
 384  4816.787
 385  4743.697
 386  4751.12
 387  4733.962
 388  4860.551
 389  4991.829
 390  4983.088
 391  5037.388
 392  5158.309
 393  5113.023
 394  5349.152
 395  5405.699
 396  5408.894
 397  5339.562
 398  5215.064
 399  5078.307
 400  5150.552
 401  5247.332
 402  5415.899
 403  5684.681
 404  5540.793
 405  5648.953
 406  5516.679
 407  5194.824
 408  5663.122
 409  6184.429
 410  6341.158
 411  6134.194
 412  6309.287
 413  6620.304
 414  6292.08
 415  6172.585
 416  6228.506
 417  6395.018
 418  6137.853
 419  6249.583
 420  6232.907
 421  6185.676
 422  6403.333
 423  6068.524
 424  6017.68
 425  6566.591
 426  6174.26
 427  6402.039
 428  6757.53
 429  6816.626
 430  6396.282
 431  6201.6
 432  6655.8
 433  6584.812
 434  6258.422
 435  6563.752
 436  6350.191
 437  6496.708
 438  6637.741
 439  6705.054
 440  6547.746
 441  6276.815
 442  6289.78
 443  6402.833
 444  6640.028
 445  6273.212
 446  5875.971
 447  5979.185
 448  5995.868
 449  6199.654
 450  6109.652
 451  6434.869
 452  5946.22
 453  5745.254
 454  6147.03
 455  6348.868
 456  6485.599
 457  6524.928
 458  5992.154
 459  5868.952
 460  6485.879
 461  6241.461
 462  5907.87
 463  6213.622
 464  6360.347
 465  6460.99
 466  5935.577
 467  6110.516
 468  6161
 469  6463.52
 470  6553.883
 471  6363.509
 472  6120.416
 473  6383.946
 474  6811.986
 475  6531.309
 476  6955.289
 477  6962.615
 478  7155.676
 479  6850.749
 480  6461.473
 481  6562.601
 482  6441.848
 483  6233.521
 484  6180.949
 485  6363.96
 486  7088.909
 487  7209.317
 488  7082.968
 489  6859.907
 490  6868.684
 491  6896.958
 492  6966.033
 493  6879.38
 494  7014.891
 495  7062.918
 496  7056.994
 497  7166.571
 498  7461.364
 499  7235.02
 500  6945.178
 501  6835.484
 502  6928.846
 503  6712.464
 504  6584.626
 505  6742.998
 506  6839.56
 507  6677.702
 508  6441.184
 509  6263.785
 510  6484.158
 511  6897.632
