# Input file       =  1205770295.108667_cleaned.dat
# Candidate        =  PSR_0332+5434
# Telescope        =  AR
# Epoch_topo       =  58199.674931813272
# Epoch_bary       =  N/A
# T_sample         =  0.002
# Data Folded      =  7340032
# Data Avg         =  0.255479807168221
# Data StdDev      =  4.98633920148365 
# Profile Bins     =  1024
# Profile Avg      =  1831.35886633004 
# Profile StdDev   =  422.16363135162  
# Reduced chi-sqr  =  0.643
# Prob(Noise)      <  1   (~0.0 sigma)
# P_topo (ms)      =  714.574896698805  +/- 0.000725
# P'_topo (s/s)    =  -0                +/- 3.83e-10
# P''_topo (s/s^2) =  0                 +/- 1.69e-13
# P_bary (ms)      =  N/A
# P'_bary (s/s)    =  N/A
# P''_bary (s/s^2) =  N/A
# P_orb (s)        =  N/A
# asin(i)/c (s)    =  N/A
# eccentricity     =  N/A
# w (rad)          =  N/A
# T_peri           =  N/A
######################################################
   0  1742.896
   1  1661.539
   2  1618.817
   3  1578.98
   4  1592.75
   5  1706.356
   6  1776.198
   7  1959.475
   8  2078.841
   9  2116.729
  10  1945.888
  11  1884.596
  12  1860.078
  13  1942.381
  14  1943.704
  15  1824.577
  16  1825.109
  17  1851.457
  18  2028
  19  2030.509
  20  1893.877
  21  1830.608
  22  1802.794
  23  1881.208
  24  1896.768
  25  1913.744
  26  1865.87
  27  1834.532
  28  1922.49
  29  1991.066
  30  1936.523
  31  1779.706
  32  1656.662
  33  1742.975
  34  1924.289
  35  1943.523
  36  1834.683
  37  1791.077
  38  1800.153
  39  1794.646
  40  1742.397
  41  1827.757
  42  1784.766
  43  1889.37
  44  1937.054
  45  1894.45
  46  1760.867
  47  1758.568
  48  1788.408
  49  1768.456
  50  1937.58
  51  1993.417
  52  2101.387
  53  2078.464
  54  2016.484
  55  2020.039
  56  1997.375
  57  1951.943
  58  1799.757
  59  1720.661
  60  1786.476
  61  1763.293
  62  1832.004
  63  1827.982
  64  1809.241
  65  1755.853
  66  1833.541
  67  1963.271
  68  1975.575
  69  2112.169
  70  2081.606
  71  2076.523
  72  1998.594
  73  1983.377
  74  1951.922
  75  2008.818
  76  1966.05
  77  1908.372
  78  1819.876
  79  1884.452
  80  1953.9
  81  1906.273
  82  1755.824
  83  1670.854
  84  1784.272
  85  2015.536
  86  2148.962
  87  1943.622
  88  1885.325
  89  1749.431
  90  1868.432
  91  1941.194
  92  2031.03
  93  1925.383
  94  1980.376
  95  1994.673
  96  2030.925
  97  2060.592
  98  2063.33
  99  1984.174
 100  1958.507
 101  2043.266
 102  2146.585
 103  2177.17
 104  2142.981
 105  2159.737
 106  2082.552
 107  2071.266
 108  2121.886
 109  2148.856
 110  2101.576
 111  2140.337
 112  2210.089
 113  2249.53
 114  2291.606
 115  2435.864
 116  2519.858
 117  2477.58
 118  2328.051
 119  2254.261
 120  2027.126
 121  1948.492
 122  2018.143
 123  2163.479
 124  2158.302
 125  2103.834
 126  2037.244
 127  2077.235
 128  2032.768
 129  2021.07
 130  2003.354
 131  2155.161
 132  2196.202
 133  2222.285
 134  2134.974
 135  1998.912
 136  1947.661
 137  2003.188
 138  2107.258
 139  2063.198
 140  2027.482
 141  2052.762
 142  2158.164
 143  2109.503
 144  2001.17
 145  1879.943
 146  1959.104
 147  2134.155
 148  2127.253
 149  2085.247
 150  1959.723
 151  1915.321
 152  1921.752
 153  1923.525
 154  1910.423
 155  1847.745
 156  1837.023
 157  1900.266
 158  1975.137
 159  2119.764
 160  2081.232
 161  1933.158
 162  1826.673
 163  1840.282
 164  1822.978
 165  1798.357
 166  1941.291
 167  2004.78
 168  2032.688
 169  2039.669
 170  1979.819
 171  1940.434
 172  1998.47
 173  2039.819
 174  1942.372
 175  1891.538
 176  1867.871
 177  1777.098
 178  1839.404
 179  1922.289
 180  2046.503
 181  2063.138
 182  2054.69
 183  2151.756
 184  2190.266
 185  2006.398
 186  1894.935
 187  1893.535
 188  2047.3
 189  1982.382
 190  1942.14
 191  1928.336
 192  1933.208
 193  1886.203
 194  1866.972
 195  1882.968
 196  1935.524
 197  1854.982
 198  1810.7
 199  1935.437
 200  2087.665
 201  2282.262
 202  2295.574
 203  2224.408
 204  2105.548
 205  2094.271
 206  1994.657
 207  1784.714
 208  1587.768
 209  1543.722
 210  1521.247
 211  1674.133
 212  1924.699
 213  2025.99
 214  1997.842
 215  1930.687
 216  1916.954
 217  1912.316
 218  1743.121
 219  1780.516
 220  1783.327
 221  1867.422
 222  1879.294
 223  1787.576
 224  1723.909
 225  1728.028
 226  1913.951
 227  2078.063
 228  2002.798
 229  1946.3
 230  1904.78
 231  1923.477
 232  1789.607
 233  1647.995
 234  1543.586
 235  1404.893
 236  1523.656
 237  1621.284
 238  1791.544
 239  1647.628
 240  1550.968
 241  1555.005
 242  1684.806
 243  1778.052
 244  1761.523
 245  1661.477
 246  1620.13
 247  1544.664
 248  1537.781
 249  1614.658
 250  1775.492
 251  1902.785
 252  1794.573
 253  1869.056
 254  1808.329
 255  1914.47
 256  1730.987
 257  1752.431
 258  1665.753
 259  1774.994
 260  1827.02
 261  1887.729
 262  1827.817
 263  1814.303
 264  1833.21
 265  1789.542
 266  1680.303
 267  1671.429
 268  1803.829
 269  2048.165
 270  2084.239
 271  1959.137
 272  1817.111
 273  1777.97
 274  1787.814
 275  1791.517
 276  1776.052
 277  1869.464
 278  1935.3
 279  2016.806
 280  1827.006
 281  1697.126
 282  1623.58
 283  1758.204
 284  1940.695
 285  2043.627
 286  1964.531
 287  1883.465
 288  1761.448
 289  1742.267
 290  1748.768
 291  1670.527
 292  1596.297
 293  1559.149
 294  1624.381
 295  1703.528
 296  1781.648
 297  1764.866
 298  1709.726
 299  1733.785
 300  1651.672
 301  1572.483
 302  1505.454
 303  1598.411
 304  1655.282
 305  1670.481
 306  1630.311
 307  1564.443
 308  1630.578
 309  1717.584
 310  1781.663
 311  1761.536
 312  1695.065
 313  1643.873
 314  1759.112
 315  1827.331
 316  1876.156
 317  1826.737
 318  1855.956
 319  1889.815
 320  1823.842
 321  1772.419
 322  1841.936
 323  1993.443
 324  2148.685
 325  2103.815
 326  2046.7
 327  1925.122
 328  1912.867
 329  2053.949
 330  2196.198
 331  2109.103
 332  1842.19
 333  1753.971
 334  1878.07
 335  2058.694
 336  1934.808
 337  1766.36
 338  1853.406
 339  1935.831
 340  1900.988
 341  1726.362
 342  1707.757
 343  1717.175
 344  1725.451
 345  1607.925
 346  1656.517
 347  1612.682
 348  1646.711
 349  1641.48
 350  1560.291
 351  1675.614
 352  1826.661
 353  1820.628
 354  1751.159
 355  1888.489
 356  1854.281
 357  1828.313
 358  1831.895
 359  2002.164
 360  2022.675
 361  1902.642
 362  1811.238
 363  1776.24
 364  1761.203
 365  1777.046
 366  1726.156
 367  1717.217
 368  1642.789
 369  1763.346
 370  1750.395
 371  1826.079
 372  1841.356
 373  1954.129
 374  1882.16
 375  1743.306
 376  1647.269
 377  1807.613
 378  1908.694
 379  1966.336
 380  1786.575
 381  1752.677
 382  1910.754
 383  1930.315
 384  1852.013
 385  1689.385
 386  1520.874
 387  1464.38
 388  1545.855
 389  1767.399
 390  1816.103
 391  1741.332
 392  1761.175
 393  1757.763
 394  1757.626
 395  1695.627
 396  1638.359
 397  1731.288
 398  1695.032
 399  1750.352
 400  1698.491
 401  1734.505
 402  1787.685
 403  1785.693
 404  1717.682
 405  1584.129
 406  1586.296
 407  1662.955
 408  1752.483
 409  1791.887
 410  1846.042
 411  1914.99
 412  1973.7
 413  1971.719
 414  2020.464
 415  1985.391
 416  2026.323
 417  2107.463
 418  2149.917
 419  2066.361
 420  2013.652
 421  1904.722
 422  1804.332
 423  1809.878
 424  1914.748
 425  1908.49
 426  1834.235
 427  1904.883
 428  2006.093
 429  1994.146
 430  2078.129
 431  1987.794
 432  1953.821
 433  1885.501
 434  1863.352
 435  1826.438
 436  1797.041
 437  1768.838
 438  1746.821
 439  1722.968
 440  1767.274
 441  1845.843
 442  1844.952
 443  1702.887
 444  1616.663
 445  1753.959
 446  1855.732
 447  1804.993
 448  1760.144
 449  1724.095
 450  1755.277
 451  1614.53
 452  1627.064
 453  1779.905
 454  1881.189
 455  1875.237
 456  1890.639
 457  1848.135
 458  1839.243
 459  1793.152
 460  1806.554
 461  1829.763
 462  1782.315
 463  1748.054
 464  1699.155
 465  1726.667
 466  1678.659
 467  1644.528
 468  1696.498
 469  1598.638
 470  1695.691
 471  1637.749
 472  1851.799
 473  1965.78
 474  1934.919
 475  1942.726
 476  1879.679
 477  1806.108
 478  1733.843
 479  1809.706
 480  1891.702
 481  1858.787
 482  1774.487
 483  1833.614
 484  1825.831
 485  1937.835
 486  1807.979
 487  1800.303
 488  1901.939
 489  2055.656
 490  2080.365
 491  1883.495
 492  1802.694
 493  1719.003
 494  1765.755
 495  1780.342
 496  1768.693
 497  1644.112
 498  1635.684
 499  1550.672
 500  1629.824
 501  1686.441
 502  1628.722
 503  1701.588
 504  1745.594
 505  1741.547
 506  1601.861
 507  1634.72
 508  1805.107
 509  1795.574
 510  1632.228
 511  1464.372
 512  1444.729
 513  1471.555
 514  1522.57
 515  1602.525
 516  1687.473
 517  1736.442
 518  1836.901
 519  1917.148
 520  2063.283
 521  1983.469
 522  1938.334
 523  1771.974
 524  1623.296
 525  1637.605
 526  1754.934
 527  1757.661
 528  1660.115
 529  1643.012
 530  1499.278
 531  1578.019
 532  1524.68
 533  1516.53
 534  1366.104
 535  1606.276
 536  1799.358
 537  1844.618
 538  1748.018
 539  1802.477
 540  1868.264
 541  1686.173
 542  1525.44
 543  1505.317
 544  1657.703
 545  1653.964
 546  1631.412
 547  1695.317
 548  1775.789
 549  1839.943
 550  1797.959
 551  1725.033
 552  1532.356
 553  1610.695
 554  1668.071
 555  1710.656
 556  1724.25
 557  1748.769
 558  1747.563
 559  1740.621
 560  1892.43
 561  1968.443
 562  1949.592
 563  1966.74
 564  1878.821
 565  1752.295
 566  1592.847
 567  1492.775
 568  1473.31
 569  1575.885
 570  1727.799
 571  1849.266
 572  1769.253
 573  1705.055
 574  1727.901
 575  1824.07
 576  1741.284
 577  1640.871
 578  1697.257
 579  1825.536
 580  1835.04
 581  1774.986
 582  1646.266
 583  1497.016
 584  1497.696
 585  1543.489
 586  1710.867
 587  1804.384
 588  1906
 589  1930.653
 590  1961.535
 591  1983.471
 592  1900.303
 593  1884.981
 594  1861.746
 595  1894.414
 596  1811.688
 597  1865.612
 598  2052.709
 599  2139.004
 600  2133.296
 601  2172.503
 602  2398.142
 603  2513.242
 604  2626.725
 605  2750.719
 606  2980.608
 607  2995.098
 608  2707.144
 609  2407.3
 610  2172.172
 611  2050.28
 612  1923.425
 613  1872.372
 614  1918.049
 615  2024.511
 616  2006.001
 617  1850.282
 618  1667.162
 619  1766.318
 620  1832.052
 621  1899.988
 622  1729.313
 623  1736.883
 624  1767.186
 625  1744.673
 626  1735.753
 627  1828.175
 628  1853.749
 629  1851.775
 630  1844.145
 631  1950.704
 632  1975.328
 633  2029.112
 634  2041.801
 635  1976.525
 636  1870.819
 637  1774.703
 638  1755.495
 639  1738.627
 640  1808.964
 641  1836.517
 642  1750.622
 643  1598.199
 644  1530.87
 645  1585.086
 646  1528.015
 647  1465.359
 648  1601.938
 649  1698.662
 650  1789.87
 651  1685.723
 652  1629.305
 653  1580.747
 654  1670.294
 655  1597.102
 656  1670.545
 657  1615.179
 658  1702.652
 659  1754.091
 660  1770.088
 661  1703.923
 662  1525.161
 663  1412.626
 664  1537.523
 665  1599.444
 666  1722.988
 667  1688.316
 668  1541.103
 669  1481.376
 670  1467.932
 671  1555.949
 672  1616.906
 673  1556.814
 674  1561.94
 675  1481.736
 676  1415.391
 677  1521.971
 678  1692.062
 679  1920.822
 680  1817.504
 681  1773.561
 682  1723.198
 683  1741.739
 684  1771.811
 685  1781.921
 686  1789.763
 687  1739.609
 688  1733.202
 689  1746.146
 690  1647.134
 691  1650.905
 692  1657.157
 693  1751.618
 694  1671.175
 695  1705.68
 696  1699.921
 697  1820.628
 698  1831.15
 699  1863.488
 700  1844.96
 701  1782.136
 702  1708.525
 703  1711.695
 704  1755.5
 705  1720.359
 706  1737.06
 707  1718.265
 708  1784.052
 709  1981.367
 710  1949.467
 711  1867.589
 712  1844.368
 713  1911.939
 714  1883.085
 715  1714.036
 716  1535.842
 717  1521.818
 718  1624.141
 719  1751.294
 720  1730.995
 721  1752.259
 722  1799.009
 723  1913.86
 724  1934.334
 725  1855.222
 726  1720.621
 727  1625.07
 728  1732.223
 729  1938.051
 730  1988.271
 731  2013.709
 732  1940.075
 733  1949.402
 734  1928.099
 735  1900.774
 736  1908.781
 737  1914.465
 738  2019.058
 739  2011.371
 740  1970.421
 741  1818.285
 742  1930.414
 743  1886.959
 744  1995.752
 745  2055.615
 746  2290.253
 747  2282.98
 748  2102.698
 749  1965.828
 750  1975.709
 751  2078.923
 752  2024.132
 753  2092.41
 754  2065.773
 755  1984.643
 756  1910.772
 757  1855.813
 758  1976.231
 759  1913.357
 760  2014.648
 761  2055.951
 762  2024.071
 763  1799.149
 764  1821.838
 765  1870.92
 766  2018.561
 767  1865.966
 768  1812.187
 769  1770.974
 770  1931.645
 771  1880.296
 772  1747.016
 773  1540.096
 774  1598.918
 775  1593.742
 776  1689.771
 777  1620.173
 778  1592.187
 779  1647.489
 780  1680.775
 781  1757.605
 782  1699.87
 783  1757.1
 784  1742.615
 785  1808.279
 786  1797.501
 787  1850.54
 788  1833.399
 789  1811.686
 790  1762.006
 791  1912.185
 792  1946.108
 793  1833.983
 794  1721.407
 795  1649.358
 796  1637.012
 797  1798.56
 798  1732.958
 799  1781.821
 800  1625.798
 801  1751.672
 802  1733.675
 803  1777.995
 804  1767.983
 805  1754.845
 806  1658.873
 807  1653.822
 808  1647.832
 809  1711.616
 810  1747.332
 811  1764.367
 812  1660.745
 813  1721.086
 814  1786.347
 815  1790.442
 816  1685.362
 817  1538.356
 818  1510.765
 819  1499.434
 820  1579.719
 821  1604.091
 822  1590.191
 823  1560.931
 824  1509.596
 825  1485.867
 826  1456.979
 827  1501.303
 828  1564.077
 829  1554.271
 830  1521.701
 831  1522.819
 832  1628.094
 833  1650.591
 834  1729.204
 835  1758.463
 836  1720.912
 837  1743.836
 838  1819.499
 839  1883.382
 840  1801.223
 841  1688.299
 842  1650.781
 843  1634.854
 844  1520.671
 845  1477.957
 846  1601.812
 847  1667.252
 848  1715.723
 849  1700.449
 850  1672.861
 851  1687.751
 852  1691.55
 853  1564.841
 854  1489.68
 855  1480.187
 856  1569.27
 857  1714.049
 858  1829.165
 859  1951.446
 860  1815.239
 861  1632.997
 862  1519.788
 863  1644.581
 864  1782.666
 865  1772.875
 866  1750.34
 867  1670.004
 868  1632.55
 869  1652.862
 870  1608.772
 871  1687.809
 872  1742.266
 873  1861.091
 874  1837.722
 875  1750.292
 876  1697.598
 877  1889.438
 878  2082.836
 879  2022.16
 880  1969.431
 881  1895.668
 882  1977.701
 883  1871.205
 884  1808.349
 885  1811.49
 886  1827.801
 887  1778.693
 888  1670.667
 889  1646.622
 890  1716.002
 891  1766.923
 892  1719.21
 893  1704.08
 894  1691.433
 895  1632.652
 896  1533.448
 897  1573.432
 898  1560.021
 899  1599.838
 900  1571.508
 901  1655.439
 902  1585.952
 903  1590.095
 904  1621.319
 905  1622.985
 906  1655.947
 907  1680.822
 908  1814.156
 909  1778.833
 910  1683.968
 911  1672.812
 912  1743.682
 913  1901.838
 914  1868.401
 915  1844.119
 916  1831.305
 917  1825.262
 918  1876.636
 919  1766.136
 920  1751.772
 921  1694.931
 922  1744.99
 923  1869.159
 924  1962.332
 925  2066.952
 926  1926.248
 927  1966.299
 928  2023.394
 929  2043.124
 930  1914.068
 931  1951.925
 932  1969.261
 933  2002.313
 934  2067.691
 935  2131.258
 936  2075.687
 937  1876.667
 938  1786.443
 939  1855.725
 940  1826.244
 941  1668.931
 942  1740.843
 943  1849.672
 944  1961.413
 945  1856.338
 946  1879.787
 947  1939.123
 948  1974.245
 949  1970.501
 950  2025.596
 951  1922.416
 952  1914.111
 953  1901.442
 954  1886.675
 955  1915.776
 956  2119.767
 957  2196.386
 958  2048.577
 959  1758.437
 960  1679.833
 961  1810.937
 962  1932.113
 963  2021.194
 964  2079.677
 965  2041.668
 966  1867.463
 967  1773.609
 968  1839.371
 969  1938.938
 970  1928.221
 971  1905.215
 972  1877.422
 973  1913.764
 974  1885.274
 975  1952.75
 976  2098.717
 977  2086.095
 978  2030.373
 979  2013.898
 980  1982.542
 981  1988.664
 982  1924.899
 983  1927.022
 984  1988.01
 985  1913.336
 986  2051.864
 987  2138.836
 988  2200.318
 989  2052.383
 990  1968.329
 991  2019.998
 992  2025.913
 993  1988.921
 994  1940.666
 995  1989.377
 996  2074.616
 997  2057.927
 998  1887.729
 999  1695.537
1000  1604.448
1001  1531.09
1002  1540.967
1003  1532.826
1004  1677.106
1005  1828.517
1006  1971.017
1007  1946.908
1008  1818.088
1009  1776.114
1010  1847.105
1011  1938.51
1012  1959.433
1013  1964.061
1014  1947.092
1015  1946.388
1016  1907.335
1017  2016.774
1018  1983.03
1019  1864.25
1020  1778.38
1021  1693.859
1022  1819.746
1023  1795.912
