# Input file       =  1205152155.100529_cleaned.dat
# Candidate        =  PSR_0332+5434
# Telescope        =  AR
# Epoch_topo       =  58192.520533570940
# Epoch_bary       =  N/A
# T_sample         =  0.002
# Data Folded      =  7340032
# Data Avg         =  0.0514952132638173
# Data StdDev      =  1.00011920360581 
# Profile Bins     =  512
# Profile Avg      =  738.298601327154 
# Profile StdDev   =  119.747308986437 
# Reduced chi-sqr  =  1.391
# Prob(Noise)      <  1.02e-08   (~5.6 sigma)
# P_topo (ms)      =  714.57742565247   +/- 0.000235
# P'_topo (s/s)    =  -0                +/- 1.24e-10
# P''_topo (s/s^2) =  0                 +/- 5.48e-14
# P_bary (ms)      =  N/A
# P'_bary (s/s)    =  N/A
# P''_bary (s/s^2) =  N/A
# P_orb (s)        =  N/A
# asin(i)/c (s)    =  N/A
# eccentricity     =  N/A
# w (rad)          =  N/A
# T_peri           =  N/A
######################################################
   0  571.3063
   1  558.4866
   2  645.4919
   3  594.7209
   4  558.2695
   5  641.3805
   6  665.2325
   7  575.6649
   8  641.3306
   9  659.4778
  10  660.9982
  11  543.5178
  12  640.3262
  13  705.4023
  14  664.342
  15  605.9399
  16  651.7609
  17  645.6804
  18  662.8593
  19  734.6884
  20  777.7727
  21  804.3187
  22  700.3565
  23  633.7254
  24  659.2752
  25  739.5827
  26  655.6301
  27  607.5248
  28  632.916
  29  745.4661
  30  592.3176
  31  671.7399
  32  699.2781
  33  739.5496
  34  724.9417
  35  725.4474
  36  654.0221
  37  677.7373
  38  849.6249
  39  812.0144
  40  799.7338
  41  724.6935
  42  743.915
  43  735.6285
  44  676.9017
  45  697.5897
  46  679.0334
  47  730.6987
  48  671.2918
  49  685.5674
  50  710.1043
  51  739.9565
  52  768.3232
  53  732.2576
  54  617.4808
  55  686.0621
  56  688.1232
  57  770.4765
  58  761.1152
  59  686.3105
  60  621.048
  61  521.3666
  62  558.0999
  63  688.6898
  64  687.8243
  65  677.7145
  66  611.946
  67  647.0932
  68  627.558
  69  599.8876
  70  626.6918
  71  623.8207
  72  778.8602
  73  714.7698
  74  707.9116
  75  696.4805
  76  668.9737
  77  675.645
  78  717.2849
  79  715.3567
  80  751.4683
  81  682.8313
  82  683.0373
  83  690.8098
  84  570.2473
  85  681.6384
  86  645.6635
  87  699.0319
  88  580.6774
  89  647.3359
  90  650.5577
  91  531.558
  92  551.7802
  93  598.1232
  94  708.9813
  95  758.9767
  96  652.3546
  97  726.6143
  98  614.7564
  99  535.4456
 100  539.9308
 101  600.3412
 102  657.6723
 103  714.0738
 104  738.1799
 105  738.9112
 106  614.9116
 107  694.3003
 108  791.9087
 109  776.7036
 110  744.1863
 111  890.8652
 112  952.2686
 113  1069.327
 114  1268.568
 115  1271.296
 116  1245.424
 117  1138.997
 118  814.7368
 119  679.4534
 120  744.4134
 121  793.4111
 122  778.9464
 123  697.1639
 124  561.2302
 125  568.2542
 126  600.7104
 127  663.86
 128  744.5309
 129  678.9487
 130  703.2815
 131  721.148
 132  689.6938
 133  794.8898
 134  871.901
 135  784.5463
 136  800.2241
 137  803.511
 138  731.13
 139  813.2251
 140  709.2689
 141  686.024
 142  634.9611
 143  656.1907
 144  651.446
 145  677.3184
 146  745.0827
 147  701.6027
 148  559.9224
 149  611.277
 150  672.3412
 151  638.639
 152  616.72
 153  602.2097
 154  663.2843
 155  724.4307
 156  775.9251
 157  676.9968
 158  685.6321
 159  785.1785
 160  771.3028
 161  713.0947
 162  766.6686
 163  746.2945
 164  726.3589
 165  800.6356
 166  786.8751
 167  719.2051
 168  677.4999
 169  700.4911
 170  777.4547
 171  691.0549
 172  747.1489
 173  749.4635
 174  761.454
 175  656.5123
 176  759.7072
 177  861.22
 178  903.9893
 179  867.4971
 180  859.86
 181  766.3062
 182  726.3168
 183  769.2839
 184  800.7541
 185  752.5185
 186  703.3705
 187  691.3173
 188  667.6683
 189  687.4609
 190  590.3588
 191  681.6363
 192  806.184
 193  847.9083
 194  885.7329
 195  874.5352
 196  765.5914
 197  664.2423
 198  682.1284
 199  710.7119
 200  710.4041
 201  748.1714
 202  700.3627
 203  745.9891
 204  776.8489
 205  825.7115
 206  857.3905
 207  799.4708
 208  669.9889
 209  702.5463
 210  784.385
 211  878.1545
 212  843.5204
 213  761.2553
 214  707.6055
 215  654.4702
 216  718.0661
 217  796.5988
 218  715.3268
 219  687.9551
 220  650.4499
 221  727.813
 222  839.9797
 223  880.5917
 224  743.9892
 225  756.738
 226  822.8027
 227  883.6999
 228  905.1572
 229  789.8843
 230  849.0331
 231  790.2302
 232  729.9999
 233  848.9114
 234  911.7806
 235  854.223
 236  729.4383
 237  787.4185
 238  792.921
 239  849.0166
 240  830.1414
 241  806.0815
 242  790.4999
 243  704.5617
 244  619.2257
 245  635.6227
 246  685.167
 247  678.2469
 248  814.8391
 249  811.6102
 250  703.3157
 251  751.2196
 252  700.69
 253  711.55
 254  733.4777
 255  808.0746
 256  772.1336
 257  677.0837
 258  717.0775
 259  889.9917
 260  850.0759
 261  814.0593
 262  921.362
 263  820.1852
 264  714.9205
 265  712.7324
 266  788.6738
 267  848.7393
 268  780.356
 269  816.6989
 270  745.6649
 271  789.9873
 272  713.7363
 273  669.3124
 274  669.7499
 275  732.5359
 276  806.3052
 277  818.541
 278  847.3526
 279  886.7383
 280  854.0593
 281  792.5839
 282  807.2338
 283  882.2759
 284  775.7103
 285  835.9247
 286  934.5076
 287  836.517
 288  741.1406
 289  776.7513
 290  835.8218
 291  822.187
 292  920.631
 293  959.5797
 294  817.7561
 295  762.6636
 296  798.1926
 297  745.1415
 298  757.4345
 299  765.7703
 300  721.4708
 301  619.5578
 302  580.1342
 303  618.1166
 304  608.87
 305  691.3999
 306  679.2737
 307  638.0294
 308  670.6955
 309  776.1308
 310  835.8155
 311  690.228
 312  736.5766
 313  875.8514
 314  921.3502
 315  918.8118
 316  881.8553
 317  764.5209
 318  747.2553
 319  731.9208
 320  879.0499
 321  911.8182
 322  813.1261
 323  814.1418
 324  849.9832
 325  851.6619
 326  830.9724
 327  902.1208
 328  935.9163
 329  767.9351
 330  760.3885
 331  723.4046
 332  792.4808
 333  881.4594
 334  857.7652
 335  754.8596
 336  805.4114
 337  798.3651
 338  854.1279
 339  832.8529
 340  772.2116
 341  797.4952
 342  827.1995
 343  823.601
 344  867.0619
 345  798.0039
 346  675.8583
 347  641.0984
 348  740.2567
 349  792.1055
 350  760.0895
 351  743.2117
 352  810.4303
 353  866.9686
 354  852.3319
 355  805.5603
 356  753.6348
 357  842.1336
 358  806.903
 359  729.3131
 360  757.0587
 361  696.9683
 362  749.7087
 363  848.2961
 364  858.9578
 365  809.0647
 366  679.7672
 367  713.0554
 368  746.0945
 369  779.0831
 370  750.3026
 371  615.9714
 372  516.6217
 373  682.743
 374  651.6853
 375  683.4551
 376  710.6934
 377  737.7132
 378  771.7019
 379  781.6406
 380  810.3823
 381  677.2579
 382  682.776
 383  738.988
 384  720.2562
 385  678.0974
 386  743.4544
 387  723.2439
 388  784.8499
 389  788.1627
 390  747.1528
 391  842.84
 392  805.9417
 393  681.9676
 394  691.2444
 395  679.2285
 396  745.048
 397  775.3691
 398  808.9287
 399  812.7237
 400  822.2307
 401  931.7001
 402  989.1584
 403  965.2601
 404  830.8994
 405  790.9111
 406  789.5773
 407  796.4594
 408  781.9508
 409  899.075
 410  982.9617
 411  941.2123
 412  895.2797
 413  843.9651
 414  929.6514
 415  949.9338
 416  904.0003
 417  923.5938
 418  888.849
 419  799.4681
 420  772.1407
 421  712.6
 422  668.5186
 423  736.604
 424  829.8901
 425  772.4426
 426  675.9341
 427  768.2851
 428  595.7672
 429  676.8063
 430  711.4563
 431  821.2675
 432  831.1052
 433  705.765
 434  644.6998
 435  717.1484
 436  699.6841
 437  708.988
 438  587.0328
 439  645.0981
 440  683.8106
 441  564.5816
 442  670.832
 443  733.1215
 444  707.0786
 445  708.3983
 446  859.454
 447  876.1818
 448  696.0671
 449  677.1212
 450  734.3634
 451  798.0681
 452  840.2223
 453  786.9065
 454  690.6362
 455  598.1483
 456  608.0248
 457  632.1295
 458  561.7151
 459  657.9137
 460  628.0336
 461  570.4954
 462  595.7363
 463  671.9754
 464  690.1568
 465  674.8495
 466  631.8738
 467  673.4229
 468  666.1135
 469  616.5663
 470  556.4939
 471  564.2483
 472  604.5104
 473  679.8757
 474  627.4799
 475  573.5178
 476  654.3794
 477  666.6862
 478  619.4636
 479  625.3546
 480  753.7239
 481  818.5501
 482  751.5531
 483  625.0529
 484  620.4917
 485  763.1273
 486  692.1288
 487  617.6524
 488  721.9435
 489  810.6238
 490  720.4899
 491  630.0829
 492  704.6511
 493  787.8126
 494  763.9545
 495  793.3096
 496  864.035
 497  813.5046
 498  764.6686
 499  668.7868
 500  671.3101
 501  667.4066
 502  734.7026
 503  686.3176
 504  751.9404
 505  597.165
 506  544.0634
 507  591.081
 508  652.8461
 509  614.6763
 510  588.736
 511  617.2906
