# Input file       =  1205396186.107609_cleaned.dat
# Candidate        =  PSR_0332+5434
# Telescope        =  AR
# Epoch_topo       =  58195.344966523255
# Epoch_bary       =  N/A
# T_sample         =  0.002
# Data Folded      =  7405568
# Data Avg         =  0.132297304549575
# Data StdDev      =  4.29299742258987 
# Profile Bins     =  1024
# Profile Avg      =  956.687257594023 
# Profile StdDev   =  365.081508606595 
# Reduced chi-sqr  =  2.188
# Prob(Noise)      <  1.58e-92   (~20.4 sigma)
# P_topo (ms)      =  714.576383867481  +/- 2.11e-05
# P'_topo (s/s)    =  -0                +/- 1.1e-11
# P''_topo (s/s^2) =  0                 +/- 4.82e-15
# P_bary (ms)      =  N/A
# P'_bary (s/s)    =  N/A
# P''_bary (s/s^2) =  N/A
# P_orb (s)        =  N/A
# asin(i)/c (s)    =  N/A
# eccentricity     =  N/A
# w (rad)          =  N/A
# T_peri           =  N/A
######################################################
   0  712.8015
   1  765.1871
   2  741.8495
   3  695.8854
   4  572.4261
   5  651.1421
   6  665.169
   7  674.4507
   8  823.6859
   9  951.1276
  10  1075.755
  11  996.5709
  12  903.8014
  13  705.5452
  14  651.9904
  15  725.6287
  16  716.6434
  17  706.5657
  18  816.3877
  19  953.1321
  20  1061.63
  21  1126.104
  22  1178.621
  23  1322.056
  24  1403.081
  25  1551.981
  26  1614.88
  27  1488.32
  28  1277.408
  29  1009.893
  30  845.8993
  31  601.1871
  32  426.6145
  33  471.5521
  34  550.6984
  35  728.9201
  36  760.3852
  37  866.7366
  38  882.0135
  39  836.5861
  40  831.4998
  41  866.7661
  42  1012.128
  43  1129.075
  44  1046.376
  45  899.9448
  46  828.7303
  47  667.8103
  48  518.5988
  49  539.6078
  50  695.17
  51  881.8074
  52  789.4133
  53  782.4879
  54  765.2388
  55  901.5865
  56  1038.487
  57  1249.91
  58  1458.943
  59  1417.973
  60  1340.399
  61  1239.237
  62  1122.354
  63  873.1724
  64  732.6488
  65  597.0841
  66  537.4569
  67  493.135
  68  607.421
  69  648.9028
  70  763.7653
  71  820.6128
  72  828.8038
  73  854.3322
  74  807.6176
  75  958.941
  76  1019.806
  77  1030.858
  78  874.7581
  79  690.7557
  80  540.3196
  81  479.246
  82  572.0712
  83  588.1345
  84  608.6562
  85  835.8534
  86  1132.548
  87  1313.953
  88  1462.106
  89  1512.99
  90  1454.983
  91  1255.326
  92  1347.088
  93  1386.655
  94  1379.149
  95  1155.958
  96  1032.418
  97  853.7288
  98  621.4858
  99  594.502
 100  832.4954
 101  916.2771
 102  985.8469
 103  973.5573
 104  937.0977
 105  962.2721
 106  914.0205
 107  1103.864
 108  1253.4
 109  1374.353
 110  1362.471
 111  1166.386
 112  921.4314
 113  865.3806
 114  739.2468
 115  698.9836
 116  669.3456
 117  884.1818
 118  1032.359
 119  1029.823
 120  1190.901
 121  1276.641
 122  1540.287
 123  1679.841
 124  1842.544
 125  1726.48
 126  1474.317
 127  1281.924
 128  1119.796
 129  1056.832
 130  949.2944
 131  877.9141
 132  755.0446
 133  760.2037
 134  775.3628
 135  938.2283
 136  969.0453
 137  876.8527
 138  870.9964
 139  947.7294
 140  1095.839
 141  1193.15
 142  1233.964
 143  1184.462
 144  1076.877
 145  997.2774
 146  853.0167
 147  731.1472
 148  744.3585
 149  860.0403
 150  891.3173
 151  893.0098
 152  936.8652
 153  1087.706
 154  1213.278
 155  1368.311
 156  1498.216
 157  1506.365
 158  1636.474
 159  1619.476
 160  1610.577
 161  1300.988
 162  1158.336
 163  1001.183
 164  950.6254
 165  972.1924
 166  957.194
 167  908.4769
 168  937.543
 169  835.7429
 170  800.5297
 171  645.5788
 172  717.5756
 173  1009.089
 174  1144.896
 175  1241.764
 176  1235.166
 177  1160.293
 178  948.4377
 179  794.8522
 180  844.2527
 181  864.9039
 182  891.0295
 183  966.5117
 184  1087.322
 185  1161.478
 186  1348.51
 187  1400.347
 188  1485.469
 189  1496.86
 190  1528.401
 191  1673.743
 192  1570.289
 193  1407.527
 194  1235.347
 195  1172.082
 196  923.9004
 197  720.3878
 198  694.7327
 199  784.5908
 200  742.3524
 201  799.1028
 202  691.4109
 203  742.9715
 204  652.1951
 205  864.1932
 206  988.7349
 207  1020.286
 208  1160.013
 209  1234.567
 210  1141.482
 211  897.8827
 212  697.369
 213  682.255
 214  612.4451
 215  610.1432
 216  703.3373
 217  768.2922
 218  934.4731
 219  1066.881
 220  1106.493
 221  1140.97
 222  1241.861
 223  1446.467
 224  1369.858
 225  1293.988
 226  1186.526
 227  1127.493
 228  996.1157
 229  915.4348
 230  808.9575
 231  708.7103
 232  710.5192
 233  768.5212
 234  658.7459
 235  600.9433
 236  542.348
 237  650.5762
 238  714.8764
 239  788.1968
 240  940.5099
 241  1058.645
 242  1018.246
 243  867.0353
 244  737.9667
 245  574.3527
 246  503.9239
 247  591.2283
 248  725.7753
 249  790.724
 250  860.1879
 251  944.3894
 252  956.8987
 253  1120.106
 254  1276.493
 255  1407.998
 256  1458.102
 257  1431.765
 258  1411.776
 259  1168.643
 260  1000.568
 261  734.0902
 262  647.6867
 263  543.7491
 264  580.2023
 265  655.2194
 266  688.1163
 267  666.9183
 268  703.4855
 269  640.754
 270  727.5319
 271  789.247
 272  974.1221
 273  1079.56
 274  998.8992
 275  880.9266
 276  750.1622
 277  701.0266
 278  625.3461
 279  562.7039
 280  543.8924
 281  628.2414
 282  639.802
 283  641.5104
 284  704.7296
 285  842.6095
 286  983.5273
 287  1174.528
 288  1291.829
 289  1297.159
 290  1355.594
 291  1380.282
 292  1401.428
 293  1266.294
 294  1123.848
 295  849.1798
 296  641.7191
 297  531.415
 298  559.3466
 299  499.5186
 300  442.8607
 301  512.2654
 302  531.8718
 303  671.125
 304  631.301
 305  714.4377
 306  855.7807
 307  1031.371
 308  1063.427
 309  1055.804
 310  952.8836
 311  807.2919
 312  662.1506
 313  707.8802
 314  809.7631
 315  812.5118
 316  913.0714
 317  859.8438
 318  928.2629
 319  965.7037
 320  1179.87
 321  1443.254
 322  1497.292
 323  1602.162
 324  1527.682
 325  1378.197
 326  1181.988
 327  1071.363
 328  910.4016
 329  763.4138
 330  748.8227
 331  908.4504
 332  815.8578
 333  824.2582
 334  843.9061
 335  818.8335
 336  686.8135
 337  592.7303
 338  810.4426
 339  914.7377
 340  1011.818
 341  1133.083
 342  1080.503
 343  960.0815
 344  745.7488
 345  626.9054
 346  681.8334
 347  891.0728
 348  1067.548
 349  1087.175
 350  976.9791
 351  1027.862
 352  1011.509
 353  1207.403
 354  1276.132
 355  1413.557
 356  1521.238
 357  1433.337
 358  1287.999
 359  1052.751
 360  1031.847
 361  893.1534
 362  786.7585
 363  743.4238
 364  731.0057
 365  842.8444
 366  1018.246
 367  966.8744
 368  883.4544
 369  770.7557
 370  897.5013
 371  1056.3
 372  1183.686
 373  1244.594
 374  1367.438
 375  1254.261
 376  1035.341
 377  799.8469
 378  786.0411
 379  790.4819
 380  955.8987
 381  1054.028
 382  1071.503
 383  1087.128
 384  1175.929
 385  1146.712
 386  1201.112
 387  1335.468
 388  1445.605
 389  1444.768
 390  1298.831
 391  1182.856
 392  1040.1
 393  924.8688
 394  942.7478
 395  828.6283
 396  776.1785
 397  816.8918
 398  1035.604
 399  1096.566
 400  1068.811
 401  980.1281
 402  963.7098
 403  970.7755
 404  900.2297
 405  864.9313
 406  967.1866
 407  1089.291
 408  1105.282
 409  863.5687
 410  691.9999
 411  628.838
 412  729.2392
 413  674.2925
 414  743.9477
 415  918.4902
 416  1100.605
 417  1091.227
 418  1185.785
 419  1301.521
 420  1352.254
 421  1434.337
 422  1421.998
 423  1341.634
 424  1232.514
 425  1113.376
 426  997.9573
 427  745.729
 428  679.128
 429  682.3211
 430  720.5989
 431  693.8088
 432  640.5689
 433  763.5487
 434  841.7005
 435  800.6215
 436  892.2762
 437  989.6786
 438  1142.183
 439  1219.942
 440  1132.56
 441  887.1381
 442  642.2152
 443  505.2114
 444  578.8402
 445  636.9173
 446  811.4496
 447  869.744
 448  760.1577
 449  779.7833
 450  872.2307
 451  1108.29
 452  1172.359
 453  1315.761
 454  1509.665
 455  1461.404
 456  1308.508
 457  1094.39
 458  1025.309
 459  764.4772
 460  645.2009
 461  615.8159
 462  549.442
 463  569.9175
 464  591.4794
 465  677.4312
 466  677.5246
 467  720.8408
 468  820.1129
 469  696.6921
 470  534.8765
 471  714.985
 472  908.5977
 473  1019.919
 474  845.5207
 475  533.1166
 476  320.0588
 477  267.9828
 478  426.6004
 479  577.4221
 480  545.9257
 481  622.3264
 482  695.102
 483  836.2307
 484  948.3347
 485  1046.384
 486  1254.407
 487  1306.033
 488  1428.424
 489  1473.816
 490  1424.526
 491  1349.246
 492  1239.36
 493  993.689
 494  767.6336
 495  645.1904
 496  714.2386
 497  574.7565
 498  640.6693
 499  698.2518
 500  837.5078
 501  823.2202
 502  679.7339
 503  620.632
 504  786.0774
 505  950.14
 506  958.395
 507  823.0444
 508  669.1881
 509  620.9205
 510  672.8672
 511  827.2458
 512  959.3602
 513  1014.278
 514  995.0766
 515  874.941
 516  815.5725
 517  756.0118
 518  755.1338
 519  982.6082
 520  1194.86
 521  1526.317
 522  1473.918
 523  1438.913
 524  1237.874
 525  1145.764
 526  1007.056
 527  869.0622
 528  829.8165
 529  759.7866
 530  693.9192
 531  743.9091
 532  759.1487
 533  802.3351
 534  769.0186
 535  713.7786
 536  912.8687
 537  1010.036
 538  1084.041
 539  1125.423
 540  1054.565
 541  1011.743
 542  813.13
 543  709.722
 544  652.7015
 545  857.6282
 546  1020.256
 547  1025.765
 548  886.916
 549  900.4144
 550  888.8775
 551  1033.788
 552  1156.228
 553  1373.811
 554  1438.133
 555  1449.431
 556  1343.588
 557  1259.812
 558  1109.457
 559  943.1783
 560  798.7954
 561  738.9928
 562  774.2974
 563  818.6609
 564  859.2021
 565  809.8643
 566  915.1347
 567  955.2638
 568  956.6719
 569  1016.464
 570  1047.924
 571  1192.047
 572  1260.022
 573  1259.212
 574  1106.935
 575  916.588
 576  908.515
 577  917.3428
 578  950.3251
 579  863.8453
 580  904.7487
 581  922.8187
 582  1055.143
 583  1083.556
 584  1315.841
 585  1485.692
 586  1741.657
 587  1787.171
 588  1671.403
 589  1407.176
 590  1169.589
 591  981.3009
 592  851.181
 593  822.1792
 594  910.2205
 595  927.1755
 596  1122.574
 597  1211.939
 598  1356.329
 599  1273.754
 600  1201.708
 601  1411.405
 602  1638.995
 603  1876.466
 604  2038.617
 605  2093.548
 606  2003.759
 607  1759.917
 608  1666.498
 609  1623.194
 610  1572.397
 611  1523.438
 612  1453.842
 613  1301.376
 614  1281.574
 615  1247.297
 616  1377.354
 617  1401.552
 618  1491.579
 619  1568.906
 620  1597.888
 621  1569.018
 622  1608.365
 623  1404.833
 624  1171.348
 625  827.8609
 626  836.662
 627  859.846
 628  971.695
 629  1055.412
 630  958.0846
 631  953.0977
 632  792.9252
 633  846.175
 634  1001.778
 635  1128.198
 636  1272.98
 637  1210.288
 638  1232.252
 639  1168.555
 640  957.7224
 641  842.3351
 642  773.2252
 643  755.2727
 644  741.3438
 645  872.6234
 646  1106.371
 647  1175.617
 648  1114.685
 649  1179.371
 650  1196.117
 651  1270.12
 652  1288.771
 653  1461.063
 654  1493.688
 655  1496.899
 656  1406.796
 657  1251.713
 658  976.1426
 659  720.3481
 660  671.1581
 661  672.8246
 662  607.7211
 663  581.8101
 664  601.3213
 665  495.1375
 666  580.8503
 667  651.9436
 668  781.1487
 669  915.2289
 670  961.2598
 671  993.3021
 672  982.9562
 673  1018.966
 674  865.1264
 675  670.7479
 676  558.6974
 677  780.5532
 678  939.5677
 679  998.4225
 680  889.944
 681  880.0146
 682  992.6994
 683  1021.696
 684  1255.493
 685  1366.641
 686  1395.751
 687  1439.214
 688  1466.034
 689  1304.012
 690  1031.907
 691  825.9771
 692  824.4099
 693  677.1215
 694  640.5767
 695  585.4875
 696  565.3216
 697  479.8574
 698  637.1755
 699  751.5057
 700  771.1135
 701  662.8069
 702  804.9753
 703  965.1006
 704  1009.366
 705  956.5498
 706  744.3943
 707  659.1625
 708  385.6073
 709  451.9681
 710  614.756
 711  784.4974
 712  813.9249
 713  877.3038
 714  997.5017
 715  1053.148
 716  1117.593
 717  1249.79
 718  1389.019
 719  1511.652
 720  1470.893
 721  1279.093
 722  1114.803
 723  1039.747
 724  902.0048
 725  661.8309
 726  537.0952
 727  597.4481
 728  787.4896
 729  794.2703
 730  654.6906
 731  642.6223
 732  687.6906
 733  651.7938
 734  726.2604
 735  779.7593
 736  919.6706
 737  973.8477
 738  978.2277
 739  798.3225
 740  563.6278
 741  536.5335
 742  647.1552
 743  703.7448
 744  736.6282
 745  664.4179
 746  734.3775
 747  796.0633
 748  942.3423
 749  1075.87
 750  1117.542
 751  1212.423
 752  1271.549
 753  1167.748
 754  1065.08
 755  1046.834
 756  979.4137
 757  825.0046
 758  658.2048
 759  693.4678
 760  588.7709
 761  532.3236
 762  568.1599
 763  637.7711
 764  722.8633
 765  673.2643
 766  804.7959
 767  749.9152
 768  729.0246
 769  767.3757
 770  865.043
 771  907.1198
 772  773.4781
 773  518.6195
 774  353.3934
 775  405.0323
 776  506.7102
 777  579.1701
 778  549.6274
 779  694.715
 780  790.0692
 781  915.884
 782  1072.797
 783  1329.908
 784  1437.337
 785  1557.571
 786  1424.127
 787  1395.693
 788  1078.184
 789  897.6265
 790  757.3511
 791  698.7441
 792  691.5499
 793  653.6841
 794  740.0682
 795  627.4427
 796  705.1666
 797  645.7836
 798  673.9239
 799  705.0769
 800  739.7509
 801  1048.859
 802  1263.453
 803  1336.292
 804  1218.373
 805  1021.009
 806  797.2509
 807  607.8103
 808  534.2719
 809  540.3541
 810  571.2831
 811  855.5373
 812  1006.706
 813  965.5613
 814  932.5231
 815  1183.71
 816  1345.454
 817  1380.485
 818  1435.047
 819  1525.253
 820  1449.93
 821  1166.376
 822  920.631
 823  778.654
 824  613.0093
 825  614.8419
 826  623.1895
 827  597.4036
 828  591.8763
 829  648.3233
 830  654.9658
 831  699.4106
 832  744.8586
 833  779.9658
 834  848.3451
 835  923.3792
 836  1015.383
 837  930.1616
 838  824.9593
 839  649.72
 840  499.2371
 841  438.3776
 842  551.5692
 843  749.2712
 844  950.0592
 845  908.6592
 846  880.0504
 847  910.3447
 848  979.2158
 849  1088.41
 850  1254.956
 851  1519.152
 852  1702.423
 853  1672.664
 854  1493.556
 855  1187.898
 856  898.6071
 857  614.8467
 858  514.7221
 859  500.1327
 860  572.777
 861  833.616
 862  1037.358
 863  1113.457
 864  1002.431
 865  916.4343
 866  869.0361
 867  988.4987
 868  1023.997
 869  1112.26
 870  1059.748
 871  970.0894
 872  874.9709
 873  745.3594
 874  658.3934
 875  685.1785
 876  756.3049
 877  894.0447
 878  974.96
 879  1070.572
 880  1140.695
 881  1251.289
 882  1305.956
 883  1476.547
 884  1541.505
 885  1543.275
 886  1457.875
 887  1344.982
 888  1144.743
 889  1087.325
 890  921.0234
 891  891.6436
 892  821.2391
 893  876.8825
 894  970.2188
 895  890.4528
 896  886.6726
 897  917.3973
 898  881.0347
 899  1064.889
 900  1093.15
 901  1051.301
 902  889.8156
 903  827.721
 904  670.0648
 905  490.9888
 906  370.6194
 907  450.2938
 908  583.032
 909  794.0186
 910  901.9302
 911  953.8064
 912  919.5813
 913  1034.686
 914  1161.069
 915  1258.011
 916  1253.277
 917  1427.861
 918  1442.8
 919  1348.706
 920  1047.934
 921  839.3254
 922  702.1068
 923  676.072
 924  718.7657
 925  527.8487
 926  583.173
 927  700.1666
 928  795.2424
 929  792.7384
 930  707.8644
 931  787.8142
 932  848.2965
 933  1073.872
 934  1376.805
 935  1358.941
 936  1179.69
 937  871.2411
 938  740.2589
 939  636.4626
 940  467.3441
 941  479.4225
 942  536.1659
 943  640.7299
 944  754.2727
 945  991.1218
 946  1135.831
 947  1269.348
 948  1302.312
 949  1485.279
 950  1560.234
 951  1607.139
 952  1487.665
 953  1369.993
 954  1039.94
 955  855.3745
 956  697.7412
 957  758.3692
 958  798.9493
 959  786.1854
 960  640.7906
 961  697.2855
 962  756.7335
 963  616.0458
 964  525.3428
 965  566.1258
 966  705.3972
 967  930.651
 968  1082.607
 969  1120.598
 970  909.6678
 971  648.4366
 972  500.706
 973  500.2616
 974  528.6283
 975  628.9063
 976  710.2717
 977  970.6228
 978  941.1519
 979  956.2071
 980  926.3133
 981  1119.315
 982  1342.525
 983  1397.767
 984  1403.244
 985  1283.86
 986  1247.614
 987  941.6152
 988  651.2792
 989  487.2017
 990  449.664
 991  503.8357
 992  481.4578
 993  524.3537
 994  601.3507
 995  698.4957
 996  692.8943
 997  546.7475
 998  492.0825
 999  783.8836
1000  1081.562
1001  1192.509
1002  1046.186
1003  870.0984
1004  793.9059
1005  692.9656
1006  755.3266
1007  796.9573
1008  829.6996
1009  707.2274
1010  663.9854
1011  676.2643
1012  785.905
1013  905.2531
1014  1128.209
1015  1266.932
1016  1358.554
1017  1498.026
1018  1611.643
1019  1587.824
1020  1311.582
1021  973.712
1022  714.8297
1023  690.3244
