# Input file       =  1205913080.105604_cleaned.dat
# Candidate        =  PSR_0332+5434
# Telescope        =  AR
# Epoch_topo       =  58201.327535944489
# Epoch_bary       =  N/A
# T_sample         =  0.002
# Data Folded      =  7143424
# Data Avg         =  0.446888509579217
# Data StdDev      =  5.92331279084241 
# Profile Bins     =  512
# Profile Avg      =  6234.81448857753 
# Profile StdDev   =  699.653322297644 
# Reduced chi-sqr  =  2.055
# Prob(Noise)      <  1.6e-39   (~13.1 sigma)
# P_topo (ms)      =  714.573765965426  +/- 2.27e-05
# P'_topo (s/s)    =  -0                +/- 1.23e-11
# P''_topo (s/s^2) =  0                 +/- 5.59e-15
# P_bary (ms)      =  N/A
# P'_bary (s/s)    =  N/A
# P''_bary (s/s^2) =  N/A
# P_orb (s)        =  N/A
# asin(i)/c (s)    =  N/A
# eccentricity     =  N/A
# w (rad)          =  N/A
# T_peri           =  N/A
######################################################
   0  7223.376
   1  6425.143
   2  6258.115
   3  5805.837
   4  5658.613
   5  5692.878
   6  5837.295
   7  6324.053
   8  6744.714
   9  6176.675
  10  5259.321
  11  5466.715
  12  5361.512
  13  5655.007
  14  5743.319
  15  7146.019
  16  7458.613
  17  6621.926
  18  6403.112
  19  6231.488
  20  6133.333
  21  5560.559
  22  5545.646
  23  5674.23
  24  6197.416
  25  6057.48
  26  6182.668
  27  5876.802
  28  5265.346
  29  5211.59
  30  4553.279
  31  5697.745
  32  7090.378
  33  7127.283
  34  7116.732
  35  6461.333
  36  6111.417
  37  5828.763
  38  5470.767
  39  5802.149
  40  5731.888
  41  6431.225
  42  6251.928
  43  5871.356
  44  5521.668
  45  5396.679
  46  4975.576
  47  5271.734
  48  6119.503
  49  6517.659
  50  6718.172
  51  6472.474
  52  6390.71
  53  5952.908
  54  5502.534
  55  5888.295
  56  5646.078
  57  6133.462
  58  6473.881
  59  6252.074
  60  5993.382
  61  5938.722
  62  5703.841
  63  5351.392
  64  5735.896
  65  6823.283
  66  7382.036
  67  6904.284
  68  6720.092
  69  6409.723
  70  5766.884
  71  5837.057
  72  5693.335
  73  6060.556
  74  6051.595
  75  6070.415
  76  6123.869
  77  5917.092
  78  6442.484
  79  5505.75
  80  5816.807
  81  6584.635
  82  7363.827
  83  6914.54
  84  6328.719
  85  6702.482
  86  6478.685
  87  6456.542
  88  6011.23
  89  5898.215
  90  6673.71
  91  6858.901
  92  6483.612
  93  6115.458
  94  5557.371
  95  5184.877
  96  5656.665
  97  6756.376
  98  7398.942
  99  7432.71
 100  6953.563
 101  6868.072
 102  6364.415
 103  6264.601
 104  5860.126
 105  6007.249
 106  6324.528
 107  6913.798
 108  6786.958
 109  6092.606
 110  5885.365
 111  5760.81
 112  5607.602
 113  5782.496
 114  7100.944
 115  7708.668
 116  7138.055
 117  6658.94
 118  6523.929
 119  6215.613
 120  5781.418
 121  5587.58
 122  6248.446
 123  6629.406
 124  6634.126
 125  6436.893
 126  5673.062
 127  5742.66
 128  5262.171
 129  5271.895
 130  5832.448
 131  6630.946
 132  7099.796
 133  6978.134
 134  6788.447
 135  6226.55
 136  5701.644
 137  5342.961
 138  4810.115
 139  5729.108
 140  6362.802
 141  5967.104
 142  5898.309
 143  5830.974
 144  5435.928
 145  5011.246
 146  4920.223
 147  5657.367
 148  6609.514
 149  6975.851
 150  6654.543
 151  6805.717
 152  6307.007
 153  5966.248
 154  5443.33
 155  5683.998
 156  6316.695
 157  6515.462
 158  6336.323
 159  6092.589
 160  5841.259
 161  5517.282
 162  5253.963
 163  5332.504
 164  6259.437
 165  6812.101
 166  6808.491
 167  6450.168
 168  6497.832
 169  6306.069
 170  5957.429
 171  5719.612
 172  6354.59
 173  6738.105
 174  6268.234
 175  5821.794
 176  5862.044
 177  6104.233
 178  6137.132
 179  6138.344
 180  7141.649
 181  7358.393
 182  7246.318
 183  6645.94
 184  6360.847
 185  5994.298
 186  5495.917
 187  5460.344
 188  6127.488
 189  6834.838
 190  6807.556
 191  6658.789
 192  6108.297
 193  5409.975
 194  5126.944
 195  5401.584
 196  6222.428
 197  6939.11
 198  7387.028
 199  6849.775
 200  6368.638
 201  6100.169
 202  5793.067
 203  5212.684
 204  5115.702
 205  5952.044
 206  6665.313
 207  6349.256
 208  5624.091
 209  5402.977
 210  4855.22
 211  4279.928
 212  4441.168
 213  5693.149
 214  6773.007
 215  7145.358
 216  6747.963
 217  6291.601
 218  5572.452
 219  4826.391
 220  4426.76
 221  4811.707
 222  6011.292
 223  6439.509
 224  6113.449
 225  5579.894
 226  4909.8
 227  4561.789
 228  4288.014
 229  5123.675
 230  6060.9
 231  6746.878
 232  6621.565
 233  6125.742
 234  5759.163
 235  5392.065
 236  4711.18
 237  4956.378
 238  5427.085
 239  5848.231
 240  5864.413
 241  5273.736
 242  5405.11
 243  5193.53
 244  4987.854
 245  5181.465
 246  5921.724
 247  6526.347
 248  6633.426
 249  6335.091
 250  6175.789
 251  6087.842
 252  5417.51
 253  5419.246
 254  5692.265
 255  5966.934
 256  6216.222
 257  5908.067
 258  5281.75
 259  5255.507
 260  5211.6
 261  5098.102
 262  5736.406
 263  6317.048
 264  6813.794
 265  6689.346
 266  6429.356
 267  6627.209
 268  5652.668
 269  5728.181
 270  5429.254
 271  5933.105
 272  6372.171
 273  6272.248
 274  6413.167
 275  5517.644
 276  5526.149
 277  4969.178
 278  5124.482
 279  6780.691
 280  7729.643
 281  7537.347
 282  6616.826
 283  6836.476
 284  6303.265
 285  6105.965
 286  5914.972
 287  6421.026
 288  7258.868
 289  7596.883
 290  7306.489
 291  6592.687
 292  6415.278
 293  5612.426
 294  5557.039
 295  6068.332
 296  7416.848
 297  8041.773
 298  7882.088
 299  7966.229
 300  7915.334
 301  7821.54
 302  7511.05
 303  7851.45
 304  8688.599
 305  8872.772
 306  8276.738
 307  7002.179
 308  6341.033
 309  6154.226
 310  5585.496
 311  5832.008
 312  6415.373
 313  7274.95
 314  7084.061
 315  7298.77
 316  7077.042
 317  6388.502
 318  6422.895
 319  6309.01
 320  6718.306
 321  7170.961
 322  7226.186
 323  6120.985
 324  5975.038
 325  6127.861
 326  5902.635
 327  5664.015
 328  5785.33
 329  7072.448
 330  7592.183
 331  7574.369
 332  7194.058
 333  6796.794
 334  6570.974
 335  5909.076
 336  6292.843
 337  6325.674
 338  6870.365
 339  6886.175
 340  6118.704
 341  6072.105
 342  5976.792
 343  5995.028
 344  5984.438
 345  6563.58
 346  7529.885
 347  7205.911
 348  6933.703
 349  6788.118
 350  6598.548
 351  5832.45
 352  6002.762
 353  6320.925
 354  6819.543
 355  7257.64
 356  6314.636
 357  5933.272
 358  5705.643
 359  5312.431
 360  5381.046
 361  6057.79
 362  7493.138
 363  7709.723
 364  7527.951
 365  6906.251
 366  6854.569
 367  6337.818
 368  5867.07
 369  5976.572
 370  6715.222
 371  7657.091
 372  7391.854
 373  6724.292
 374  6140.866
 375  6073.462
 376  5484.288
 377  5508.122
 378  6729.649
 379  8059.424
 380  8117.209
 381  7282.538
 382  6878.18
 383  6745.237
 384  6204.151
 385  5771.858
 386  5999.492
 387  7103.096
 388  6884.793
 389  7040.39
 390  6660.279
 391  6446.832
 392  6289.429
 393  5459.684
 394  6068.888
 395  7209.038
 396  7748.188
 397  7683.53
 398  7076.1
 399  6854.977
 400  6618.853
 401  6454.054
 402  6072.971
 403  6563.214
 404  6967.342
 405  6960.269
 406  6376.052
 407  6119.409
 408  6230.782
 409  5465.273
 410  5594.404
 411  6497.747
 412  7403.912
 413  7592.863
 414  7175.988
 415  7059.314
 416  6656.038
 417  6561.037
 418  5913.985
 419  5911.312
 420  6617.069
 421  6936.146
 422  6296.826
 423  6045.626
 424  6104.794
 425  5965.648
 426  5656.872
 427  6041.569
 428  7027.759
 429  7812.066
 430  7304.262
 431  6954.223
 432  6467.538
 433  5953.208
 434  5766.292
 435  5865.27
 436  6667.082
 437  7292.146
 438  6970.522
 439  6389.596
 440  6224.668
 441  6108.446
 442  5866.926
 443  5769.117
 444  6583.618
 445  7576.674
 446  7784.506
 447  6914.967
 448  6427.839
 449  6637.51
 450  6183.355
 451  5868.977
 452  5975.867
 453  6449.043
 454  6879.539
 455  6364.342
 456  5822.377
 457  5245.972
 458  5315.438
 459  5238.006
 460  5558.171
 461  6498.881
 462  7202.62
 463  6871.317
 464  6337.722
 465  6414.592
 466  5931.897
 467  5577.928
 468  5626.83
 469  5947.924
 470  6251.195
 471  6293.421
 472  5579.5
 473  5271.838
 474  5490.535
 475  5344.239
 476  5548.447
 477  5936.099
 478  6960.118
 479  7065.09
 480  6364.533
 481  6258.01
 482  6106.642
 483  5901.223
 484  5598.863
 485  5539.377
 486  6053.727
 487  6342.581
 488  6065.491
 489  5591.304
 490  5604.194
 491  5731.914
 492  4978.633
 493  5475.954
 494  6292.151
 495  6692.663
 496  6424.74
 497  6247.54
 498  5902.714
 499  5967.092
 500  5600.999
 501  5325.634
 502  5607.665
 503  6033.974
 504  6174.434
 505  5800.699
 506  5523.157
 507  5009.764
 508  5162.502
 509  5155.35
 510  5628.16
 511  6951.653
