# Input file       =  1205310301.106354_cleaned.dat
# Candidate        =  PSR_0332+5434
# Telescope        =  AR
# Epoch_topo       =  58194.350927156876
# Epoch_bary       =  N/A
# T_sample         =  0.002
# Data Folded      =  7274496
# Data Avg         =  0.625559484524243
# Data StdDev      =  6.12127853806579 
# Profile Bins     =  512
# Profile Avg      =  8888.10779134272 
# Profile StdDev   =  729.639968589871 
# Reduced chi-sqr  =  3.052
# Prob(Noise)      <  1.52e-106   (~21.9 sigma)
# P_topo (ms)      =  714.576757742611  +/- 1.52e-05
# P'_topo (s/s)    =  -0                +/- 8.07e-12
# P''_topo (s/s^2) =  0                 +/- 3.6e-15
# P_bary (ms)      =  N/A
# P'_bary (s/s)    =  N/A
# P''_bary (s/s^2) =  N/A
# P_orb (s)        =  N/A
# asin(i)/c (s)    =  N/A
# eccentricity     =  N/A
# w (rad)          =  N/A
# T_peri           =  N/A
######################################################
   0  7440.681
   1  7460.85
   2  8030.292
   3  8655.177
   4  8929.232
   5  9357.73
   6  9935.854
   7  9267.948
   8  7985.161
   9  7784.983
  10  8125.465
  11  8323.281
  12  8579.991
  13  8904.05
  14  9147.744
  15  8585.649
  16  7649.066
  17  7243.026
  18  7662.96
  19  8490.915
  20  8789.72
  21  9284.581
  22  9724.483
  23  9179.377
  24  8497.756
  25  7438.36
  26  6871.277
  27  7468.726
  28  8140.045
  29  8606.701
  30  8718.627
  31  8857.098
  32  8245.141
  33  7368.389
  34  7348.765
  35  7653.896
  36  8168.113
  37  8742.433
  38  9250.737
  39  9553.476
  40  8675.467
  41  8047.041
  42  7330.988
  43  7001.148
  44  7496.911
  45  8305.112
  46  8526.656
  47  8410.177
  48  8601.892
  49  8327.468
  50  7407.27
  51  7691.746
  52  8462.652
  53  8720.058
  54  9261.908
  55  10041.77
  56  9870.696
  57  8963.25
  58  8081.748
  59  7668.773
  60  7345.267
  61  7695.235
  62  8240.134
  63  8574.51
  64  9063.135
  65  8582.529
  66  7535.104
  67  6935.58
  68  7467.809
  69  7820.569
  70  8033.146
  71  9076.689
  72  9567.206
  73  8898.203
  74  8226.786
  75  7420.254
  76  7378.567
  77  7020.124
  78  7898.721
  79  8404.371
  80  8400.501
  81  8315.378
  82  7686.88
  83  7142.782
  84  7297.098
  85  8495.231
  86  9064.526
  87  9143.81
  88  9083.71
  89  8847.752
  90  8320.192
  91  7373.397
  92  6856.807
  93  7182.673
  94  7980.842
  95  8528.438
  96  8715.759
  97  8728.89
  98  8369.248
  99  7390.937
 100  6980.986
 101  8090.851
 102  8724.448
 103  8844.833
 104  9551.861
 105  9633.015
 106  9108.75
 107  7420.977
 108  7785.903
 109  7906.8
 110  8020.756
 111  8533.975
 112  8898.904
 113  9136.768
 114  8761.174
 115  7895.257
 116  7236.057
 117  7337.731
 118  8104.233
 119  8888.641
 120  9269.047
 121  9779.094
 122  9764.435
 123  8995.677
 124  7785.735
 125  7171.692
 126  7922.523
 127  8752.043
 128  9165.467
 129  9875.377
 130  10302.79
 131  9408.344
 132  7860.422
 133  7686.736
 134  8410.163
 135  8945.386
 136  9479.432
 137  10008.45
 138  10806.52
 139  10068.64
 140  9112.118
 141  8595.859
 142  8022.685
 143  8491.759
 144  8515.759
 145  9856.457
 146  10256.14
 147  10210.84
 148  9298.678
 149  8727.2
 150  8431.203
 151  8706.54
 152  9298.801
 153  9815.138
 154  10758.51
 155  10409.01
 156  9812.381
 157  8989.816
 158  8060.38
 159  8604.841
 160  8897.146
 161  9346.73
 162  9838.503
 163  9914.033
 164  9564.179
 165  8826.465
 166  8610.771
 167  8983.263
 168  9388.54
 169  9886.324
 170  10756.9
 171  10630.51
 172  10056.59
 173  9496.888
 174  9213.07
 175  9169.009
 176  9416.04
 177  9734.498
 178  10079.3
 179  10696.92
 180  10635.74
 181  9307.503
 182  9276.55
 183  8972.844
 184  9694.031
 185  10089.34
 186  10230.05
 187  10927.65
 188  10947.46
 189  9929.949
 190  9159.542
 191  8944.452
 192  9057.501
 193  9453.793
 194  9821.484
 195  10498.46
 196  10191.79
 197  9678.688
 198  8941.812
 199  7851.066
 200  8237.067
 201  9067.618
 202  10029.44
 203  10787.48
 204  11069.59
 205  10613.03
 206  9273.149
 207  8648.62
 208  8013.967
 209  8320.84
 210  9071.999
 211  9895.527
 212  10441.03
 213  9986.024
 214  9437.384
 215  7892.651
 216  7751.856
 217  8447.443
 218  9179.267
 219  9563.114
 220  10107.64
 221  10114.6
 222  9214.69
 223  8678.24
 224  8206.416
 225  8100.559
 226  8333.191
 227  9090.489
 228  9503.273
 229  9832.325
 230  9399.62
 231  8773.817
 232  8569.193
 233  8163.872
 234  8856.506
 235  9702.751
 236  9953.812
 237  10275.22
 238  9699.901
 239  9196.802
 240  8857.463
 241  8643.354
 242  8395.669
 243  8673.76
 244  9277.409
 245  9623.722
 246  9488.577
 247  8927.373
 248  8059.021
 249  8239.276
 250  9108.196
 251  9371.436
 252  9399.109
 253  10168.69
 254  9961.564
 255  9596.262
 256  8953.454
 257  8370.646
 258  8657.793
 259  8862.006
 260  9335.77
 261  9802.228
 262  10058.15
 263  9356.791
 264  8495.688
 265  8156.345
 266  8636.802
 267  9392.839
 268  9892.546
 269  10557.74
 270  10771.82
 271  10307.8
 272  9503.507
 273  8687.281
 274  8657.111
 275  8907.117
 276  9683.923
 277  10462.41
 278  10556.12
 279  10576.92
 280  9619.062
 281  9112.977
 282  8994.498
 283  9129.508
 284  10058.21
 285  10244.31
 286  10851.76
 287  11263.77
 288  10371.39
 289  9321.359
 290  8454.08
 291  8490.828
 292  9373.116
 293  9593.938
 294  10302.77
 295  10391.17
 296  9591.817
 297  8909.323
 298  8327.992
 299  9018.693
 300  9621.82
 301  10875.19
 302  11474.43
 303  12455.19
 304  12115.25
 305  10718.81
 306  9494.992
 307  8259.396
 308  8343.273
 309  8688.741
 310  9612.272
 311  10126.28
 312  9684.54
 313  9222.743
 314  8192.413
 315  7864.892
 316  8336.507
 317  9128.298
 318  9705.354
 319  10334.78
 320  10392.13
 321  9412.879
 322  8222.94
 323  8122.28
 324  8271.242
 325  8541.245
 326  8734.724
 327  9439.605
 328  9791.551
 329  9606.259
 330  8111.729
 331  7690.427
 332  7929.996
 333  8355.479
 334  8998.069
 335  9701.754
 336  9833.087
 337  9148.322
 338  8398.019
 339  7398.31
 340  7320.431
 341  8321.441
 342  8479.398
 343  8881.1
 344  9593.889
 345  9122.547
 346  8467.399
 347  7836.862
 348  7772.504
 349  8303.905
 350  8833.836
 351  9488.089
 352  10308.14
 353  10211.46
 354  9257.248
 355  8395.709
 356  7543.431
 357  7469.772
 358  8206.724
 359  9347.451
 360  9642.269
 361  9455.615
 362  8654.219
 363  8140.961
 364  7693.149
 365  8064.392
 366  8764.011
 367  8894.49
 368  9517.28
 369  9746.583
 370  9778.374
 371  9229.87
 372  8198.943
 373  7946.005
 374  8316.177
 375  8690.994
 376  9031.268
 377  9118.723
 378  9054.466
 379  8272.194
 380  7735.345
 381  7212.961
 382  8375.631
 383  9143.143
 384  9923.218
 385  10066.36
 386  10030.32
 387  9456.532
 388  8284.795
 389  7882.988
 390  7629.33
 391  8513.802
 392  9083.518
 393  9799.629
 394  9753.722
 395  9253.701
 396  8885.276
 397  8002.892
 398  7905.724
 399  8849.978
 400  9056.394
 401  9917
 402  10702.84
 403  10046.35
 404  8962.665
 405  8482.559
 406  7764.957
 407  7645.6
 408  8403.617
 409  8652.907
 410  8916.724
 411  9296.135
 412  8917.349
 413  8370.222
 414  8386.936
 415  8623.07
 416  9116.109
 417  9299.508
 418  9988.577
 419  9992.036
 420  9558.437
 421  8822.915
 422  7827.634
 423  8282.854
 424  8393.564
 425  9077.596
 426  9571.158
 427  9115.221
 428  8628.405
 429  8497.184
 430  7918.824
 431  8273.108
 432  9071.559
 433  9753.699
 434  9830.281
 435  10284.16
 436  10117.89
 437  9163.024
 438  8478.488
 439  8508.428
 440  8764.23
 441  8488.567
 442  8948.293
 443  8954.226
 444  8827.36
 445  8193.083
 446  7951.863
 447  7891.313
 448  8494.342
 449  8581.466
 450  8921.146
 451  9461.156
 452  9810.382
 453  9147.454
 454  8139.008
 455  7778.916
 456  7970.295
 457  8455.104
 458  9081.597
 459  9656.335
 460  9669.947
 461  9065.153
 462  8061.562
 463  7381.769
 464  7858.716
 465  8466.262
 466  8945.667
 467  9793.564
 468  10132.75
 469  9803.163
 470  9024.709
 471  8124.345
 472  7677.905
 473  7962.604
 474  7935.326
 475  8472.858
 476  9508.424
 477  9371.329
 478  8598.751
 479  7750.209
 480  7286.562
 481  7793.544
 482  8662.752
 483  9272.321
 484  9661.012
 485  9839.243
 486  8995.845
 487  8219.212
 488  7487.33
 489  7585.148
 490  7722.75
 491  8425.602
 492  9239.214
 493  9231.722
 494  9157.802
 495  8239.639
 496  7190.548
 497  7351.104
 498  8044.851
 499  8866.555
 500  9160.955
 501  9578.7
 502  9399.141
 503  8577.294
 504  7767.97
 505  7287.293
 506  7901.935
 507  8284.162
 508  8361.011
 509  8604.207
 510  8784.578
 511  8145.728
