# Input file       =  1205913080.105604_cleaned.dat
# Candidate        =  PSR_0332+5434
# Telescope        =  AR
# Epoch_topo       =  58201.327535944489
# Epoch_bary       =  N/A
# T_sample         =  0.002
# Data Folded      =  7143424
# Data Avg         =  0.0850937837921376
# Data StdDev      =  1.00007889448683 
# Profile Bins     =  512
# Profile Avg      =  1187.16513908227 
# Profile StdDev   =  118.127903386974 
# Reduced chi-sqr  =  1.741
# Prob(Noise)      <  6.88e-23   (~9.8 sigma)
# P_topo (ms)      =  714.573765920023  +/- 0.000153
# P'_topo (s/s)    =  -0                +/- 8.3e-11
# P''_topo (s/s^2) =  0                 +/- 3.76e-14
# P_bary (ms)      =  N/A
# P'_bary (s/s)    =  N/A
# P''_bary (s/s^2) =  N/A
# P_orb (s)        =  N/A
# asin(i)/c (s)    =  N/A
# eccentricity     =  N/A
# w (rad)          =  N/A
# T_peri           =  N/A
######################################################
   0  1543.555
   1  1668.796
   2  1736.827
   3  1856.077
   4  1967.007
   5  1959.028
   6  1744.321
   7  1439.911
   8  1347.241
   9  1285.235
  10  1175.807
  11  1161.939
  12  1269.093
  13  1228.791
  14  1169.517
  15  1305.086
  16  1330.098
  17  1265.993
  18  1216.815
  19  1258.93
  20  1297.767
  21  1345.807
  22  1369.164
  23  1196.655
  24  1112.179
  25  1211.118
  26  1209.528
  27  1190.165
  28  1137.547
  29  1219.061
  30  1309.326
  31  1318.073
  32  1288.492
  33  1226.987
  34  1305.284
  35  1224.936
  36  1243.889
  37  1184.781
  38  1212.104
  39  1273.471
  40  1186.891
  41  1177.192
  42  1190.304
  43  1242.895
  44  1243.51
  45  1213.42
  46  1282.539
  47  1272.042
  48  1191.312
  49  1222.546
  50  1190.292
  51  1090.193
  52  1152.722
  53  1192.394
  54  1170.29
  55  1235.479
  56  1169.122
  57  1135.011
  58  1114.043
  59  1124.444
  60  1092.375
  61  1180.293
  62  1237.71
  63  1213.954
  64  1240.308
  65  1239.807
  66  1181.369
  67  1212.112
  68  1112.303
  69  1133.574
  70  1209.434
  71  1271.704
  72  1310.075
  73  1307.209
  74  1204.451
  75  1219.926
  76  1133.524
  77  1062.927
  78  1123.45
  79  1278.92
  80  1306.18
  81  1276.3
  82  1223.002
  83  1160.082
  84  1125.216
  85  1054.76
  86  1051.869
  87  1261.943
  88  1297.978
  89  1300.874
  90  1236.189
  91  1194.111
  92  1258.419
  93  1184.927
  94  1149.894
  95  1261.261
  96  1298.368
  97  1358.911
  98  1281.375
  99  1292.931
 100  1265.446
 101  1268.944
 102  1180.407
 103  1220.585
 104  1209.527
 105  1224.868
 106  1229.381
 107  1186.618
 108  1204.712
 109  1108.531
 110  1122.506
 111  1208.124
 112  1264.123
 113  1335.321
 114  1287.957
 115  1260.131
 116  1233.864
 117  1239.716
 118  1189.93
 119  1135.229
 120  1154.309
 121  1256.642
 122  1152.967
 123  1182.652
 124  1210.931
 125  1158.672
 126  1228.471
 127  1186.53
 128  1219.497
 129  1320.626
 130  1285.592
 131  1290.954
 132  1285.28
 133  1221.053
 134  1100.125
 135  1169.276
 136  1278.758
 137  1267.51
 138  1304.504
 139  1230.551
 140  1224.623
 141  1288.334
 142  1230.248
 143  1200.511
 144  1203.167
 145  1293.483
 146  1342.639
 147  1279.451
 148  1198.783
 149  1188.522
 150  1177.707
 151  1179.506
 152  1166.344
 153  1186.775
 154  1267.469
 155  1198.011
 156  1114.624
 157  1086.177
 158  1093.147
 159  1127.393
 160  1051.738
 161  1060.688
 162  1203.696
 163  1213.772
 164  1079.1
 165  1154.144
 166  1178.736
 167  1097.803
 168  1149.554
 169  1094.329
 170  1081.924
 171  1119.209
 172  1076.407
 173  1004.459
 174  1104.512
 175  1150.613
 176  1182.163
 177  1157.392
 178  1221.455
 179  1164.647
 180  1143.282
 181  1139.142
 182  1244.392
 183  1211.951
 184  1164.242
 185  1107.595
 186  1163.484
 187  1210.167
 188  1140.073
 189  1133.542
 190  1150.359
 191  1281.499
 192  1115.918
 193  1158.657
 194  1136.07
 195  1133.159
 196  1137.276
 197  1168.562
 198  1113.813
 199  1144.056
 200  1108.631
 201  1088.54
 202  1087.415
 203  1100.766
 204  1138.882
 205  1130.492
 206  1177.386
 207  1037.977
 208  1088.794
 209  1118.941
 210  1116.059
 211  1196.539
 212  1330.731
 213  1192.125
 214  1171.735
 215  1180.539
 216  1083.45
 217  1244.397
 218  1146.833
 219  1155.719
 220  1197.732
 221  1226.216
 222  1095.1
 223  1128.469
 224  1103.66
 225  1186.113
 226  1169.715
 227  1266.985
 228  1300.976
 229  1208.839
 230  1227.769
 231  1227.654
 232  1195.528
 233  1098.106
 234  1135.564
 235  1139.113
 236  1105.589
 237  1017.586
 238  1138.065
 239  1205.914
 240  1061.04
 241  1068.546
 242  1039.173
 243  1060.273
 244  1231.422
 245  1195.198
 246  1202.119
 247  1257.525
 248  1209.442
 249  1201.482
 250  1120.591
 251  1161.054
 252  1053.901
 253  1026.277
 254  1153.626
 255  1220.988
 256  1135.198
 257  1079.22
 258  1053.269
 259  1120.926
 260  1147.326
 261  1045.976
 262  1134.308
 263  1159.827
 264  1171.852
 265  1109.016
 266  1061.817
 267  1278.752
 268  1184.19
 269  1107.458
 270  1159.584
 271  1237.424
 272  1172.633
 273  1259.296
 274  1238.202
 275  1254.683
 276  1200.503
 277  1232.957
 278  1280.471
 279  1167.471
 280  1193.287
 281  1209.323
 282  1141.189
 283  1158.22
 284  1164.129
 285  1193.167
 286  1086.017
 287  1077.532
 288  1193.246
 289  1231.525
 290  1373.155
 291  1240.593
 292  1148.384
 293  1208.912
 294  1235.903
 295  1242.773
 296  1129.05
 297  1227.488
 298  1242.997
 299  1302.16
 300  1283.576
 301  1145.42
 302  1191.967
 303  1328.042
 304  1246.736
 305  1299.343
 306  1183.875
 307  1090.638
 308  1140.507
 309  1304.682
 310  1356.855
 311  1401.383
 312  1338.905
 313  1378.954
 314  1230.118
 315  1263.282
 316  1189.17
 317  1172.194
 318  1197.054
 319  1205.998
 320  1274.91
 321  1212.999
 322  1237.478
 323  1272.35
 324  1263.055
 325  1214.616
 326  1356.479
 327  1406.011
 328  1278.294
 329  1235.861
 330  1234.765
 331  1306.088
 332  1225.225
 333  1146.161
 334  1189.046
 335  1242.065
 336  1216.785
 337  1206.942
 338  1125.152
 339  1197.567
 340  1180.354
 341  1202.476
 342  1181.431
 343  1186.35
 344  1224.352
 345  1255.894
 346  1322.441
 347  1346.36
 348  1216.018
 349  1196.038
 350  1065.555
 351  1126.852
 352  1230.118
 353  1104.248
 354  1047.913
 355  1133.163
 356  1137.733
 357  1109.329
 358  1097.076
 359  1067.54
 360  1132.415
 361  1191.574
 362  1111.746
 363  1168.594
 364  1212.112
 365  1191.853
 366  1112.264
 367  1102.319
 368  1207.29
 369  1199.195
 370  1189.312
 371  1246.519
 372  1239.597
 373  1140.641
 374  1032.645
 375  1002.315
 376  1125.104
 377  1130.551
 378  1169.803
 379  1178.818
 380  1230.705
 381  1243.932
 382  1214.14
 383  1201.688
 384  1196.03
 385  1230.902
 386  1188.016
 387  1124.673
 388  1164.674
 389  1222.109
 390  1304.286
 391  1283.843
 392  1375.627
 393  1306.669
 394  1254.298
 395  1243.363
 396  1172.646
 397  1137.565
 398  1075.603
 399  1134.863
 400  1173.889
 401  1176.801
 402  1144.452
 403  1202.078
 404  1291.125
 405  1160.025
 406  1130.179
 407  1071.866
 408  1188.862
 409  1153.428
 410  1215.272
 411  1258.204
 412  1154.399
 413  1138.129
 414  1117.748
 415  1073.437
 416  1041.252
 417  1088.678
 418  1185.176
 419  1179.61
 420  1120.502
 421  1060.361
 422  1039.469
 423  1003.735
 424  950.1561
 425  1012.827
 426  1042.78
 427  1109.372
 428  1097.341
 429  1132.144
 430  1113.396
 431  1073.889
 432  940.9733
 433  905.2405
 434  1046.507
 435  1102.185
 436  1051.321
 437  1068.196
 438  1012.061
 439  994.8984
 440  935.9405
 441  1050.346
 442  1071.91
 443  1068.857
 444  1127.666
 445  1115.305
 446  1056.616
 447  981.8945
 448  923.5273
 449  976.3239
 450  1072.212
 451  1100.62
 452  1117.413
 453  1005.018
 454  1007.107
 455  1090.321
 456  1059.659
 457  1056.695
 458  1110.427
 459  1082.543
 460  1125.66
 461  1159.13
 462  1074.072
 463  1099.396
 464  1034.759
 465  1024.515
 466  1061.331
 467  1106.533
 468  1064.271
 469  1117.579
 470  1069.875
 471  999.5211
 472  1036.463
 473  1024.7
 474  1068.899
 475  1079.29
 476  1161.548
 477  1113.313
 478  1100.954
 479  1230.832
 480  1119.911
 481  1125.156
 482  1149.295
 483  1075.953
 484  1079.588
 485  1103.609
 486  1213.892
 487  1165.716
 488  1117.035
 489  1118.025
 490  994.3729
 491  1235.811
 492  1323.762
 493  1300.152
 494  1220.231
 495  1325.664
 496  1260.71
 497  1273.784
 498  1210.49
 499  1248.67
 500  1291.629
 501  1368.326
 502  1350.391
 503  1254.823
 504  1220.262
 505  1175.621
 506  1199.307
 507  1201.755
 508  1308.431
 509  1292.465
 510  1311.635
 511  1455.901
