# Input file       =  1205755380.118942_cleaned.dat
# Candidate        =  PSR_0332+5434
# Telescope        =  AR
# Epoch_topo       =  58199.502304617381
# Epoch_bary       =  N/A
# T_sample         =  0.002
# Data Folded      =  7340032
# Data Avg         =  0.561573897915617
# Data StdDev      =  5.77946447376044 
# Profile Bins     =  512
# Profile Avg      =  8052.12146693224 
# Profile StdDev   =  691.992830074986 
# Reduced chi-sqr  =  0.801
# Prob(Noise)      <  1   (~0.0 sigma)
# P_topo (ms)      =  714.574640602305  +/- 0.000605
# P'_topo (s/s)    =  -0                +/- 3.19e-10
# P''_topo (s/s^2) =  0                 +/- 1.41e-13
# P_bary (ms)      =  N/A
# P'_bary (s/s)    =  N/A
# P''_bary (s/s^2) =  N/A
# P_orb (s)        =  N/A
# asin(i)/c (s)    =  N/A
# eccentricity     =  N/A
# w (rad)          =  N/A
# T_peri           =  N/A
######################################################
   0  7716.514
   1  7579.503
   2  7417.05
   3  7504.275
   4  7711.148
   5  7651.48
   6  7836.427
   7  8179.818
   8  8150.44
   9  7827.575
  10  8237.234
  11  7930.326
  12  7621.618
  13  7855.041
  14  7701.934
  15  7932.2
  16  8059.204
  17  8068.141
  18  7772.933
  19  7491.862
  20  7255.702
  21  7184.663
  22  7411.877
  23  7516.954
  24  7575.77
  25  7351.866
  26  7234.752
  27  7317.634
  28  7599.477
  29  7620.617
  30  7460.796
  31  7496.635
  32  7487.489
  33  7647.34
  34  7358.282
  35  7961.397
  36  8395.545
  37  8136.924
  38  8190.926
  39  8055.164
  40  7764.448
  41  7936.678
  42  7864.669
  43  7818.998
  44  7915.108
  45  8004.194
  46  7806.788
  47  7412.005
  48  7569.719
  49  7694.971
  50  7504.886
  51  7568.499
  52  7982.725
  53  8178.151
  54  8081.25
  55  7657.329
  56  7673.249
  57  7838.837
  58  7768.452
  59  7718.672
  60  8135.551
  61  8383.372
  62  8091.902
  63  8109.777
  64  8216.844
  65  7865.129
  66  7836.187
  67  7894.733
  68  7714.253
  69  7729.07
  70  8122.815
  71  8231.165
  72  8337.967
  73  8630.446
  74  8336.715
  75  8274.72
  76  8350.328
  77  8487.859
  78  8528.731
  79  8287.025
  80  8306.379
  81  8050.106
  82  8001.026
  83  7928.86
  84  8318.316
  85  8518.738
  86  8458.986
  87  8399.041
  88  8448.192
  89  8436.347
  90  8484.192
  91  8430.464
  92  8156.607
  93  8357.278
  94  8338.414
  95  8643.93
  96  8830.801
  97  8450.754
  98  8057.245
  99  8222.206
 100  8537.677
 101  8470.898
 102  8461.755
 103  8791.527
 104  8755.882
 105  8538.575
 106  8451.672
 107  8461.242
 108  8704.424
 109  8504.115
 110  8298.171
 111  7973.864
 112  8085.089
 113  7802.042
 114  8422.074
 115  8483.136
 116  8715.988
 117  8476.384
 118  8451.823
 119  8356.949
 120  8438.803
 121  8479.7
 122  8464.801
 123  8301.266
 124  8483.869
 125  8581.754
 126  8172.429
 127  8219.101
 128  8146.867
 129  8368.442
 130  8077.233
 131  7911.488
 132  7964.322
 133  7807.824
 134  8358.624
 135  8616.565
 136  8358.235
 137  8084.652
 138  8453.533
 139  8630.695
 140  8528.451
 141  8560.941
 142  8187.011
 143  8001.058
 144  8269.769
 145  8295.645
 146  8277.646
 147  8532.355
 148  8051.255
 149  8396.925
 150  8411.889
 151  8142.133
 152  8189.911
 153  8337.736
 154  7993.453
 155  7781.046
 156  8134.467
 157  8307.007
 158  8215.339
 159  8001.401
 160  8159.571
 161  8166.864
 162  7993.077
 163  8076.247
 164  7905.076
 165  8252.409
 166  8074.458
 167  7997.746
 168  8193.846
 169  8441.915
 170  7745.173
 171  7748.704
 172  8401.508
 173  8273.9
 174  8304.573
 175  8255.826
 176  7867.558
 177  7933.425
 178  7808.079
 179  7749.767
 180  7674.042
 181  8016.061
 182  7777.359
 183  7631.533
 184  7980.11
 185  7548.631
 186  7700.142
 187  7488.62
 188  7544.69
 189  7676.837
 190  7646.842
 191  7898.173
 192  7796.912
 193  7707.679
 194  7459.102
 195  7589.132
 196  7814.629
 197  7863.077
 198  8028.783
 199  8264.776
 200  8711.499
 201  9168.784
 202  8611.771
 203  8667.61
 204  8219.691
 205  8314.56
 206  8324.339
 207  8624.309
 208  8641.188
 209  8496.395
 210  8420.814
 211  8453.615
 212  8584.835
 213  8377.062
 214  8348.429
 215  8145.599
 216  7923.867
 217  7991.977
 218  8164.526
 219  8244.347
 220  7989.237
 221  7479.28
 222  7742.947
 223  7435.065
 224  7572.178
 225  7606.06
 226  7550.116
 227  7533.635
 228  7418.714
 229  7543.512
 230  7909.62
 231  7731.188
 232  7688.62
 233  8061.547
 234  7989.407
 235  8252.323
 236  7877.631
 237  7834.317
 238  8281.849
 239  8313.179
 240  8021.489
 241  8258.382
 242  8569.219
 243  8414.575
 244  8028.56
 245  8144.474
 246  8354.299
 247  8259.174
 248  8206.218
 249  7968.135
 250  8125.459
 251  8280.876
 252  8254.011
 253  8292.251
 254  8384.03
 255  8347.214
 256  8403.068
 257  8133.54
 258  8402.462
 259  8127.337
 260  8227.288
 261  8088.433
 262  8315.445
 263  8520.506
 264  8622.928
 265  8710.243
 266  8341.367
 267  8375.807
 268  8320.926
 269  8265.253
 270  8464.198
 271  8566.378
 272  8794.727
 273  8469.037
 274  8240.914
 275  8470.726
 276  8249.875
 277  8340.611
 278  8281.231
 279  8228.285
 280  8349.971
 281  8475.068
 282  8264.022
 283  8281.965
 284  8051.343
 285  7836.498
 286  8158.831
 287  8139.707
 288  7772.263
 289  7976.107
 290  7843.262
 291  7776.169
 292  7838.333
 293  8232.512
 294  8032.672
 295  7849.873
 296  8268.965
 297  8505.631
 298  8181.134
 299  8095.981
 300  7727.329
 301  7477.319
 302  7631.741
 303  7668.326
 304  7964.256
 305  8178.981
 306  8232.769
 307  7983.23
 308  7795.937
 309  7865.258
 310  8223.883
 311  8267.808
 312  7954.944
 313  7610.143
 314  7437.497
 315  7545.875
 316  7815.833
 317  8196.878
 318  7918.981
 319  7634.585
 320  7304.094
 321  7722.642
 322  7440.332
 323  7528.896
 324  7904.664
 325  7916.33
 326  7789.404
 327  7623.842
 328  7694.254
 329  7565.272
 330  7781.864
 331  8080.542
 332  8123.08
 333  8216.724
 334  8229.036
 335  8089.541
 336  7971.509
 337  8105.577
 338  7752.674
 339  7647.841
 340  7592.705
 341  7819.958
 342  7683.355
 343  7713.521
 344  7720.191
 345  7249.54
 346  7120.395
 347  7411.213
 348  7311.81
 349  7248.263
 350  7315.422
 351  7290.235
 352  7222.692
 353  7193.139
 354  7477.147
 355  7426.544
 356  7823.029
 357  8007.658
 358  7340.891
 359  7635.211
 360  7758.639
 361  8002.784
 362  8123.393
 363  8449.575
 364  8482.946
 365  8621.108
 366  8160.848
 367  8023.89
 368  8109.696
 369  8219.286
 370  8451.488
 371  8309.977
 372  8346.921
 373  8600.561
 374  8576.919
 375  8533.648
 376  8292.94
 377  8754.765
 378  9125.103
 379  9192.339
 380  9779.89
 381  9892.611
 382  10390.85
 383  10307.48
 384  10237.93
 385  9741.396
 386  8924.287
 387  8322.838
 388  7885.167
 389  7327.512
 390  7489.876
 391  7558.216
 392  7739.39
 393  7679.451
 394  7599.454
 395  7930.93
 396  8065.031
 397  7732.455
 398  7847.606
 399  8404.903
 400  8508.232
 401  8149.078
 402  7974.43
 403  7935.035
 404  7563.966
 405  7902.02
 406  7751.996
 407  7413.362
 408  7670.014
 409  7607.082
 410  7526.487
 411  7757.349
 412  7905.032
 413  7941.452
 414  7767.519
 415  8171.126
 416  8092.615
 417  8094.631
 418  8009.207
 419  7985.672
 420  7874.843
 421  7890.944
 422  7965.797
 423  7875.908
 424  7456.105
 425  7416.472
 426  7403.592
 427  7429.303
 428  7252.709
 429  7097.954
 430  7302.897
 431  7456.151
 432  7238.421
 433  7450.627
 434  7522.864
 435  7720.95
 436  7319.567
 437  7382.782
 438  6908.33
 439  7139.026
 440  7150.64
 441  7299.677
 442  7138.619
 443  7385.152
 444  7723.759
 445  7636.477
 446  7566.382
 447  7339.74
 448  7547.791
 449  7495.711
 450  7748.978
 451  7931.976
 452  8132.35
 453  7971.554
 454  8350.307
 455  8490.27
 456  8217.051
 457  8353.438
 458  8350.002
 459  8304.268
 460  8353.523
 461  8386.354
 462  8185.856
 463  7749.408
 464  8224.255
 465  8269.382
 466  8462.349
 467  8380.36
 468  7892.374
 469  7795.195
 470  7719.675
 471  8146.242
 472  8049.145
 473  7873.042
 474  8089.447
 475  8244.464
 476  8289.596
 477  8112.705
 478  8398.604
 479  8277.38
 480  8224.767
 481  8140.714
 482  7951.93
 483  8049.441
 484  7901.424
 485  8060.929
 486  8275.171
 487  8116.097
 488  8254.165
 489  8435.244
 490  8478.598
 491  8328.063
 492  8373.065
 493  8263.975
 494  8137.497
 495  8381.155
 496  8613.293
 497  8458.122
 498  8414.354
 499  8639.731
 500  8857.135
 501  8770.482
 502  8837.827
 503  8714.502
 504  8626.683
 505  8162.176
 506  8072.25
 507  7729.668
 508  7912.587
 509  8089.703
 510  8030.672
 511  7855.71
