# Input file       =  1205654617.111455_cleaned.dat
# Candidate        =  PSR_0332+5434
# Telescope        =  AR
# Epoch_topo       =  58198.336066104806
# Epoch_bary       =  N/A
# T_sample         =  0.002
# Data Folded      =  7143424
# Data Avg         =  0.575369587789691
# Data StdDev      =  6.34163947312278 
# Profile Bins     =  512
# Profile Avg      =  8027.44867038215 
# Profile StdDev   =  749.065477859597 
# Reduced chi-sqr  =  1.704
# Prob(Noise)      <  3.55e-21   (~9.4 sigma)
# P_topo (ms)      =  714.575147386696  +/- 1.93e-05
# P'_topo (s/s)    =  -0                +/- 1.04e-11
# P''_topo (s/s^2) =  0                 +/- 4.74e-15
# P_bary (ms)      =  N/A
# P'_bary (s/s)    =  N/A
# P''_bary (s/s^2) =  N/A
# P_orb (s)        =  N/A
# asin(i)/c (s)    =  N/A
# eccentricity     =  N/A
# w (rad)          =  N/A
# T_peri           =  N/A
######################################################
   0  7795.27
   1  8042
   2  8425.229
   3  8171.857
   4  7662.149
   5  7117.959
   6  6940.143
   7  7393.996
   8  7600.978
   9  7952.566
  10  7846.068
  11  7620.544
  12  7123.871
  13  6915.08
  14  6596.333
  15  7160.662
  16  7648.688
  17  8193.697
  18  8411.56
  19  8522.846
  20  8404.935
  21  7367.175
  22  7044.025
  23  7483.901
  24  7559.725
  25  7944.617
  26  8486.76
  27  8546.642
  28  7735.857
  29  7446.201
  30  7467.156
  31  7397.695
  32  7699.522
  33  8619.928
  34  9125.128
  35  9106.607
  36  8706.485
  37  8099.059
  38  7460.096
  39  7622.972
  40  7941.959
  41  8184.896
  42  8605.429
  43  8441.07
  44  8478.367
  45  7823.679
  46  7175.171
  47  7157.495
  48  7740.591
  49  8502.854
  50  9105.304
  51  9395.795
  52  9115.707
  53  8189.741
  54  7970.754
  55  7719.413
  56  8020.956
  57  8490.998
  58  8632.818
  59  9285.867
  60  9320.116
  61  8608.47
  62  7871.285
  63  7748.927
  64  8404.263
  65  8668.242
  66  8936.013
  67  9091.587
  68  8965.484
  69  8699.424
  70  8120.879
  71  7342.087
  72  7656.612
  73  8244.203
  74  8980.356
  75  8869.605
  76  8557.086
  77  8277.444
  78  7586.81
  79  7289.511
  80  7326.582
  81  7748.434
  82  8343.814
  83  8965.567
  84  9224.829
  85  9189.466
  86  8684.638
  87  7686.92
  88  7719.365
  89  8064.752
  90  8270.878
  91  8693.193
  92  8773.414
  93  8631.494
  94  7592.996
  95  7249.384
  96  7119.079
  97  7377.166
  98  8029.995
  99  8673.514
 100  9100.063
 101  8950.086
 102  8518.873
 103  7849.279
 104  7200.934
 105  7169.915
 106  7812.409
 107  7992.087
 108  8405.383
 109  8623.102
 110  8161.927
 111  7472.372
 112  6996.672
 113  7004.523
 114  7084.23
 115  8011.764
 116  8362.919
 117  8357.894
 118  8348.589
 119  7709.795
 120  6961.019
 121  6675.363
 122  7118.725
 123  7808.734
 124  7958.345
 125  8074.231
 126  7910.188
 127  7302.587
 128  6676.33
 129  6851.702
 130  7226.782
 131  7899.276
 132  8265.851
 133  8893.567
 134  9096.661
 135  8600.016
 136  7480.692
 137  7340.982
 138  7581.297
 139  7607.933
 140  7712.047
 141  7929.257
 142  8279.98
 143  8152.507
 144  7297.503
 145  6967.135
 146  7167.875
 147  7850.628
 148  8118.638
 149  8533.33
 150  8935.418
 151  8837.723
 152  8492.147
 153  7656.077
 154  6704.41
 155  7200.813
 156  7953.808
 157  8210.19
 158  8231.232
 159  8385.942
 160  8173.526
 161  7380.967
 162  7187.239
 163  7054.919
 164  7593.12
 165  8890.042
 166  9000.592
 167  9000.409
 168  9006.042
 169  8192.049
 170  7711.256
 171  7782.953
 172  7707.204
 173  8337.786
 174  8794.131
 175  8665.349
 176  8597.448
 177  8096.561
 178  7231.271
 179  7201.206
 180  7538.859
 181  8323.689
 182  9008.257
 183  9430.257
 184  9472.289
 185  8727.555
 186  7459.135
 187  7274.252
 188  7836.746
 189  8321.134
 190  8725.01
 191  8815.682
 192  8914.813
 193  8031.855
 194  7364.638
 195  7487.623
 196  8288.201
 197  8624.094
 198  8865.997
 199  9067.492
 200  9019.438
 201  8709.585
 202  8398.293
 203  7927.534
 204  7934.634
 205  8148.771
 206  8936.787
 207  9062.583
 208  9036.969
 209  8835.909
 210  8210.49
 211  7453.161
 212  7494.421
 213  8220.479
 214  9173.363
 215  9431.494
 216  9526.442
 217  9290.448
 218  8630.378
 219  7666.664
 220  7833.867
 221  8425.525
 222  8753.437
 223  8449.984
 224  8907.313
 225  8611.56
 226  8359.518
 227  8127.779
 228  7687.783
 229  8276.259
 230  8630.679
 231  8975.065
 232  9283.552
 233  9675.563
 234  8865.377
 235  8326.276
 236  7596.378
 237  7386.582
 238  7826.443
 239  8460.994
 240  8832.57
 241  8699.689
 242  8768.945
 243  7609.753
 244  6804.025
 245  6742.73
 246  7392.512
 247  8075.583
 248  8972.908
 249  9047.47
 250  9206.91
 251  8509.194
 252  7241.949
 253  6754.979
 254  7275.659
 255  7703.675
 256  7881.011
 257  7945.168
 258  8323.145
 259  7653.848
 260  7012.547
 261  6583.75
 262  7077.448
 263  7637.52
 264  8360.134
 265  8586.635
 266  8903.759
 267  8612.387
 268  7772.777
 269  6886.405
 270  6970.125
 271  7531.959
 272  7951.204
 273  8473.556
 274  8243.256
 275  7972.644
 276  7031.708
 277  6446.952
 278  6776.775
 279  7008.781
 280  8004.717
 281  8231.74
 282  8650.69
 283  8012.283
 284  7781.493
 285  7287.291
 286  6697.133
 287  7370.526
 288  7551.927
 289  7875.716
 290  7830.075
 291  8164.25
 292  7841.9
 293  6747.439
 294  6532.682
 295  7115.38
 296  7648.126
 297  7820.418
 298  8240.667
 299  8859.521
 300  8748.23
 301  8715.142
 302  8451.087
 303  8427.729
 304  8579.198
 305  8621.268
 306  8248.536
 307  8577.252
 308  8340.838
 309  7453.156
 310  6924.993
 311  6954.995
 312  7435.117
 313  8560.567
 314  9034.157
 315  8999.077
 316  8971.584
 317  8369.12
 318  7547.334
 319  7201.314
 320  7387.917
 321  8150.668
 322  8356.293
 323  8610.372
 324  8510.391
 325  7651.418
 326  6742.71
 327  6729.054
 328  7163.558
 329  7682.946
 330  8020.476
 331  8576.22
 332  9154.093
 333  8560.661
 334  8031.76
 335  7087.433
 336  7238.624
 337  7501.256
 338  8210.725
 339  8832.293
 340  8846.385
 341  8025.802
 342  7500.534
 343  6926.827
 344  6710.063
 345  7253.087
 346  8137.729
 347  9164.577
 348  9280.547
 349  9038.569
 350  8648.176
 351  7582.58
 352  6987.827
 353  7187.662
 354  7655.521
 355  7641.583
 356  7874.982
 357  7967.31
 358  7634.071
 359  7000.175
 360  6936.035
 361  6659.666
 362  7176.213
 363  8241.739
 364  8729.334
 365  8343.915
 366  8045.819
 367  7615.763
 368  7098.06
 369  7295.608
 370  7071.581
 371  7328.735
 372  7766.135
 373  8176.4
 374  7835.821
 375  7507.533
 376  6998.417
 377  6884.121
 378  7405.625
 379  7860.053
 380  8471.654
 381  8825.982
 382  8699.065
 383  8450.479
 384  7978.573
 385  7451.556
 386  7244.714
 387  7623.978
 388  7987.028
 389  7913.446
 390  8227.003
 391  7690.068
 392  7074.574
 393  6610.526
 394  6723.899
 395  7276.806
 396  8393.036
 397  8919.826
 398  9005.528
 399  8671.421
 400  7691.38
 401  6700.723
 402  6750.695
 403  7212.048
 404  7974.085
 405  8493.104
 406  8891.141
 407  8485.226
 408  7604.646
 409  6882.064
 410  6895.168
 411  7582.401
 412  8281.824
 413  8961.939
 414  9481.269
 415  9433.409
 416  8818.681
 417  7569.086
 418  7762.621
 419  8172.494
 420  8714.928
 421  8667.532
 422  8776.832
 423  8466.595
 424  7983.45
 425  7734.101
 426  7554.742
 427  7480.477
 428  8154.604
 429  8832.935
 430  8565.351
 431  8881.655
 432  9090.664
 433  8381.321
 434  7561.215
 435  7338.923
 436  7589.982
 437  8099.347
 438  8402.811
 439  8292.812
 440  8184.582
 441  7793.168
 442  7381.235
 443  7666.632
 444  7747.875
 445  8373.958
 446  8255.591
 447  8980.85
 448  9205.358
 449  9332.254
 450  8652.321
 451  7720.139
 452  7706.251
 453  8526.324
 454  8510.502
 455  8641.662
 456  9051.716
 457  8568.438
 458  7860.114
 459  7220.723
 460  7092.021
 461  8019.377
 462  8373.123
 463  9026.222
 464  9386.252
 465  9589.163
 466  8311.224
 467  7740.532
 468  7766.685
 469  8018.727
 470  8720.229
 471  8458.832
 472  8496.965
 473  8389.453
 474  7830.524
 475  7159.232
 476  6987.59
 477  7452.029
 478  8159.551
 479  8883.551
 480  9370.787
 481  9036.303
 482  8685.752
 483  7785.749
 484  7161.389
 485  7575.158
 486  7877.938
 487  8076.351
 488  8452.952
 489  8461.907
 490  8221.143
 491  7236.983
 492  6877.783
 493  7203.336
 494  7646.255
 495  8366.974
 496  9004.896
 497  9135.47
 498  8685.535
 499  7845.277
 500  7341.186
 501  7207.056
 502  7393.271
 503  7907.935
 504  8069.048
 505  8335.453
 506  8268.521
 507  7565.973
 508  6908.361
 509  6489.782
 510  6768.373
 511  7572.334
