# Input file       =  1205498225.096636_cleaned.dat
# Candidate        =  PSR_0332+5434
# Telescope        =  AR
# Epoch_topo       =  58196.525973340693
# Epoch_bary       =  N/A
# T_sample         =  0.002
# Data Folded      =  7340032
# Data Avg         =  0.0663541581813663
# Data StdDev      =  1.00010111943334 
# Profile Bins     =  512
# Profile Avg      =  951.25412576914  
# Profile StdDev   =  119.745143713557 
# Reduced chi-sqr  =  1.787
# Prob(Noise)      <  3.72e-25   (~10.3 sigma)
# P_topo (ms)      =  714.575949844898  +/- 0.000912
# P'_topo (s/s)    =  -0                +/- 4.81e-10
# P''_topo (s/s^2) =  0                 +/- 2.12e-13
# P_bary (ms)      =  N/A
# P'_bary (s/s)    =  N/A
# P''_bary (s/s^2) =  N/A
# P_orb (s)        =  N/A
# asin(i)/c (s)    =  N/A
# eccentricity     =  N/A
# w (rad)          =  N/A
# T_peri           =  N/A
######################################################
   0  1046.293
   1  1126.99
   2  1150.109
   3  1071.162
   4  1012.06
   5  1027.623
   6  1027.292
   7  1076.815
   8  1090.729
   9  1132.553
  10  1066.153
  11  1091.197
  12  1158.79
  13  1160.408
  14  1199.66
  15  1121.921
  16  964.558
  17  1041.859
  18  1189.585
  19  1092.457
  20  1078.452
  21  1121.369
  22  1200.877
  23  1119.381
  24  1085.924
  25  1081.279
  26  1068.638
  27  1126.826
  28  1072.988
  29  1005.627
  30  1036.299
  31  1145.239
  32  1175.281
  33  1174.686
  34  1211
  35  1191.705
  36  1207.185
  37  1128.22
  38  1045.658
  39  1075.034
  40  1045.839
  41  1028.68
  42  1019.916
  43  1112.558
  44  1211.544
  45  1178.102
  46  1121.654
  47  1119.445
  48  1116.183
  49  1138.131
  50  1133.394
  51  1135.703
  52  1117.779
  53  1135.323
  54  1129.255
  55  1200.485
  56  1212.893
  57  1149.881
  58  1078.366
  59  1101.23
  60  1107.848
  61  1047.987
  62  1081.001
  63  1111.331
  64  1095.208
  65  1091.421
  66  995.4117
  67  1003.44
  68  1104.616
  69  1153.576
  70  1117.179
  71  1118.332
  72  1169.228
  73  1036.036
  74  1099.24
  75  1119.504
  76  1128.41
  77  1131.42
  78  1043.484
  79  1154.072
  80  1120.354
  81  1068.131
  82  964.9964
  83  973.5021
  84  1017.415
  85  919.39
  86  955.1441
  87  986.5569
  88  965.7646
  89  991.5344
  90  932.6045
  91  889.8638
  92  815.6719
  93  932.7754
  94  954.2136
  95  954.7901
  96  908.224
  97  925.2122
  98  985.577
  99  931.2191
 100  901.698
 101  1028.527
 102  1019.076
 103  1080.01
 104  963.5735
 105  943.7057
 106  981.1529
 107  933.9883
 108  929.7977
 109  990.7189
 110  1066.554
 111  1037.307
 112  933.88
 113  968.8819
 114  985.1368
 115  930.0856
 116  922.1231
 117  980.0065
 118  997.6829
 119  1011.371
 120  991.8004
 121  877.6263
 122  882.0362
 123  895.9164
 124  883.5479
 125  932.769
 126  979.178
 127  965.5977
 128  1021.172
 129  1001.472
 130  928.7612
 131  970.6106
 132  916.7128
 133  851.1092
 134  939.0437
 135  1085.187
 136  1025.091
 137  951.2899
 138  985.3001
 139  1035.454
 140  1049.263
 141  887.1674
 142  938.0098
 143  1020.363
 144  955.2821
 145  968.2348
 146  988.0772
 147  937.3998
 148  893.7314
 149  847.1218
 150  954.1155
 151  882.9304
 152  911.4604
 153  953.2518
 154  908.5684
 155  877.8484
 156  957.7341
 157  885.1257
 158  807.2489
 159  726.3396
 160  734.8538
 161  800.6931
 162  835.9496
 163  881.9163
 164  828.439
 165  810.7124
 166  893.2324
 167  919.7143
 168  966.4679
 169  873.7985
 170  880.6485
 171  981.1796
 172  996.16
 173  958.7433
 174  949.0427
 175  967.3087
 176  1017.905
 177  1008.229
 178  1053.386
 179  928.6306
 180  1050.211
 181  1078.553
 182  1006.574
 183  997.7532
 184  1024.244
 185  1090.494
 186  1043.263
 187  990.3571
 188  962.1561
 189  959.1655
 190  981.2611
 191  989.1516
 192  1035.414
 193  1039.336
 194  1101.827
 195  1043.603
 196  958.5639
 197  1004.377
 198  975.3154
 199  998.6807
 200  1024.822
 201  1050.601
 202  1054.052
 203  1007.241
 204  1012.689
 205  1049.614
 206  1009.9
 207  1022.481
 208  1070.441
 209  1050.59
 210  990.0128
 211  1045.87
 212  1067.669
 213  937.9593
 214  964.2288
 215  1016.61
 216  1012.16
 217  947.6686
 218  918.7539
 219  942.7484
 220  969.4125
 221  938.5905
 222  847.985
 223  790.2328
 224  845.6305
 225  935.7413
 226  904.2274
 227  868.0315
 228  842.2669
 229  815.1381
 230  749.1321
 231  748.1725
 232  850.4753
 233  843.8446
 234  763.3083
 235  715.8753
 236  714.9767
 237  802.6673
 238  775.2549
 239  712.3422
 240  715.4993
 241  712.3995
 242  715.2706
 243  699.8797
 244  727.8069
 245  721.0843
 246  730.9003
 247  691.6599
 248  678.5191
 249  738.9205
 250  659.7119
 251  683.426
 252  773.8817
 253  706.9244
 254  666.5066
 255  725.0418
 256  760.688
 257  813.6343
 258  819.3826
 259  794.8305
 260  742.8021
 261  739.2115
 262  778.7358
 263  808.2056
 264  846.7656
 265  882.5281
 266  874.3459
 267  874.6835
 268  921.7011
 269  847.491
 270  829.8639
 271  853.2137
 272  885.0267
 273  871.4464
 274  868.7918
 275  885.6957
 276  878.3355
 277  825.0247
 278  848.1005
 279  880.0408
 280  926.8772
 281  976.5007
 282  883.4517
 283  963.2243
 284  1045.592
 285  926.395
 286  880.8149
 287  903.4129
 288  977.3807
 289  924.3455
 290  895.7741
 291  877.2668
 292  924.8161
 293  928.1488
 294  919.2561
 295  880.6874
 296  945.7402
 297  917.4133
 298  891.0562
 299  908.4922
 300  936.3281
 301  912.6646
 302  870.3818
 303  932.095
 304  953.8668
 305  958.8753
 306  869.2681
 307  753.7784
 308  874.0825
 309  981.3065
 310  966.0769
 311  897.5084
 312  939.2056
 313  856.8441
 314  904.8239
 315  822.9332
 316  826.4514
 317  865.624
 318  855.3128
 319  882.3052
 320  945.6396
 321  912.8163
 322  912.4532
 323  813.392
 324  923.6243
 325  910.5859
 326  898.1062
 327  936.0629
 328  893.7188
 329  914.6413
 330  913.8314
 331  845.6825
 332  866.3048
 333  961.6276
 334  954.5093
 335  930.4957
 336  942.5021
 337  933.3339
 338  868.9363
 339  878.6776
 340  920.4543
 341  899.3005
 342  841.9738
 343  893.9664
 344  879.8759
 345  830.5797
 346  827.6609
 347  815.6534
 348  867.1863
 349  903.4357
 350  866.6964
 351  857.4619
 352  830.0336
 353  900.0999
 354  943.4134
 355  901.4203
 356  882.549
 357  864.4653
 358  951.2578
 359  916.6215
 360  824.7373
 361  879.6114
 362  929.7741
 363  831.6346
 364  883.67
 365  874.6505
 366  848.21
 367  858.153
 368  831.6535
 369  897.3795
 370  921.2725
 371  1036.68
 372  1169.694
 373  1316.086
 374  1369.914
 375  1148.291
 376  947.2619
 377  820.1659
 378  737.791
 379  779.0449
 380  792.8898
 381  806.1295
 382  835.4053
 383  777.6926
 384  770.7068
 385  846.7517
 386  875.4384
 387  843.9997
 388  760.107
 389  875.3976
 390  951.8607
 391  920.7292
 392  940.2894
 393  926.1403
 394  936.3586
 395  882.1622
 396  919.4064
 397  986.1522
 398  922.0326
 399  861.0941
 400  903.3663
 401  939.3423
 402  900.4801
 403  845.4453
 404  911.9113
 405  824.3442
 406  811.3188
 407  875.7501
 408  843.0964
 409  900.3379
 410  864.009
 411  901.1998
 412  895.2166
 413  799.1067
 414  838.011
 415  915.1733
 416  879.606
 417  797.1525
 418  908.1014
 419  885.139
 420  913.0249
 421  856.8083
 422  822.0422
 423  884.4962
 424  900.584
 425  862.6252
 426  947.2753
 427  995.7995
 428  913.7983
 429  871.6111
 430  913.269
 431  967.6927
 432  1023.235
 433  966.7558
 434  947.4602
 435  927.1606
 436  755.6702
 437  896.1318
 438  970.8007
 439  915.7058
 440  892.678
 441  792.1698
 442  884.17
 443  902.5759
 444  968.1528
 445  936.1943
 446  798.7405
 447  819.99
 448  818.821
 449  883.309
 450  940.3689
 451  936.4634
 452  822.8062
 453  873.4736
 454  925.1287
 455  826.8436
 456  911.8722
 457  910.9199
 458  928.6064
 459  914.0578
 460  910.7278
 461  923.9214
 462  918.9606
 463  940.5143
 464  915.9266
 465  916.6622
 466  953.6972
 467  884.4953
 468  899.4066
 469  893.2306
 470  892.3544
 471  922.0067
 472  933.3287
 473  982.9316
 474  955.8473
 475  1046.524
 476  940.4873
 477  959.9266
 478  1094.815
 479  1107.269
 480  1061.282
 481  1006.149
 482  1150.955
 483  1194.555
 484  1048.757
 485  1060.316
 486  1073.729
 487  1087.597
 488  1037.342
 489  1043.823
 490  1056.941
 491  1075.39
 492  1075.175
 493  970.457
 494  1062.525
 495  1139.663
 496  1060.357
 497  1134.578
 498  1163.211
 499  1118.318
 500  1075.158
 501  1082.156
 502  1147.722
 503  1043.363
 504  1076.802
 505  1087.713
 506  1058.666
 507  1096.517
 508  1101.188
 509  1127.211
 510  1054.894
 511  1068.465
