# Input file       =  1205310301.106354_cleaned.dat
# Candidate        =  PSR_0332+5434
# Telescope        =  AR
# Epoch_topo       =  58194.350927156876
# Epoch_bary       =  N/A
# T_sample         =  0.002
# Data Folded      =  7274496
# Data Avg         =  0.625559484524243
# Data StdDev      =  6.12127853806579 
# Profile Bins     =  512
# Profile Avg      =  8888.10779135293 
# Profile StdDev   =  729.639968589871 
# Reduced chi-sqr  =  3.054
# Prob(Noise)      <  1.18e-106   (~21.9 sigma)
# P_topo (ms)      =  714.576757754983  +/- 1.52e-05
# P'_topo (s/s)    =  -0                +/- 8.07e-12
# P''_topo (s/s^2) =  0                 +/- 3.59e-15
# P_bary (ms)      =  N/A
# P'_bary (s/s)    =  N/A
# P''_bary (s/s^2) =  N/A
# P_orb (s)        =  N/A
# asin(i)/c (s)    =  N/A
# eccentricity     =  N/A
# w (rad)          =  N/A
# T_peri           =  N/A
######################################################
   0  7896.967
   1  8303.113
   2  9272.979
   3  10191.26
   4  10903.65
   5  11013.59
   6  10422.3
   7  9140.218
   8  8487.184
   9  8003.311
  10  8424.999
  11  9227.166
  12  10067.97
  13  10421
  14  9911.368
  15  9171.417
  16  7749.112
  17  7803.902
  18  8615.866
  19  9285.218
  20  9631.682
  21  10152.76
  22  10021.76
  23  9078.3
  24  8563.66
  25  8197.525
  26  8042.106
  27  8464.288
  28  9241.298
  29  9609.168
  30  9733.709
  31  9302.862
  32  8683.199
  33  8543.44
  34  8200.098
  35  9073.711
  36  9697.259
  37  10020.39
  38  10295.33
  39  9584.991
  40  9105.404
  41  8801.048
  42  8590.554
  43  8377.952
  44  8835.814
  45  9329.785
  46  9612.388
  47  9457.519
  48  8796.233
  49  7975.554
  50  8382.625
  51  9215.014
  52  9322.257
  53  9543.263
  54  10226.78
  55  9853.208
  56  9509.7
  57  8831.976
  58  8355.56
  59  8729.268
  60  8921.927
  61  9432.469
  62  9850.503
  63  10032.12
  64  9193.924
  65  8375.453
  66  8180.707
  67  8818.812
  68  9459.433
  69  10007.73
  70  10622.09
  71  10692.66
  72  10191.02
  73  9368.817
  74  8638.777
  75  8651.024
  76  9033.095
  77  9823.785
  78  10524.23
  79  10587.09
  80  10463.98
  81  9464.256
  82  9076.055
  83  8988.529
  84  9258.813
  85  10186.16
  86  10250.32
  87  11037.33
  88  11125.52
  89  10229.37
  90  9099.146
  91  8392.466
  92  8689.059
  93  9419.124
  94  9655.399
  95  10380.98
  96  10307.34
  97  9428.684
  98  8805.35
  99  8379.168
 100  9078.159
 101  9862.823
 102  11007.24
 103  11679.34
 104  12475.4
 105  11919.08
 106  10461.25
 107  9246.368
 108  8244.141
 109  8370.179
 110  8786.994
 111  9732.632
 112  10196.74
 113  9538.438
 114  9156.567
 115  7977.981
 116  7894.944
 117  8494.812
 118  9256.614
 119  9850.651
 120  10338.04
 121  10342.74
 122  9086.501
 123  8170.729
 124  8158.463
 125  8296.561
 126  8565.011
 127  8815.303
 128  9612.011
 129  9794.248
 130  9420.368
 131  7891.744
 132  7684.488
 133  8048.342
 134  8452.631
 135  9104.129
 136  9781.216
 137  9802.876
 138  8979.178
 139  8226.577
 140  7289.25
 141  7459.161
 142  8445.416
 143  8475.008
 144  9070.45
 145  9507.246
 146  9058.332
 147  8333.822
 148  7736.526
 149  7891.03
 150  8372.583
 151  8960.72
 152  9590.301
 153  10443.37
 154  10039.43
 155  9105.993
 156  8252.261
 157  7407.806
 158  7574.455
 159  8426.27
 160  9405.447
 161  9685.053
 162  9354.886
 163  8574.891
 164  7952.185
 165  7735.255
 166  8190.746
 167  8830.051
 168  8988.065
 169  9579.355
 170  9728.772
 171  9731.206
 172  9129.065
 173  8051.428
 174  7971.146
 175  8347.136
 176  8753.977
 177  9123.6
 178  9156.653
 179  8945.078
 180  8106.298
 181  7612.386
 182  7318.812
 183  8594.097
 184  9274.994
 185  10001.66
 186  10035.84
 187  10011.49
 188  9298.514
 189  8092.639
 190  7847.25
 191  7677.501
 192  8646.364
 193  9248.321
 194  9885.805
 195  9650.657
 196  9159.899
 197  8778.135
 198  7879.627
 199  8054.776
 200  8933.947
 201  9092.955
 202  10130.63
 203  10725.53
 204  9844.433
 205  8818.406
 206  8375.628
 207  7689.883
 208  7721.318
 209  8537.919
 210  8616.088
 211  9034.488
 212  9244.026
 213  8862.113
 214  8361.07
 215  8363.919
 216  8758.335
 217  9082.971
 218  9414.216
 219  10046.14
 220  9979.981
 221  9406.226
 222  8638.681
 223  7838.616
 224  8348.592
 225  8462.033
 226  9200.303
 227  9513.101
 228  9021.595
 229  8597.386
 230  8422.917
 231  7853.109
 232  8492.641
 233  9159.813
 234  9832.333
 235  9805.242
 236  10412.45
 237  9932.974
 238  9030.878
 239  8443.384
 240  8527.385
 241  8765.181
 242  8535.802
 243  8999.165
 244  8893.592
 245  8761.487
 246  8093.129
 247  7897.667
 248  8030.684
 249  8506.277
 250  8628.938
 251  8998.204
 252  9623.423
 253  9735.728
 254  8935.929
 255  7994.781
 256  7809.966
 257  8055.067
 258  8553.308
 259  9176.163
 260  9710.379
 261  9627.07
 262  8910.66
 263  7868.078
 264  7472.266
 265  7872.571
 266  8603.732
 267  9028.536
 268  10043.78
 269  9990.259
 270  9755.146
 271  8791.206
 272  7967.562
 273  7807.023
 274  7889.046
 275  7991.133
 276  8632.029
 277  9648.298
 278  9218.991
 279  8458.563
 280  7629.489
 281  7238.104
 282  7978.42
 283  8833.735
 284  9340.954
 285  9734.615
 286  9734.809
 287  8876.334
 288  8021.772
 289  7536.579
 290  7575.973
 291  7770.099
 292  8605.842
 293  9292.93
 294  9223.889
 295  9084.758
 296  8009.083
 297  7097.474
 298  7488.07
 299  8165.325
 300  8929.711
 301  9230.895
 302  9639.499
 303  9286.153
 304  8418.693
 305  7614.1
 306  7362.9
 307  7974.167
 308  8326.414
 309  8354.78
 310  8692.462
 311  8734.331
 312  8058.022
 313  7309.825
 314  7544.262
 315  8155.774
 316  8711.873
 317  9025.915
 318  9463.749
 319  9927.192
 320  8948.532
 321  7962.265
 322  7786.065
 323  8180.219
 324  8349.48
 325  8618.479
 326  9014.524
 327  9095.267
 328  8491.838
 329  7402.575
 330  7303.523
 331  7821.663
 332  8566.611
 333  8866.078
 334  9339.842
 335  9754.037
 336  9008.441
 337  8411.962
 338  7224.845
 339  6885.882
 340  7684.303
 341  8132
 342  8739.751
 343  8685.449
 344  8842.561
 345  8020.532
 346  7307.073
 347  7464.313
 348  7663.176
 349  8356.193
 350  8718.318
 351  9417.536
 352  9437.848
 353  8546.714
 354  7983.584
 355  7158.213
 356  7061.732
 357  7615.5
 358  8416.957
 359  8453.945
 360  8462.627
 361  8587.007
 362  8188.316
 363  7389.932
 364  7802.062
 365  8587.51
 366  8748.559
 367  9442.761
 368  10037.29
 369  9806.657
 370  8693.807
 371  8017.138
 372  7641.283
 373  7292.659
 374  7859.487
 375  8285.935
 376  8695.667
 377  9040.648
 378  8384.681
 379  7368.609
 380  6930.186
 381  7654.253
 382  7784.922
 383  8170.152
 384  9209.773
 385  9558.007
 386  8805.856
 387  8032.791
 388  7411.188
 389  7272.827
 390  7086.467
 391  8129.62
 392  8399.781
 393  8398.914
 394  8187.809
 395  7622.264
 396  7048.699
 397  7524.561
 398  8616.873
 399  9039.938
 400  9188.53
 401  9073.023
 402  8812.888
 403  8137.037
 404  7248.627
 405  6792.005
 406  7343.685
 407  8144.055
 408  8520.705
 409  8724.781
 410  8713.688
 411  8257.698
 412  7191.026
 413  7142.123
 414  8240.401
 415  8751.097
 416  8967.995
 417  9641.276
 418  9611.604
 419  8793.65
 420  7348.646
 421  7861.907
 422  7894.626
 423  8113.782
 424  8614.006
 425  8924.995
 426  9120.495
 427  8670.835
 428  7707.424
 429  7232.151
 430  7367.832
 431  8276.348
 432  9020.582
 433  9303.916
 434  9865.38
 435  9631.071
 436  8878.798
 437  7508.462
 438  7287.652
 439  8093.397
 440  8833.397
 441  9277.677
 442  9983.104
 443  10253.16
 444  9103.827
 445  7747.895
 446  7773.432
 447  8542.039
 448  9050.194
 449  9516.913
 450  10177.55
 451  10810.51
 452  9869.251
 453  8998.655
 454  8462.092
 455  8083.794
 456  8479.789
 457  8668.509
 458  10020.08
 459  10258.67
 460  10112.79
 461  9221.09
 462  8596.315
 463  8405.387
 464  8827.763
 465  9367.762
 466  10067.56
 467  10738.7
 468  10292.68
 469  9679.904
 470  8794.592
 471  8124.849
 472  8649.05
 473  8953.392
 474  9408.759
 475  9940.952
 476  9891.261
 477  9443.541
 478  8723.551
 479  8581.911
 480  9144.479
 481  9392.829
 482  10117.2
 483  10748.19
 484  10550.71
 485  9918.622
 486  9482.693
 487  9222.157
 488  9122.774
 489  9494.04
 490  9752.142
 491  10254.92
 492  10759.59
 493  10441.11
 494  9194.836
 495  9225.385
 496  9053.087
 497  9791.006
 498  10110.07
 499  10301.85
 500  11070.53
 501  10785.98
 502  9737.336
 503  9125.657
 504  8856.901
 505  9192.494
 506  9441.067
 507  9998.352
 508  10480.91
 509  10116.62
 510  9624.381
 511  8649.205
