# Input file       =  1206358626.111749_cleaned.dat
# Candidate        =  PSR_0332+5434
# Telescope        =  AR
# Epoch_topo       =  58206.484318423019
# Epoch_bary       =  N/A
# T_sample         =  0.002
# Data Folded      =  7340032
# Data Avg         =  0.0657329037082582
# Data StdDev      =  1.00011991923284 
# Profile Bins     =  512
# Profile Avg      =  942.32475470914  
# Profile StdDev   =  119.747394670634 
# Reduced chi-sqr  =  0.966
# Prob(Noise)      <  0.702   (~0.0 sigma)
# P_topo (ms)      =  714.571095935826  +/- 0.000284
# P'_topo (s/s)    =  -0                +/- 1.5e-10
# P''_topo (s/s^2) =  0                 +/- 6.61e-14
# P_bary (ms)      =  N/A
# P'_bary (s/s)    =  N/A
# P''_bary (s/s^2) =  N/A
# P_orb (s)        =  N/A
# asin(i)/c (s)    =  N/A
# eccentricity     =  N/A
# w (rad)          =  N/A
# T_peri           =  N/A
######################################################
   0  1347.724
   1  1252.26
   2  1196.432
   3  1087.589
   4  968.7747
   5  880.8143
   6  845.77
   7  851.0895
   8  833.4619
   9  868.3071
  10  910.2609
  11  911.1301
  12  927.8647
  13  916.7635
  14  925.0324
  15  934.2754
  16  974.0298
  17  1004.393
  18  980.8726
  19  943.2605
  20  986.9635
  21  942.0791
  22  878.3826
  23  860.4807
  24  819.428
  25  900.4111
  26  962.362
  27  966.9664
  28  976.6558
  29  1019.204
  30  1057.545
  31  972.8997
  32  970.1815
  33  930.1392
  34  983.6671
  35  907.9646
  36  828.6166
  37  884.9628
  38  897.6465
  39  918.5885
  40  878.264
  41  857.9398
  42  946.0002
  43  900.5682
  44  940.5898
  45  958.1783
  46  978.8286
  47  982.9794
  48  975.2838
  49  974.3606
  50  899.9082
  51  967.6602
  52  939.3919
  53  871.6848
  54  843.912
  55  843.6343
  56  819.8082
  57  799.1273
  58  905.9036
  59  936.0173
  60  953.7702
  61  944.3962
  62  876.1814
  63  857.1118
  64  927.2235
  65  853.3746
  66  768.9897
  67  891.8312
  68  902.4217
  69  888.3098
  70  794.2039
  71  836.2097
  72  801.6338
  73  866.5001
  74  982.8547
  75  877.4761
  76  871.532
  77  934.1658
  78  1007.599
  79  977.7906
  80  962.5781
  81  940.9886
  82  873.9813
  83  944.3761
  84  1039.132
  85  1005.244
  86  1044.596
  87  972.2633
  88  983.0496
  89  1042.54
  90  996.2077
  91  928.3842
  92  1040.019
  93  1132.649
  94  1124.905
  95  1001.818
  96  1108.807
  97  1134.357
  98  1034.825
  99  1029.411
 100  984.6422
 101  986.6756
 102  1006.25
 103  1006.332
 104  1037.456
 105  1081.726
 106  1047.68
 107  1040.636
 108  1107.129
 109  1076.891
 110  1047.455
 111  1073.234
 112  1004.91
 113  1025.606
 114  1043.883
 115  1005.098
 116  941.2387
 117  923.6786
 118  1051.638
 119  956.7772
 120  898.7386
 121  909.5256
 122  941.6765
 123  966.0516
 124  992.3149
 125  1054.563
 126  1133.935
 127  1025.693
 128  976.6075
 129  1004.568
 130  1059.066
 131  1008.196
 132  1004.259
 133  966.14
 134  1082.276
 135  1080.121
 136  1034.426
 137  1002.292
 138  1035.504
 139  1024.512
 140  1038.667
 141  1073.026
 142  1012.163
 143  1009.022
 144  972.2207
 145  956.8627
 146  1042.898
 147  1031.734
 148  1008.208
 149  936.6796
 150  881.4021
 151  950.0475
 152  1028.482
 153  1058.372
 154  1002.886
 155  1008.731
 156  1019.868
 157  984.9742
 158  950.4135
 159  975.6311
 160  1035.908
 161  1011.772
 162  965.639
 163  951.597
 164  921.1027
 165  902.1082
 166  897.7668
 167  941.0005
 168  1014.715
 169  1021.087
 170  956.4686
 171  953.1547
 172  918.6089
 173  905.6603
 174  912.7866
 175  969.1354
 176  916.4926
 177  869.9895
 178  842.2343
 179  879.687
 180  859.8329
 181  846.0478
 182  948.7302
 183  880.6208
 184  909.8204
 185  902.2997
 186  920.5575
 187  973.9666
 188  1019.584
 189  1029.805
 190  948.372
 191  862.1969
 192  912.1255
 193  916.0824
 194  976.3367
 195  994.2537
 196  965.5986
 197  960.868
 198  921.2259
 199  940.6176
 200  953.395
 201  863.7896
 202  919.1467
 203  913.7736
 204  917.0477
 205  889.7828
 206  940.7431
 207  902.2048
 208  853.0225
 209  931.344
 210  949.0999
 211  1006.102
 212  988.8218
 213  943.5229
 214  959.3909
 215  917.1116
 216  964.5902
 217  889.9026
 218  937.3193
 219  979.2795
 220  909.3394
 221  892.2004
 222  956.0322
 223  1016.683
 224  960.5139
 225  956.8508
 226  947.3542
 227  956.8536
 228  987.9749
 229  918.8736
 230  943.2817
 231  938.9856
 232  1027.566
 233  967.6556
 234  999.1338
 235  1033.674
 236  1022.942
 237  995.2041
 238  889.4565
 239  861.0633
 240  943.0138
 241  952.7759
 242  883.8809
 243  954.5353
 244  1005.325
 245  1004.651
 246  1048.256
 247  1030.772
 248  955.2124
 249  821.2891
 250  835.1562
 251  905.8548
 252  894.0394
 253  902.9764
 254  1012.902
 255  988.4909
 256  925.0873
 257  945.6073
 258  871.8535
 259  843.7698
 260  878.6675
 261  973.4769
 262  983.1124
 263  917.4622
 264  869.492
 265  940.2985
 266  939.7664
 267  926.8198
 268  903.2977
 269  883.3288
 270  855.0828
 271  893.9618
 272  844.4081
 273  810.9915
 274  864.8559
 275  888.8711
 276  944.5281
 277  944.5823
 278  955.108
 279  877.3845
 280  873.2137
 281  920.9561
 282  895.2977
 283  820.9438
 284  817.9851
 285  791.3649
 286  759.0936
 287  806.1314
 288  901.9743
 289  850.8637
 290  883.7342
 291  764.4987
 292  694.6825
 293  786.5304
 294  872.9182
 295  886.6807
 296  864.8557
 297  864.6559
 298  853.6065
 299  851.5036
 300  824.3985
 301  896.7507
 302  989.9207
 303  872.1072
 304  809.8297
 305  849.0439
 306  791.7088
 307  764.4791
 308  844.6719
 309  918.2435
 310  867.6235
 311  906.6755
 312  891.9535
 313  906.5413
 314  936.2021
 315  891.8935
 316  852.9204
 317  828.879
 318  932.0206
 319  995.7704
 320  986.6881
 321  996.631
 322  1057.337
 323  964.994
 324  946.6995
 325  931.1979
 326  875.01
 327  915.6757
 328  923.9703
 329  910.8387
 330  828.9993
 331  866.4864
 332  915.6857
 333  968.1312
 334  939.4827
 335  911.5471
 336  924.5862
 337  1012.286
 338  956.0726
 339  959.7267
 340  942.0092
 341  950.7774
 342  885.3994
 343  864.9308
 344  917.7036
 345  909.8853
 346  899.0068
 347  1016.915
 348  1008.759
 349  982.7282
 350  995.6776
 351  977.1392
 352  960.2079
 353  974.9752
 354  932.1275
 355  953.1469
 356  1016.518
 357  923.5895
 358  872.4387
 359  796.0722
 360  859.6721
 361  900.6067
 362  859.9299
 363  855.4332
 364  911.6028
 365  877.9895
 366  867.916
 367  781.6468
 368  850.8018
 369  830.4446
 370  797.6736
 371  851.8052
 372  887.5354
 373  855.6887
 374  896.6696
 375  833.4883
 376  811.0748
 377  862.5449
 378  834.6021
 379  873.6939
 380  888.8173
 381  954.9397
 382  932.623
 383  914.1771
 384  919.0894
 385  865.622
 386  889.7728
 387  905.2108
 388  917.5816
 389  946.6027
 390  927.2014
 391  899.1262
 392  779.9305
 393  850.5164
 394  874.1657
 395  880.3123
 396  952.4551
 397  926.6752
 398  821.1547
 399  773.3984
 400  892.082
 401  968.4824
 402  1014.409
 403  977.4982
 404  1089.722
 405  1002.261
 406  900.0471
 407  895.8622
 408  938.3759
 409  1012.872
 410  1036.672
 411  1042.184
 412  1083.66
 413  1092.464
 414  1053.715
 415  1039.296
 416  1008.594
 417  957.9763
 418  997.8234
 419  999.6898
 420  1012.72
 421  1060.506
 422  1008.601
 423  1007.688
 424  1085.468
 425  1087.969
 426  968.3026
 427  937.993
 428  1036.512
 429  1096.263
 430  1080.033
 431  1090.481
 432  1127.517
 433  1098.487
 434  1105.074
 435  1066.742
 436  1079.136
 437  1042.926
 438  990.8632
 439  999.1646
 440  1051.652
 441  1014.025
 442  1039.755
 443  1087.859
 444  1083.346
 445  1081.263
 446  1043.55
 447  960.5342
 448  897.7353
 449  884.3461
 450  988.3545
 451  1043.705
 452  950.9804
 453  1054.955
 454  1080.63
 455  1039.223
 456  940.7941
 457  914.5217
 458  933.4609
 459  791.0099
 460  886.259
 461  936.4524
 462  915.9772
 463  953.4293
 464  1024.201
 465  949.8527
 466  878.03
 467  944.6028
 468  982.1613
 469  963.9431
 470  943.7178
 471  902.1625
 472  919.3237
 473  853.2395
 474  749.9583
 475  810.5988
 476  929.8793
 477  939.1876
 478  854.2915
 479  866.3412
 480  898.2027
 481  888.9051
 482  984.8847
 483  908.4113
 484  916.0072
 485  882.0604
 486  917.6004
 487  786.79
 488  843.5387
 489  871.6549
 490  831.0099
 491  849.5154
 492  872.3772
 493  945.2043
 494  794.4518
 495  867.3907
 496  854.923
 497  880.2857
 498  911.1596
 499  873.641
 500  810.549
 501  912.511
 502  900.1158
 503  768.8617
 504  787.2651
 505  876.0453
 506  886.7225
 507  916.4002
 508  983.72
 509  1193.249
 510  1293.986
 511  1377.504
