# Input file       =  1206430175.134664_cleaned.dat
# Candidate        =  PSR_0332+5434
# Telescope        =  AR
# Epoch_topo       =  58207.312432114166
# Epoch_bary       =  N/A
# T_sample         =  0.002
# Data Folded      =  7208960
# Data Avg         =  0.0909536774301084
# Data StdDev      =  1.00009693123743 
# Profile Bins     =  512
# Profile Avg      =  1280.63309726812 
# Profile StdDev   =  118.670677574272 
# Reduced chi-sqr  =  2.685
# Prob(Noise)      <  6.34e-80   (~18.9 sigma)
# P_topo (ms)      =  714.570615109855  +/- 0.000348
# P'_topo (s/s)    =  -0                +/- 1.87e-10
# P''_topo (s/s^2) =  0                 +/- 8.41e-14
# P_bary (ms)      =  N/A
# P'_bary (s/s)    =  N/A
# P''_bary (s/s^2) =  N/A
# P_orb (s)        =  N/A
# asin(i)/c (s)    =  N/A
# eccentricity     =  N/A
# w (rad)          =  N/A
# T_peri           =  N/A
######################################################
   0  1353.6
   1  1230.117
   2  1219.777
   3  1329.252
   4  1326.998
   5  1262.551
   6  1297.242
   7  1284.703
   8  1277.08
   9  1249.237
  10  1405.067
  11  1314.35
  12  1280.284
  13  1332.013
  14  1224.906
  15  1192.71
  16  1299.601
  17  1247.491
  18  1015.7
  19  1035.14
  20  1111.983
  21  1156.77
  22  1136.118
  23  1152.997
  24  1180.917
  25  1266.094
  26  1240.016
  27  1224.459
  28  1204.182
  29  1242.398
  30  1187.729
  31  1108.179
  32  998.9171
  33  1132.15
  34  1259.666
  35  1398.168
  36  1272.615
  37  1179.047
  38  1218.105
  39  1075.145
  40  1078.984
  41  1176.997
  42  1163.914
  43  1134.989
  44  1236.327
  45  1292.319
  46  1369.523
  47  1389.704
  48  1291.781
  49  1261.53
  50  1311.717
  51  1248.513
  52  1249.286
  53  1266.508
  54  1282.546
  55  1188.188
  56  1221.858
  57  1310.488
  58  1268.992
  59  1284.97
  60  1338.022
  61  1387.658
  62  1414.531
  63  1305.474
  64  1390.949
  65  1331.945
  66  1233.699
  67  1259.218
  68  1271.331
  69  1249.282
  70  1284.097
  71  1261.112
  72  1192.138
  73  1258.396
  74  1302.402
  75  1285.605
  76  1339.345
  77  1399.259
  78  1304.229
  79  1263.069
  80  1321.411
  81  1304.332
  82  1305.644
  83  1267.235
  84  1106.701
  85  1105.736
  86  1158.034
  87  1226.216
  88  1254.361
  89  1203.258
  90  1208.087
  91  1316.866
  92  1268.596
  93  1220.547
  94  1190.633
  95  1266.724
  96  1302.767
  97  1214.782
  98  1245.199
  99  1329.066
 100  1232.768
 101  1149.85
 102  1196.663
 103  1231.958
 104  1201.163
 105  1254.796
 106  1296.364
 107  1278.291
 108  1224.505
 109  1211.328
 110  1234.812
 111  1285.725
 112  1294.599
 113  1268.425
 114  1304.197
 115  1166.03
 116  1236.494
 117  1079.584
 118  1161.271
 119  1222.708
 120  1290.042
 121  1312.769
 122  1220.699
 123  1163.357
 124  1250.665
 125  1323.995
 126  1195.138
 127  1345.015
 128  1361.266
 129  1330.224
 130  1292.824
 131  1272.277
 132  1340.104
 133  1280.686
 134  1145.166
 135  1234.615
 136  1239.222
 137  1211.145
 138  1210.684
 139  1252.095
 140  1259.571
 141  1305.525
 142  1256.107
 143  1336.002
 144  1389.837
 145  1351.322
 146  1387.3
 147  1330.355
 148  1310.337
 149  1263.866
 150  1268.654
 151  1202.767
 152  1196.591
 153  1266.698
 154  1301.217
 155  1279.947
 156  1328.254
 157  1278.928
 158  1417.602
 159  1471.35
 160  1393.186
 161  1428.064
 162  1405.841
 163  1281.906
 164  1290.108
 165  1341.077
 166  1349.067
 167  1243.881
 168  1261.287
 169  1256.934
 170  1335.146
 171  1376.6
 172  1359.58
 173  1287.99
 174  1401.473
 175  1312.676
 176  1330.8
 177  1340.026
 178  1366.329
 179  1258.475
 180  1373.604
 181  1484.078
 182  1312.692
 183  1232.637
 184  1326.107
 185  1439.575
 186  1387.858
 187  1336.393
 188  1311.191
 189  1348.532
 190  1385.864
 191  1343.97
 192  1356.454
 193  1415.146
 194  1401.219
 195  1346.141
 196  1330.728
 197  1465.112
 198  1350.524
 199  1442.129
 200  1284.089
 201  1279.008
 202  1353.793
 203  1314.886
 204  1290.051
 205  1292.749
 206  1458.16
 207  1373.334
 208  1339.384
 209  1423.414
 210  1424.461
 211  1398.877
 212  1327.492
 213  1373.686
 214  1343.91
 215  1406.938
 216  1353.186
 217  1357.362
 218  1413.405
 219  1397.592
 220  1407.019
 221  1383.801
 222  1398.869
 223  1329.667
 224  1356.44
 225  1397.487
 226  1417.082
 227  1461.562
 228  1468.062
 229  1343.645
 230  1360.831
 231  1448.957
 232  1417.271
 233  1376.433
 234  1312.788
 235  1359.919
 236  1377.195
 237  1297.973
 238  1316.162
 239  1341.081
 240  1339.315
 241  1343.545
 242  1364.782
 243  1414.807
 244  1464.334
 245  1531.745
 246  1412.375
 247  1374.902
 248  1262.652
 249  1343.295
 250  1248.825
 251  1305.097
 252  1244.714
 253  1366.555
 254  1375.964
 255  1310.017
 256  1363.451
 257  1307.838
 258  1391.578
 259  1516.459
 260  1576.262
 261  1476.347
 262  1410.509
 263  1401.037
 264  1501.281
 265  1502.878
 266  1549.114
 267  1501.433
 268  1477.023
 269  1427.413
 270  1426.987
 271  1392.003
 272  1344.941
 273  1299.796
 274  1357.008
 275  1503.473
 276  1465.359
 277  1505.493
 278  1609.373
 279  1526.142
 280  1494.54
 281  1579.676
 282  1650.729
 283  1917.408
 284  2210.999
 285  2311.714
 286  2254.196
 287  1948.245
 288  1690.274
 289  1509.48
 290  1415.639
 291  1370.945
 292  1466.606
 293  1504.645
 294  1426.133
 295  1420.839
 296  1505.94
 297  1467.794
 298  1482.252
 299  1444.913
 300  1468.611
 301  1473.597
 302  1423.387
 303  1218.867
 304  1267.226
 305  1292.438
 306  1309.381
 307  1372.239
 308  1410.679
 309  1403.698
 310  1363.614
 311  1396.425
 312  1302.85
 313  1323.97
 314  1375.184
 315  1306.657
 316  1183.843
 317  1263.485
 318  1325.019
 319  1250.985
 320  1104.733
 321  1204.798
 322  1307.986
 323  1287.846
 324  1378.087
 325  1299.494
 326  1329.351
 327  1278.178
 328  1301.342
 329  1276.396
 330  1333.202
 331  1260.769
 332  1146.03
 333  1198.241
 334  1279.47
 335  1323.079
 336  1246.974
 337  1237.108
 338  1258.11
 339  1306.279
 340  1303.953
 341  1348.555
 342  1306.691
 343  1214.157
 344  1307.971
 345  1268.631
 346  1296.684
 347  1229.507
 348  1287.379
 349  1202.811
 350  1186.671
 351  1236.472
 352  1245.535
 353  1202.537
 354  1292.973
 355  1330.496
 356  1368.23
 357  1281.431
 358  1333.256
 359  1371.602
 360  1312.114
 361  1388.971
 362  1290.9
 363  1103.162
 364  1175.479
 365  1165.403
 366  1080.299
 367  1097.997
 368  1118.709
 369  1035.601
 370  1103.372
 371  1310.073
 372  1305.379
 373  1165.047
 374  1222.413
 375  1169.019
 376  1131.326
 377  1206.376
 378  1167.361
 379  1175.955
 380  1261.031
 381  1348.124
 382  1234.25
 383  1169.548
 384  1218.133
 385  1157.044
 386  1176.354
 387  1226.598
 388  1216.088
 389  1342.205
 390  1195.916
 391  1244.603
 392  1244.901
 393  1196.912
 394  1308.068
 395  1296.32
 396  1146.11
 397  1190.931
 398  1152.41
 399  1086.035
 400  1005.298
 401  997.037
 402  1063.327
 403  1099.624
 404  1108.103
 405  1056.97
 406  1007.386
 407  1151.306
 408  1285.483
 409  1175.458
 410  1177.992
 411  1158.23
 412  1191.68
 413  1228.974
 414  1079.49
 415  1016.363
 416  1183.254
 417  1183.791
 418  1189.364
 419  1128.188
 420  1093.288
 421  1170.992
 422  1149.891
 423  1134.246
 424  1138.206
 425  1176.543
 426  1298.854
 427  1273.292
 428  1186.857
 429  1101.199
 430  1142.225
 431  1193.989
 432  1083.259
 433  1097.432
 434  1197.616
 435  1161.445
 436  1097.042
 437  1191.031
 438  1225.542
 439  1166.673
 440  1184.693
 441  1218.043
 442  1227.952
 443  1175.155
 444  1222.366
 445  1181.904
 446  1081.568
 447  1063.418
 448  1071.79
 449  1057.911
 450  1053.931
 451  1098.003
 452  1083.795
 453  1273.341
 454  1245.515
 455  1167.106
 456  1206.893
 457  1232.81
 458  1236.891
 459  1257.776
 460  1222.284
 461  1219.407
 462  1178.437
 463  1204.599
 464  1221.825
 465  1216.031
 466  1143.658
 467  1153.644
 468  1098.735
 469  1062.727
 470  1057.79
 471  1076.964
 472  1074.822
 473  1226.511
 474  1276.975
 475  1230.775
 476  1093.328
 477  1125.743
 478  1146.932
 479  1168.185
 480  1154.887
 481  1191.78
 482  1145.803
 483  1097.126
 484  1128.493
 485  1134.02
 486  1184.571
 487  1157.435
 488  1119.875
 489  1248.245
 490  1272.237
 491  1178.43
 492  1232.535
 493  1219.291
 494  1233.129
 495  1143.566
 496  1198.771
 497  1293.243
 498  1180.59
 499  1240.31
 500  1185.034
 501  1157.304
 502  1189.776
 503  1282.274
 504  1167.338
 505  1210.186
 506  1238.86
 507  1239.87
 508  1237.934
 509  1233.46
 510  1174.763
 511  1220.301
