# Input file       =  1206430175.134664_cleaned.dat
# Candidate        =  PSR_0332+5434
# Telescope        =  AR
# Epoch_topo       =  58207.312432114166
# Epoch_bary       =  N/A
# T_sample         =  0.002
# Data Folded      =  7208960
# Data Avg         =  0.563270050787833
# Data StdDev      =  6.93853805231424 
# Profile Bins     =  512
# Profile Avg      =  7930.85709633606 
# Profile StdDev   =  823.321206499657 
# Reduced chi-sqr  =  1.476
# Prob(Noise)      <  1.29e-11   (~6.7 sigma)
# P_topo (ms)      =  714.570615109855  +/- 4.67e-05
# P'_topo (s/s)    =  -0                +/- 2.51e-11
# P''_topo (s/s^2) =  0                 +/- 1.13e-14
# P_bary (ms)      =  N/A
# P'_bary (s/s)    =  N/A
# P''_bary (s/s^2) =  N/A
# P_orb (s)        =  N/A
# asin(i)/c (s)    =  N/A
# eccentricity     =  N/A
# w (rad)          =  N/A
# T_peri           =  N/A
######################################################
   0  8523.971
   1  7877.225
   2  7272.253
   3  7579.064
   4  7823.059
   5  7431.363
   6  7504.961
   7  7685.941
   8  8069.711
   9  7831.586
  10  8011.075
  11  8558.224
  12  9259.177
  13  8976.013
  14  8034.607
  15  7789.211
  16  8279.646
  17  8078.332
  18  6781.781
  19  6817.094
  20  7223.089
  21  7311.551
  22  6709.707
  23  6851.735
  24  7307.971
  25  7723.976
  26  7786.914
  27  7891.558
  28  8235.159
  29  8903.461
  30  8530.242
  31  7683.166
  32  7301.675
  33  7510.832
  34  7679.512
  35  8053.752
  36  7743.063
  37  7657.955
  38  7652.411
  39  6426.184
  40  6607.769
  41  7425.258
  42  7557.556
  43  7376.708
  44  8126.398
  45  8770.702
  46  9294.83
  47  9150.562
  48  8472.832
  49  8347.411
  50  8202.563
  51  7680.126
  52  7653.076
  53  8129.034
  54  8009.112
  55  7090.78
  56  7286.087
  57  7828.551
  58  8009.096
  59  8328.415
  60  8621.517
  61  9439.053
  62  9387.119
  63  8695.411
  64  8679.013
  65  8796.202
  66  8092.948
  67  7925.347
  68  7661.391
  69  7564.469
  70  8386.438
  71  8087.189
  72  7582.273
  73  7573.189
  74  8237.834
  75  8255.997
  76  8245.45
  77  8754.252
  78  8977.053
  79  8719.066
  80  8586.643
  81  8531.424
  82  8803.65
  83  8428.492
  84  7387.422
  85  7290.808
  86  7618.925
  87  7506.453
  88  7688.877
  89  7164.704
  90  7488.541
  91  8070.25
  92  7859.192
  93  8048.229
  94  8294.245
  95  8860.612
  96  8520.855
  97  7976.951
  98  7781.916
  99  8112.578
 100  7858.489
 101  7009.059
 102  7041.172
 103  7455.44
 104  7184.062
 105  6890.983
 106  7049.669
 107  7577.964
 108  7507.093
 109  7569.462
 110  7928.462
 111  8882.026
 112  8941.724
 113  8056.727
 114  7860.153
 115  7286.575
 116  7451.145
 117  6557.799
 118  6848.458
 119  7187.966
 120  7487.001
 121  7347.618
 122  6518.28
 123  7072.358
 124  7530.605
 125  7647.83
 126  7536.751
 127  8446.45
 128  8990.81
 129  8453.77
 130  8220.162
 131  7838.441
 132  7970.157
 133  7720
 134  7163.002
 135  7596.41
 136  7784.438
 137  7302.015
 138  6799.717
 139  7108.825
 140  7407.471
 141  7889.753
 142  8055.523
 143  8283.672
 144  9303.281
 145  9315.08
 146  9091.716
 147  8815.194
 148  8496.605
 149  7916.527
 150  7499.859
 151  7257.405
 152  7395.916
 153  8001.824
 154  7885.755
 155  7615.618
 156  8078.008
 157  7912.378
 158  8154.685
 159  8492.924
 160  9127.498
 161  9415.422
 162  9282.782
 163  8513.973
 164  8395.165
 165  8625.948
 166  8076.549
 167  7324.686
 168  7544.67
 169  7791.468
 170  7949.406
 171  8117.997
 172  8313.947
 173  8322.871
 174  8731.504
 175  8196.831
 176  8511.328
 177  9068.173
 178  9130.399
 179  8589.338
 180  8955.564
 181  9284.782
 182  8615.571
 183  8132.811
 184  7632.033
 185  8382.718
 186  8471.977
 187  7743.238
 188  7767.767
 189  7995.188
 190  8402.231
 191  8229.022
 192  8605.253
 193  9167.783
 194  9436.059
 195  9080.734
 196  8253.649
 197  8521.669
 198  8092.238
 199  8159.13
 200  7665.334
 201  7748.085
 202  8133.875
 203  7748.231
 204  7133.285
 205  6892.251
 206  7954.869
 207  8007.706
 208  7973.535
 209  8868.291
 210  9262.112
 211  9339.305
 212  8377.68
 213  8267.144
 214  8202.07
 215  8214.926
 216  7863.823
 217  7826.026
 218  8319.84
 219  8559.589
 220  8030.053
 221  7546.867
 222  7997.499
 223  7856.195
 224  7923.54
 225  8348.636
 226  9003.376
 227  9488.272
 228  9108.678
 229  8528.603
 230  8402.034
 231  8556.171
 232  7982.927
 233  7596.647
 234  7579.343
 235  8050.965
 236  8316.642
 237  7731.864
 238  7704.712
 239  8020.062
 240  7934.635
 241  8230.749
 242  8839.803
 243  9451.937
 244  9598.459
 245  9413.926
 246  8542.359
 247  8879.126
 248  8270.991
 249  7823.033
 250  7324.425
 251  7845.053
 252  8055.263
 253  8113.827
 254  8182.665
 255  8223.451
 256  8484.285
 257  8351.77
 258  8507.012
 259  9572.61
 260  10047.88
 261  9528.074
 262  8990.585
 263  8932.153
 264  9223.642
 265  8786.4
 266  8605.305
 267  8435.869
 268  8613.002
 269  8549.686
 270  8112.022
 271  8245.82
 272  8258.382
 273  7983.877
 274  8375.771
 275  8846.447
 276  9101.16
 277  9530.145
 278  9578.093
 279  8737.672
 280  8607.928
 281  8897.967
 282  8829.184
 283  9441.107
 284  10661.25
 285  11105.71
 286  10162.02
 287  9078.296
 288  8555.351
 289  8298.64
 290  8180.067
 291  8371.698
 292  9043.63
 293  9534.503
 294  9015.724
 295  8416.771
 296  8534.841
 297  8391.291
 298  8082.622
 299  7495.823
 300  7925.459
 301  8296.734
 302  7743.525
 303  6785.083
 304  6880.866
 305  7401.675
 306  7360.756
 307  7694.951
 308  8029.312
 309  8422.019
 310  8503.951
 311  8247.933
 312  8013.77
 313  7847.25
 314  7625.437
 315  6828.847
 316  6418.673
 317  7141.189
 318  7771.655
 319  7517.905
 320  6623.685
 321  6971.101
 322  7343.853
 323  7253.331
 324  7758.281
 325  8177.18
 326  8688.944
 327  8041.505
 328  8059.128
 329  7825.36
 330  7849.814
 331  7364.525
 332  6529.831
 333  6863.066
 334  7194.61
 335  7310.456
 336  6967.039
 337  6912.678
 338  7384.382
 339  7329.971
 340  7344.055
 341  7737.445
 342  8551.451
 343  8154.234
 344  8052.587
 345  7615.362
 346  7757.542
 347  7690.197
 348  7531.279
 349  7014.862
 350  6927.279
 351  7356.664
 352  7135.697
 353  6753.031
 354  7321.87
 355  7852.816
 356  8034.606
 357  7527.654
 358  7937.093
 359  8798.35
 360  8524.075
 361  7998.906
 362  7788.892
 363  7514.015
 364  7593.93
 365  7108.611
 366  6769.961
 367  6795.135
 368  6954.741
 369  6287.584
 370  6945.454
 371  7616.534
 372  7797.687
 373  7556.948
 374  8052.167
 375  8343.84
 376  8376.939
 377  8383.697
 378  7798.63
 379  7817.762
 380  7808.525
 381  8002.573
 382  7389.081
 383  7488.008
 384  7719.954
 385  7121.034
 386  7001.364
 387  7201.997
 388  7700.068
 389  8418.471
 390  7789.132
 391  8499.864
 392  8879.312
 393  8376.811
 394  8342.131
 395  8456.702
 396  8037.057
 397  7676.651
 398  7159.191
 399  6799.152
 400  7160.165
 401  7030.469
 402  6896.535
 403  6678.125
 404  7049.583
 405  7119.021
 406  7062.574
 407  7824.088
 408  8698.696
 409  8651.325
 410  8124.502
 411  7845.425
 412  7933.735
 413  7800.568
 414  7117.572
 415  6651.552
 416  7251.708
 417  7675.064
 418  7520.56
 419  6782.551
 420  6839.588
 421  7354.856
 422  7191.568
 423  7298.89
 424  8018.51
 425  8778.596
 426  8527.158
 427  7932.556
 428  7503.57
 429  7593.456
 430  7667.985
 431  7040.665
 432  6266.119
 433  6830.031
 434  7038.47
 435  6900.575
 436  6958.999
 437  7617.82
 438  7804.175
 439  7330.748
 440  7357.732
 441  8073.377
 442  8644.819
 443  7925.643
 444  7939.447
 445  7727.502
 446  7085.085
 447  6574.769
 448  6524.917
 449  6694.931
 450  6647.025
 451  6664.519
 452  6282.722
 453  7250.815
 454  7608.757
 455  7501.833
 456  7505.19
 457  7722.12
 458  8491.972
 459  8345.082
 460  7980.235
 461  7866.186
 462  7828.855
 463  7742.756
 464  7395.296
 465  7539.885
 466  7387.792
 467  7549.749
 468  6663.608
 469  6515.999
 470  6948.924
 471  7359.625
 472  7189.834
 473  7564.917
 474  8438.617
 475  8532.945
 476  7905.618
 477  7967.827
 478  7985.412
 479  7799.466
 480  7214.108
 481  6914.575
 482  7052.522
 483  7336.022
 484  7504.658
 485  7014.114
 486  7183.897
 487  7469.188
 488  7368.892
 489  7876.803
 490  8299.473
 491  8543.676
 492  8501.385
 493  8021.461
 494  8197.167
 495  8048.306
 496  7941.359
 497  7738.647
 498  7257.06
 499  7822.193
 500  7714.554
 501  7380.671
 502  6988.011
 503  7705.288
 504  7721.249
 505  7740.002
 506  8431.924
 507  8820.993
 508  8724.985
 509  8345.476
 510  7765.055
 511  8075.245
