# Input file       =  1206257845.112525_cleaned.dat
# Candidate        =  PSR_0332+5434
# Telescope        =  AR
# Epoch_topo       =  58205.317871672742
# Epoch_bary       =  N/A
# T_sample         =  0.002
# Data Folded      =  7143424
# Data Avg         =  0.0407467430084452
# Data StdDev      =  1.00004925128309 
# Profile Bins     =  512
# Profile Avg      =  568.496218066841 
# Profile StdDev   =  118.12440197371  
# Reduced chi-sqr  =  1.839
# Prob(Noise)      <  9.45e-28   (~10.9 sigma)
# P_topo (ms)      =  714.571717035104  +/- 6.19e-05
# P'_topo (s/s)    =  -0                +/- 3.35e-11
# P''_topo (s/s^2) =  0                 +/- 1.52e-14
# P_bary (ms)      =  N/A
# P'_bary (s/s)    =  N/A
# P''_bary (s/s^2) =  N/A
# P_orb (s)        =  N/A
# asin(i)/c (s)    =  N/A
# eccentricity     =  N/A
# w (rad)          =  N/A
# T_peri           =  N/A
######################################################
   0  1279.743
   1  1155.487
   2  997.9369
   3  748.2664
   4  744.863
   5  777.5799
   6  694.1848
   7  534.3215
   8  545.7475
   9  600.9645
  10  533.5504
  11  613.7042
  12  625.4075
  13  699.7556
  14  775.5972
  15  679.8636
  16  582.5851
  17  522.0127
  18  440.7952
  19  511.5337
  20  648.4214
  21  766.9096
  22  728.6952
  23  635.2108
  24  659.1349
  25  725.3764
  26  598.5947
  27  554.0682
  28  450.9275
  29  487.7114
  30  637.3239
  31  587.5492
  32  558.305
  33  573.1219
  34  662.5526
  35  541.579
  36  528.9219
  37  570.1368
  38  663.2276
  39  677.7584
  40  690.3614
  41  619.5004
  42  510.2055
  43  557.2424
  44  641.4056
  45  591.0646
  46  639.4087
  47  608.6235
  48  541.4745
  49  537.974
  50  488.6481
  51  527.9641
  52  680.1694
  53  727.8246
  54  639.2512
  55  687.6948
  56  632.0521
  57  648.8466
  58  605.2469
  59  528.1431
  60  427.8732
  61  475.9235
  62  535.2465
  63  643.6696
  64  516.7543
  65  584.6709
  66  574.3448
  67  457.0215
  68  472.3835
  69  509.7067
  70  628.6992
  71  692.3502
  72  676.9322
  73  571.6656
  74  587.7692
  75  547.5464
  76  593.9204
  77  686.4952
  78  751.8347
  79  636.2598
  80  596.3605
  81  550.2171
  82  513.9272
  83  591.2664
  84  603.541
  85  609.6144
  86  514.6417
  87  696.0843
  88  809.0707
  89  649.4343
  90  667.7195
  91  581.6393
  92  494.399
  93  505.4002
  94  536.3981
  95  593.2456
  96  687.2187
  97  641.841
  98  604.1993
  99  421.0379
 100  434.9578
 101  472.6526
 102  526.155
 103  701.2198
 104  678.9557
 105  639.6446
 106  592.7708
 107  594.5106
 108  654.7768
 109  566.9154
 110  530.8232
 111  560.7497
 112  613.6099
 113  618.4037
 114  668.8445
 115  644.4048
 116  551.8922
 117  533.4296
 118  588.2058
 119  640.7318
 120  710.5084
 121  825.6011
 122  770.0405
 123  872.9758
 124  698.3884
 125  567.6107
 126  531.9302
 127  607.9878
 128  595.6739
 129  629.2815
 130  547.1228
 131  532.1937
 132  466.7288
 133  488.4719
 134  516.8492
 135  607.2364
 136  734.9802
 137  628.4556
 138  738.6343
 139  742.1337
 140  743.5565
 141  575.8439
 142  462.2203
 143  591.8558
 144  540.7407
 145  577.3507
 146  708.3611
 147  567.5807
 148  453.2043
 149  425.54
 150  537.96
 151  529.8386
 152  654.4348
 153  829.489
 154  802.62
 155  741.19
 156  612.9467
 157  583.0909
 158  649.6597
 159  719.2911
 160  509.5703
 161  501.6646
 162  519.1989
 163  536.593
 164  395.3463
 165  372.0387
 166  465.5658
 167  585.3916
 168  534.2198
 169  566.4795
 170  629.2062
 171  611.0323
 172  516.4999
 173  469.4108
 174  508.3326
 175  412.3748
 176  394.3336
 177  531.6265
 178  501.5355
 179  498.2702
 180  448.205
 181  541.4541
 182  456.461
 183  356.2152
 184  356.5068
 185  430.4186
 186  587.3173
 187  653.4839
 188  504.6837
 189  427.4403
 190  452.4307
 191  545.9354
 192  395.0238
 193  384.5415
 194  441.8632
 195  540.3394
 196  470.1092
 197  357.1538
 198  428.3465
 199  433.5633
 200  397.3415
 201  379.5393
 202  473.7008
 203  553.5624
 204  571.3847
 205  547.0842
 206  476.8154
 207  444.8917
 208  440.8251
 209  380.257
 210  446.9479
 211  493.1791
 212  514.0212
 213  402.661
 214  391.1401
 215  345.9601
 216  342.748
 217  429.8045
 218  465.3008
 219  532.7321
 220  545.6622
 221  546.4332
 222  593.8831
 223  568.5309
 224  358.9923
 225  339.6436
 226  407.0532
 227  532.5464
 228  523.2623
 229  483.5227
 230  504.8576
 231  526.2015
 232  338.2416
 233  402.9975
 234  498.6382
 235  512.805
 236  601.6285
 237  598.3482
 238  549.8276
 239  451.5935
 240  419.7941
 241  388.4973
 242  493.7613
 243  499.81
 244  526.6087
 245  528.1204
 246  502.3443
 247  600.7632
 248  489.5186
 249  436.0997
 250  475.3664
 251  635.5633
 252  655.7717
 253  706.1196
 254  751.8244
 255  644.3355
 256  564.9312
 257  654.9058
 258  569.28
 259  584.9421
 260  602.744
 261  562.4722
 262  459.2512
 263  435.4602
 264  478.5656
 265  473.7731
 266  483.8593
 267  523.5457
 268  588.4705
 269  694.6609
 270  702.8293
 271  653.7191
 272  593.9846
 273  519.5208
 274  629.4332
 275  572.6597
 276  548.5794
 277  517.9348
 278  596.8481
 279  472.8649
 280  465.0358
 281  629.55
 282  598.153
 283  531.2216
 284  558.421
 285  598.3955
 286  602.2601
 287  555.9951
 288  572.6455
 289  617.6516
 290  458.1528
 291  526.0818
 292  543.496
 293  639.0931
 294  596.2189
 295  509.6505
 296  388.058
 297  425.4997
 298  435.7688
 299  414.084
 300  414.5145
 301  548.53
 302  699.661
 303  727.451
 304  636.4625
 305  610.0814
 306  483.8135
 307  528.8593
 308  537.0718
 309  546.4129
 310  602.6254
 311  643.7589
 312  527.8342
 313  535.481
 314  493.9183
 315  620.2816
 316  598.4583
 317  600.3596
 318  573.2202
 319  590.2567
 320  669.2938
 321  703.9183
 322  612.6193
 323  720.5637
 324  601.8633
 325  559.7751
 326  613.9356
 327  539.8671
 328  612.2752
 329  532.1358
 330  451.1705
 331  405.1252
 332  472.2419
 333  632.0018
 334  655.8787
 335  701.677
 336  620.3906
 337  616.9201
 338  662.1248
 339  579.0176
 340  508.5267
 341  445.3563
 342  441.391
 343  448.4936
 344  509.6938
 345  517.8825
 346  548.2377
 347  549.4573
 348  480.476
 349  496.8979
 350  394.282
 351  552.8833
 352  772.0312
 353  673.0557
 354  547.0215
 355  507.6473
 356  466.7082
 357  542.5655
 358  692.4612
 359  681.2693
 360  706.8422
 361  563.6744
 362  616.0671
 363  673.1833
 364  447.0719
 365  454.0419
 366  487.4322
 367  590.6663
 368  670.9591
 369  730.0174
 370  560.5892
 371  522.3212
 372  499.7407
 373  501.2023
 374  558.3484
 375  555.9135
 376  582.4876
 377  574.0867
 378  517.4333
 379  477.5648
 380  448.6936
 381  471.2221
 382  433.8741
 383  507.6039
 384  560.504
 385  505.0465
 386  502.4691
 387  523.8689
 388  515.1805
 389  556.1147
 390  544.1244
 391  533.3582
 392  454.2769
 393  357.4619
 394  424.8731
 395  448.8758
 396  494.6104
 397  527.1824
 398  449.7476
 399  428.9353
 400  566.0828
 401  653.4296
 402  709.3838
 403  559.7975
 404  584.5454
 405  603.8466
 406  603.5585
 407  513.8187
 408  397.4431
 409  577.7102
 410  639.0256
 411  597.2119
 412  458.6609
 413  399.2707
 414  436.74
 415  365.8805
 416  451.773
 417  538.3407
 418  553.3741
 419  547.7902
 420  522.5312
 421  497.092
 422  579.1801
 423  449.2148
 424  370.7087
 425  450.7796
 426  524.0458
 427  549.6881
 428  367.3094
 429  484.1143
 430  489.2029
 431  474.2805
 432  451.1839
 433  570.8596
 434  679.6421
 435  683.1837
 436  598.7626
 437  507.9488
 438  529.0288
 439  501.7771
 440  446.7047
 441  541.5793
 442  629.2744
 443  540.955
 444  444.5964
 445  488.4859
 446  635.4417
 447  473.3448
 448  456.132
 449  659.5748
 450  642.2036
 451  654.4963
 452  623.0745
 453  676.6283
 454  775.7745
 455  614.6675
 456  612.5793
 457  617.6659
 458  629.0414
 459  650.6075
 460  604.0222
 461  542.2168
 462  548.1791
 463  666.1808
 464  571.3475
 465  609.2214
 466  664.5959
 467  686.6749
 468  720.95
 469  659.3814
 470  645.1467
 471  572.889
 472  544.1293
 473  539.5129
 474  578.5208
 475  629.1312
 476  676.1033
 477  630.49
 478  558.9246
 479  476.6639
 480  444.5846
 481  480.8323
 482  569.9846
 483  756.5476
 484  787.5806
 485  581.1503
 486  562.4879
 487  605.7712
 488  518.8772
 489  577.6052
 490  661.274
 491  557.3301
 492  546.6612
 493  559.6111
 494  552.6315
 495  540.8645
 496  577.1376
 497  499.9652
 498  515.7266
 499  485.9141
 500  530.4576
 501  744.4364
 502  687.3324
 503  667.9651
 504  778.7419
 505  772.8118
 506  733.4607
 507  633.9135
 508  630.8243
 509  911.0634
 510  1188.339
 511  1313.199
