# Input file       =  1206085431.110653_cleaned.dat
# Candidate        =  PSR_0332+5434
# Telescope        =  AR
# Epoch_topo       =  58203.322339243670
# Epoch_bary       =  N/A
# T_sample         =  0.002
# Data Folded      =  7208960
# Data Avg         =  0.468724663662513
# Data StdDev      =  5.84154512039751 
# Profile Bins     =  512
# Profile Avg      =  6599.44332313593 
# Profile StdDev   =  693.152929347089 
# Reduced chi-sqr  =  2.373
# Prob(Noise)      <  5.8e-59   (~16.1 sigma)
# P_topo (ms)      =  714.572769935236  +/- 2.05e-05
# P'_topo (s/s)    =  -0                +/- 1.1e-11
# P''_topo (s/s^2) =  0                 +/- 4.95e-15
# P_bary (ms)      =  N/A
# P'_bary (s/s)    =  N/A
# P''_bary (s/s^2) =  N/A
# P_orb (s)        =  N/A
# asin(i)/c (s)    =  N/A
# eccentricity     =  N/A
# w (rad)          =  N/A
# T_peri           =  N/A
######################################################
   0  7900.426
   1  7938.947
   2  6880.254
   3  6361.787
   4  6388.712
   5  6622.949
   6  6274.379
   7  6448.06
   8  6984.876
   9  7364.455
  10  7140.928
  11  5934.893
  12  5763.915
  13  5715.606
  14  5692.704
  15  6288.44
  16  6929.061
  17  7329.318
  18  7114.331
  19  6360.628
  20  6192.115
  21  5946.751
  22  5615.04
  23  5681.93
  24  5907.746
  25  6901.975
  26  6781.458
  27  5773.48
  28  5461.838
  29  5009.657
  30  5176.544
  31  5240.309
  32  6283.833
  33  7173.45
  34  7453.796
  35  6375.955
  36  5298.453
  37  5137.914
  38  5150.967
  39  5234.759
  40  5585.263
  41  6242.508
  42  6990.323
  43  6353.833
  44  5145.807
  45  4912.899
  46  5109.807
  47  4971.402
  48  5556.703
  49  6547.427
  50  7218.75
  51  7384.308
  52  6768.174
  53  6040.686
  54  6044.808
  55  5926.803
  56  6008.325
  57  6323.979
  58  6770.92
  59  6935.616
  60  6485.265
  61  5779.858
  62  5279.331
  63  5154.893
  64  5431.808
  65  6650.783
  66  7382.189
  67  7609.291
  68  7312.054
  69  6816.61
  70  6552.851
  71  6095.215
  72  6114.155
  73  6338.244
  74  7204.907
  75  7688.111
  76  7207.756
  77  6481.505
  78  6143.955
  79  6546.056
  80  6082.252
  81  6304.008
  82  7074.338
  83  7708.557
  84  7529.845
  85  7195.349
  86  6631.232
  87  6527.974
  88  6908.082
  89  6641.702
  90  7158.473
  91  7634.552
  92  7426.684
  93  6969.125
  94  6154.402
  95  6662.041
  96  6474.896
  97  6570.352
  98  6829.755
  99  7559.207
 100  8241.964
 101  7399.083
 102  7164.003
 103  6701.954
 104  6813.959
 105  6342.713
 106  6706.449
 107  7368.384
 108  8024.268
 109  7584.155
 110  6425.332
 111  6445.425
 112  6347.166
 113  6203.984
 114  6681.325
 115  7788.057
 116  8392.179
 117  7982.85
 118  7455.368
 119  6449.552
 120  6490.377
 121  6462.273
 122  6349.415
 123  6850.678
 124  7206.511
 125  7151.555
 126  6217.249
 127  5937.023
 128  5853.29
 129  5606.995
 130  5629.726
 131  6654.966
 132  7226.374
 133  7657.718
 134  7268.956
 135  6511.575
 136  6060.179
 137  5946.134
 138  5915.192
 139  5826.799
 140  6395.176
 141  6965.268
 142  6376.527
 143  5591.556
 144  5349.98
 145  5263.202
 146  5024.398
 147  5363.563
 148  6469.661
 149  7054.902
 150  6799.675
 151  6781.596
 152  5870.877
 153  5542.331
 154  5296.952
 155  6154.034
 156  6489.989
 157  6751.927
 158  6837.64
 159  5980.013
 160  5596.334
 161  5723.934
 162  5565.13
 163  5467.329
 164  6488.503
 165  7352.2
 166  7156.657
 167  6658.706
 168  6395.085
 169  6497.734
 170  6431.971
 171  6173.814
 172  6128.905
 173  6692.364
 174  6922.131
 175  6915.658
 176  6420.829
 177  5710.219
 178  5979.31
 179  6210.323
 180  6447.358
 181  6903.317
 182  7353.809
 183  7701.836
 184  7141.502
 185  6518.747
 186  6311.291
 187  6583.207
 188  6450.288
 189  6645.733
 190  7246.757
 191  7651.647
 192  6893.333
 193  6163.145
 194  6281.381
 195  6019.767
 196  6555.674
 197  7476.266
 198  8216.444
 199  8139.484
 200  7514.42
 201  6989.622
 202  6481.442
 203  6144.621
 204  6159.061
 205  6776.171
 206  7298.754
 207  7489.256
 208  7146.997
 209  6264.539
 210  5979.547
 211  5424.618
 212  5661.414
 213  6266.979
 214  6991.334
 215  7886.773
 216  7477.07
 217  6914.632
 218  5941.845
 219  5951.441
 220  5982.258
 221  5876.971
 222  6326.966
 223  6838.031
 224  6935.978
 225  6321.305
 226  5763.351
 227  5487.831
 228  5468.04
 229  5218.479
 230  5762.171
 231  6802.934
 232  7303.534
 233  6651.529
 234  5727.989
 235  5731.132
 236  5523.56
 237  5740.625
 238  5724.217
 239  6427.985
 240  6613.856
 241  6014.418
 242  4914.861
 243  5005.979
 244  5425.008
 245  5582.779
 246  6023.601
 247  6591.457
 248  6890.18
 249  6868.78
 250  6086.174
 251  5742.991
 252  5684.095
 253  5245.412
 254  5345.552
 255  6130.269
 256  6626.233
 257  6249.608
 258  6123.188
 259  5748.482
 260  5446.401
 261  5577.889
 262  5477.87
 263  5852.559
 264  7176.377
 265  7546.277
 266  7253.6
 267  6897.164
 268  6558.079
 269  6257.854
 270  6607.451
 271  6837.091
 272  7106.41
 273  7558.427
 274  7049.802
 275  6456.451
 276  6215.838
 277  6328.511
 278  6306.915
 279  6742.753
 280  7591.986
 281  8338.887
 282  8304.012
 283  7681.584
 284  7447.232
 285  7059.543
 286  7028.688
 287  6972.716
 288  7521.462
 289  8209.398
 290  8455.222
 291  7992.316
 292  7248.049
 293  6919.708
 294  6691.581
 295  6542.201
 296  6973.669
 297  8413.883
 298  8826.615
 299  8530.24
 300  8199.798
 301  8500.078
 302  8916.431
 303  8781.321
 304  8444.366
 305  8651.045
 306  8392.345
 307  7668.275
 308  7029.582
 309  6502.913
 310  6790.562
 311  6685.702
 312  6952.854
 313  7384.593
 314  8167.915
 315  8380.833
 316  7790.444
 317  6898.831
 318  6857.324
 319  7014.176
 320  7040.732
 321  6918.326
 322  7362.646
 323  7326.289
 324  6719.976
 325  6212.578
 326  5823.17
 327  6083.195
 328  6466.172
 329  6645.688
 330  7666.316
 331  7994.498
 332  7359.394
 333  6832.984
 334  6403.145
 335  6516.774
 336  6424.231
 337  6582.977
 338  7082.549
 339  7272.28
 340  7299.298
 341  6700.858
 342  6222.674
 343  6045.122
 344  6048.625
 345  6324.058
 346  7194.55
 347  7784.483
 348  7860.811
 349  7276.274
 350  6528.913
 351  6716.983
 352  6483.165
 353  6501.874
 354  6878.991
 355  7431.802
 356  7272.603
 357  6778.201
 358  6284.939
 359  5796.539
 360  5830.351
 361  6130.098
 362  6780.718
 363  7941.373
 364  8594.05
 365  7723.869
 366  6779.776
 367  6375.783
 368  6733.607
 369  6585.325
 370  6388.657
 371  6995.306
 372  7500.77
 373  6974.348
 374  6507.049
 375  6023.509
 376  6201.686
 377  6155.067
 378  6433.613
 379  7282.73
 380  7762.648
 381  7895.885
 382  7074.872
 383  6498.376
 384  6244.513
 385  6212.546
 386  6307.223
 387  6329.133
 388  7229.378
 389  7527.831
 390  6959.155
 391  6402.459
 392  6195.799
 393  5874.211
 394  5749.657
 395  5916.596
 396  7286.495
 397  7801.138
 398  7344.39
 399  6961.577
 400  6581.054
 401  6614.763
 402  6460.855
 403  6122.596
 404  6613.324
 405  7031.859
 406  7323.906
 407  6773.625
 408  6025.693
 409  6231.691
 410  6115.095
 411  6088.507
 412  6528.866
 413  7447.024
 414  7459.138
 415  6589.174
 416  6539.463
 417  6644.524
 418  6248.703
 419  5702.64
 420  6338.278
 421  6871.922
 422  7131.012
 423  6403.602
 424  5321.459
 425  5185.385
 426  5395.141
 427  5413.529
 428  5920.051
 429  7042.5
 430  7280.962
 431  6950.963
 432  6009.611
 433  5573.225
 434  6005.344
 435  5612.792
 436  5615.973
 437  6469.364
 438  7087.041
 439  6462.866
 440  5507.472
 441  5463.946
 442  5607.887
 443  5704.825
 444  5666.208
 445  6627.383
 446  7271.866
 447  7105.118
 448  6265.078
 449  5591.483
 450  5968.683
 451  5858.428
 452  5931.536
 453  6085.569
 454  6626.62
 455  6888.21
 456  5919.222
 457  5335.652
 458  5422.389
 459  5710.859
 460  5605.509
 461  5870.987
 462  6810.142
 463  7313.982
 464  6993.684
 465  6124.442
 466  5838.323
 467  6053.293
 468  5936.59
 469  5955.235
 470  6191.846
 471  6864.25
 472  7027.401
 473  6663.889
 474  6049.506
 475  5988.055
 476  5910.166
 477  6021.076
 478  6641.903
 479  7324.91
 480  7777.006
 481  7469.572
 482  6748.101
 483  6803.795
 484  6966.337
 485  6669.723
 486  6197.107
 487  7329.581
 488  7987.543
 489  7375.792
 490  6993.671
 491  6619.86
 492  6761.405
 493  6580.796
 494  6387.416
 495  7652.305
 496  7828.889
 497  7769.821
 498  7035.364
 499  6888.929
 500  6628.257
 501  6483.7
 502  6617.49
 503  7153.317
 504  7317.898
 505  7013.512
 506  6270.064
 507  5569.147
 508  5791.102
 509  6063.387
 510  6174.305
 511  6758.779
