# Input file       =  1206343968.106489_cleaned.dat
# Candidate        =  PSR_0332+5434
# Telescope        =  AR
# Epoch_topo       =  58206.314665584359
# Epoch_bary       =  N/A
# T_sample         =  0.002
# Data Folded      =  7208960
# Data Avg         =  0.599675953230525
# Data StdDev      =  6.67464474906965 
# Profile Bins     =  512
# Profile Avg      =  8443.41514585761 
# Profile StdDev   =  792.007844639222 
# Reduced chi-sqr  =  1.795
# Prob(Noise)      <  1.51e-25   (~10.4 sigma)
# P_topo (ms)      =  714.571173788358  +/- 3.85e-05
# P'_topo (s/s)    =  -0                +/- 2.07e-11
# P''_topo (s/s^2) =  0                 +/- 9.3e-15
# P_bary (ms)      =  N/A
# P'_bary (s/s)    =  N/A
# P''_bary (s/s^2) =  N/A
# P_orb (s)        =  N/A
# asin(i)/c (s)    =  N/A
# eccentricity     =  N/A
# w (rad)          =  N/A
# T_peri           =  N/A
######################################################
   0  8380.811
   1  8263.298
   2  8714.567
   3  8380.056
   4  7968.438
   5  7964.538
   6  7984.765
   7  7827.144
   8  7960.476
   9  9182.883
  10  9761.9
  11  9734.829
  12  9621.415
  13  9631.283
  14  9040.297
  15  8534.981
  16  7877.992
  17  7514.668
  18  8048.018
  19  8090.978
  20  7989.943
  21  7973.198
  22  8096.2
  23  8150.812
  24  8258.918
  25  8371.354
  26  9089.706
  27  9649.231
  28  9940.771
  29  9615.557
  30  9978.175
  31  9704.784
  32  8640.962
  33  7867.495
  34  7972.907
  35  8206.248
  36  8124.867
  37  7684.344
  38  7984.598
  39  8326.676
  40  8248.392
  41  8122.953
  42  8690.913
  43  9581.938
  44  9442.341
  45  9337.11
  46  9425.46
  47  9165.236
  48  8691.121
  49  8195.24
  50  8587.841
  51  8251.134
  52  8121.446
  53  7610.599
  54  7196.292
  55  8261.13
  56  8575.343
  57  8118.272
  58  8672.816
  59  9459.993
  60  9907.275
  61  9666.716
  62  9667.087
  63  10174.93
  64  9803.506
  65  9119.763
  66  8510.731
  67  8387.603
  68  8313.529
  69  8104.339
  70  7700.071
  71  8187.862
  72  8846.337
  73  8472.44
  74  8281.431
  75  8883.023
  76  9676.978
  77  9846.007
  78  9872.359
  79  9619.195
  80  9396.285
  81  8633.804
  82  8451.247
  83  8559.428
  84  8911.146
  85  9331.688
  86  8806.288
  87  8606.961
  88  8858.343
  89  8667.323
  90  8380.802
  91  8743.657
  92  9698.379
  93  9967.489
  94  9805.135
  95  9852.877
  96  9888.226
  97  9508.115
  98  8817.903
  99  8236.422
 100  8430.532
 101  8768.76
 102  8750.355
 103  8380.104
 104  8206.296
 105  8574.774
 106  8536.76
 107  8222.768
 108  8822.575
 109  9362.991
 110  9602.056
 111  9359.83
 112  9754.582
 113  9912.78
 114  9131.632
 115  8573.002
 116  7856.851
 117  8580.561
 118  8275.8
 119  7692.424
 120  7777.25
 121  8114.662
 122  8113.7
 123  7530.039
 124  8052.574
 125  8999.915
 126  9326.599
 127  9436.566
 128  9610.852
 129  9713.319
 130  9065.672
 131  8205.877
 132  7412.962
 133  7668.201
 134  8202.434
 135  7532.527
 136  6964.706
 137  7106.369
 138  7657.704
 139  7522.475
 140  7496.984
 141  8005.702
 142  8745.923
 143  8926.039
 144  8492.085
 145  8729.854
 146  9074.537
 147  8580.975
 148  7974.528
 149  7480.351
 150  7387.491
 151  7474.684
 152  7143.476
 153  6727.25
 154  7474.908
 155  7813.608
 156  7618.568
 157  7859.167
 158  8582.782
 159  9086.512
 160  8470.495
 161  8792.802
 162  9128.864
 163  8838.655
 164  8202.646
 165  7515.598
 166  7475.91
 167  7624.843
 168  8172.952
 169  7454.485
 170  7682.34
 171  8219.347
 172  7963.289
 173  8170.041
 174  8517.924
 175  9392.923
 176  9544.803
 177  9430.879
 178  9305.115
 179  9206.331
 180  8502.957
 181  8045.111
 182  7538.963
 183  7834.665
 184  8117.943
 185  7699.036
 186  7685.045
 187  7891.459
 188  7701.923
 189  7577.246
 190  7748.154
 191  8770.909
 192  9441.927
 193  9573.593
 194  9616.769
 195  9881.247
 196  9329.8
 197  8160.529
 198  7594.264
 199  7756.375
 200  8008.774
 201  7913.331
 202  7712.072
 203  8333.715
 204  8355.515
 205  8206.019
 206  7852.546
 207  8538.217
 208  9556.436
 209  9444.456
 210  9322.175
 211  8933.782
 212  9161.627
 213  8772.896
 214  8217.075
 215  7791.032
 216  7840.345
 217  7495.944
 218  7428.52
 219  7865.471
 220  8443.316
 221  8564.22
 222  8306.272
 223  8255.414
 224  8633.729
 225  8963.605
 226  8959.453
 227  8933.112
 228  9306.431
 229  9393.848
 230  8722.52
 231  7704.766
 232  7788.212
 233  7897.046
 234  7646.547
 235  7375.569
 236  7295.982
 237  8256.356
 238  8175.343
 239  8001.146
 240  8359.616
 241  9004.824
 242  8921.129
 243  8691.852
 244  9364.942
 245  9621.98
 246  8905.334
 247  8276.405
 248  7524.867
 249  7510.08
 250  7619.447
 251  7204.431
 252  7194.983
 253  7827.982
 254  8005.629
 255  7631.814
 256  8242.087
 257  9006.551
 258  9246.254
 259  9121.635
 260  9035.93
 261  9291.22
 262  8915.75
 263  8103.343
 264  7561.874
 265  7324.219
 266  7619.13
 267  7956.684
 268  7513.573
 269  7478.604
 270  7660.324
 271  7419.628
 272  7396.368
 273  8199.301
 274  9195.062
 275  9043.244
 276  8902.641
 277  9088.704
 278  9120.785
 279  8510.417
 280  7733.792
 281  7376.678
 282  7496.354
 283  7962.902
 284  7996.085
 285  7635.459
 286  8058.823
 287  8138.295
 288  8130.869
 289  7734.56
 290  8315.359
 291  9145.935
 292  9184.227
 293  9319.635
 294  9508.602
 295  9162.403
 296  8485.069
 297  7797.506
 298  7827.802
 299  8199.188
 300  8534
 301  9013.827
 302  10026.33
 303  10720.27
 304  10130.25
 305  9146.847
 306  8815.086
 307  8935.426
 308  8950.352
 309  9088.955
 310  9440.326
 311  9690.597
 312  9055.71
 313  7705.758
 314  7186.679
 315  7403.681
 316  7570.915
 317  7085.097
 318  7310.114
 319  7805.077
 320  7926.297
 321  7745.806
 322  7973.6
 323  8783.437
 324  8868.706
 325  8581.388
 326  8602.745
 327  8616.065
 328  8517.441
 329  8079.322
 330  7572.266
 331  7402.749
 332  7559.991
 333  7266.217
 334  6608.932
 335  6596.106
 336  7529.056
 337  7142.132
 338  7103.319
 339  7834.586
 340  8849.159
 341  8881.325
 342  8499.49
 343  8504.36
 344  8642.762
 345  7628.865
 346  7059.102
 347  6975.544
 348  7353.544
 349  7468.172
 350  7234.164
 351  7408.039
 352  7294.711
 353  7264.932
 354  7050.642
 355  7224.62
 356  8293.952
 357  8725.919
 358  8583.227
 359  8622.863
 360  8872.001
 361  8503.281
 362  7725.373
 363  6912.335
 364  6999.606
 365  7643.222
 366  7715.23
 367  7143.705
 368  7038.663
 369  7777.877
 370  7596.87
 371  7464.806
 372  8171.945
 373  8587.714
 374  8902.38
 375  8812.759
 376  8719.888
 377  9198.957
 378  8657.615
 379  7397.489
 380  7316.671
 381  7394.928
 382  7480.957
 383  7035.255
 384  7094.16
 385  7330.819
 386  7828.89
 387  7867.657
 388  7860.457
 389  8441.186
 390  9062.595
 391  8736.435
 392  9101.328
 393  9689.876
 394  9575.708
 395  8654.309
 396  7563.103
 397  8054.178
 398  8183.196
 399  7942.287
 400  7695.483
 401  7714.592
 402  8214.688
 403  8521.355
 404  8804.685
 405  9504.701
 406  9737.848
 407  9781.007
 408  9369.962
 409  9203.408
 410  9298.701
 411  9273.353
 412  8889.975
 413  8598.572
 414  8825.424
 415  8835.32
 416  8162.473
 417  7690.555
 418  7601.361
 419  8311.445
 420  8473.81
 421  8177.542
 422  8883.567
 423  9466.076
 424  9829.083
 425  9794.61
 426  9722.856
 427  9390.662
 428  8786.562
 429  8321.498
 430  8340.506
 431  8513.067
 432  8380.753
 433  8108.129
 434  8065.134
 435  8176.211
 436  8646.529
 437  8145.455
 438  8295.025
 439  9014.56
 440  9672.571
 441  9709.381
 442  9381.147
 443  9593.693
 444  9019.01
 445  8343.839
 446  7508.037
 447  8145.416
 448  8212.379
 449  8255.949
 450  7984.929
 451  8092.584
 452  8132.326
 453  7713.706
 454  7980.446
 455  8785.435
 456  8965.349
 457  9286.221
 458  9396.976
 459  9514.189
 460  9469.396
 461  9071.875
 462  7991.869
 463  7887.811
 464  8170.083
 465  7915.31
 466  8027.071
 467  7864.939
 468  8542.224
 469  8638.665
 470  8209.752
 471  8174.054
 472  8629.471
 473  9673.536
 474  9296.153
 475  9284.889
 476  9929.331
 477  9571.378
 478  8345.325
 479  7908.423
 480  8056.082
 481  8222.602
 482  7972.701
 483  7275.82
 484  7884.215
 485  8643.138
 486  8212.198
 487  8392.406
 488  8737.132
 489  9167.048
 490  9237.6
 491  9110.585
 492  9549.258
 493  9473.982
 494  8814.578
 495  8204.3
 496  8369.689
 497  8257.157
 498  8032.501
 499  7814.425
 500  7575.166
 501  8392.946
 502  8806.882
 503  8651.285
 504  8870.293
 505  9552.257
 506  9631.729
 507  8894.466
 508  9358.096
 509  9171.924
 510  9338.51
 511  8656.553
