# Input file       =  1206085431.110653_cleaned.dat
# Candidate        =  PSR_0332+5434
# Telescope        =  AR
# Epoch_topo       =  58203.322339243670
# Epoch_bary       =  N/A
# T_sample         =  0.002
# Data Folded      =  7208960
# Data Avg         =  0.0822017009069322
# Data StdDev      =  1.00011145300281 
# Profile Bins     =  512
# Profile Avg      =  1157.32939303111 
# Profile StdDev   =  118.672400714984 
# Reduced chi-sqr  =  1.974
# Prob(Noise)      <  6e-35   (~12.3 sigma)
# P_topo (ms)      =  714.572769926372  +/- 7.87e-05
# P'_topo (s/s)    =  -0                +/- 4.23e-11
# P''_topo (s/s^2) =  0                 +/- 1.9e-14
# P_bary (ms)      =  N/A
# P'_bary (s/s)    =  N/A
# P''_bary (s/s^2) =  N/A
# P_orb (s)        =  N/A
# asin(i)/c (s)    =  N/A
# eccentricity     =  N/A
# w (rad)          =  N/A
# T_peri           =  N/A
######################################################
   0  1146.111
   1  1070.894
   2  1104.545
   3  1138.826
   4  1215.356
   5  1232.408
   6  1142.866
   7  1117.379
   8  1139.156
   9  1099.553
  10  1113.531
  11  1128.286
  12  1181.172
  13  1177.429
  14  1201.225
  15  1247.529
  16  1211.162
  17  1048.99
  18  1063.05
  19  1195.417
  20  1269.303
  21  1213.897
  22  1022.277
  23  1035.62
  24  1061.21
  25  1040.864
  26  1068.15
  27  1229.339
  28  1255.723
  29  1204.275
  30  1094.029
  31  981.3398
  32  1087.259
  33  1078.524
  34  1052.983
  35  1154.155
  36  1294.703
  37  1131.834
  38  1021.049
  39  1067.329
  40  1095.047
  41  1107.119
  42  1112.452
  43  1169.753
  44  1198.421
  45  1163.054
  46  1051.142
  47  979.1401
  48  1074.496
  49  1098.547
  50  1092.94
  51  1076.169
  52  1134.341
  53  1221.171
  54  1074.541
  55  1065.277
  56  1126.249
  57  1178.411
  58  1224.372
  59  1136.726
  60  1172.477
  61  1190.154
  62  1145.386
  63  1077.403
  64  1122.911
  65  1240.46
  66  1177.154
  67  1111.392
  68  1060.055
  69  1159.21
  70  1169.067
  71  1239.315
  72  1242.868
  73  1144.194
  74  1150.446
  75  1239.331
  76  1236.248
  77  1199.211
  78  1235.135
  79  1291.394
  80  1228.905
  81  1250.321
  82  1312.431
  83  1273.238
  84  1111.123
  85  1293.593
  86  1511.534
  87  1369.548
  88  1325.606
  89  1275.936
  90  1257.827
  91  1262.719
  92  1185.922
  93  1367.839
  94  1307.03
  95  1257.718
  96  1224.261
  97  1261.281
  98  1219.45
  99  1171.582
 100  1206.152
 101  1285.699
 102  1270.918
 103  1184.122
 104  1147.534
 105  1004.672
 106  975.7979
 107  1078.346
 108  1089.585
 109  1115.122
 110  1257.788
 111  1296.154
 112  1121.195
 113  1055.092
 114  1121.189
 115  1204.836
 116  1153.425
 117  1143.999
 118  1169.845
 119  1183.723
 120  1187.537
 121  1048.184
 122  1001.937
 123  985.9674
 124  965.1508
 125  1024.228
 126  1073.841
 127  1072.231
 128  1104.334
 129  1049.76
 130  1110.608
 131  1077.661
 132  963.9131
 133  979.3173
 134  936.3942
 135  1069.227
 136  1134.567
 137  1018.225
 138  992.6673
 139  892.715
 140  960.0568
 141  948.6458
 142  1041.834
 143  1128.924
 144  1181.075
 145  1015.109
 146  886.8127
 147  920.5363
 148  950.274
 149  991.4232
 150  1037.227
 151  1040.058
 152  1096.026
 153  1114.057
 154  961.0765
 155  926.1031
 156  1018.753
 157  933.8869
 158  1003.905
 159  1063.45
 160  1114.921
 161  1199.193
 162  1221.518
 163  1108.283
 164  1105.017
 165  1081.099
 166  1126.556
 167  1226.274
 168  1150.032
 169  1172.679
 170  1201.797
 171  1157.424
 172  976.5409
 173  926.4525
 174  1032.504
 175  1194.875
 176  1278.78
 177  1255.323
 178  1227.259
 179  1157.903
 180  1200.152
 181  1198.876
 182  1151.821
 183  1158.649
 184  1220.702
 185  1355.068
 186  1284.073
 187  1192.374
 188  1191.561
 189  1285.462
 190  1215.388
 191  1166.498
 192  1201.36
 193  1255.926
 194  1193.489
 195  1252.863
 196  1215.391
 197  1206.011
 198  1276.858
 199  1199.545
 200  1216.539
 201  1303.526
 202  1348.099
 203  1304.736
 204  1167.219
 205  1214.293
 206  1232.99
 207  1138.652
 208  1190.068
 209  1254.471
 210  1401.686
 211  1230.758
 212  1218.148
 213  1229.3
 214  1314.094
 215  1236.016
 216  1242.458
 217  1271.504
 218  1347.546
 219  1311.279
 220  1227.549
 221  1195.115
 222  1207.502
 223  1181.253
 224  1196.693
 225  1344.608
 226  1367.348
 227  1345.784
 228  1313.349
 229  1183.757
 230  1215.562
 231  1304.659
 232  1248.309
 233  1291.062
 234  1242.968
 235  1206.926
 236  1123.72
 237  1090.625
 238  1125.228
 239  1110.86
 240  1088.602
 241  1246.682
 242  1233.801
 243  1266.851
 244  1177.221
 245  1184.522
 246  1138.339
 247  1146.273
 248  1126.859
 249  1081.823
 250  1090.033
 251  1234.76
 252  1131.312
 253  1022.947
 254  973.3079
 255  1064.731
 256  1012.88
 257  1059.194
 258  1124.931
 259  1178.258
 260  1078.216
 261  1206.246
 262  1141.323
 263  1073.002
 264  1028.211
 265  1200.469
 266  1245.821
 267  1134.454
 268  1235.043
 269  1094.265
 270  1053.935
 271  1141.164
 272  1145.642
 273  1147.997
 274  1220.464
 275  1289.176
 276  1205.873
 277  1122.148
 278  1161.881
 279  1234.876
 280  1229.586
 281  1194.229
 282  1143.683
 283  1157.073
 284  1175.267
 285  1242.469
 286  1279.903
 287  1189.62
 288  1178.635
 289  1197.88
 290  1190.428
 291  1159.688
 292  1144.796
 293  1219.995
 294  1272.691
 295  1157.731
 296  1138.991
 297  1169.798
 298  1187.975
 299  1193.159
 300  1199.214
 301  1341.264
 302  1322.668
 303  1187.308
 304  1140.018
 305  1111.797
 306  1201.208
 307  1380.284
 308  1412.453
 309  1303.472
 310  1211.002
 311  1194.766
 312  1156.72
 313  1087.161
 314  1099.344
 315  1232.048
 316  1228.054
 317  1225.503
 318  1235.609
 319  1116.92
 320  1117.005
 321  987.9327
 322  1053.64
 323  1154.437
 324  1110.358
 325  1215.95
 326  1225.373
 327  1119.779
 328  1002.298
 329  1016.669
 330  1124.458
 331  1054.794
 332  1166.987
 333  1140.124
 334  1100.724
 335  1096.725
 336  1031.718
 337  1023.271
 338  996.857
 339  923.6281
 340  955.7649
 341  1090.129
 342  1130.564
 343  1060.678
 344  947.7224
 345  975.3322
 346  927.4269
 347  997.3853
 348  1000.78
 349  1046.6
 350  1029.797
 351  1021.826
 352  866.5298
 353  869.4926
 354  970.4418
 355  1031.149
 356  1084.679
 357  1091.667
 358  1060.367
 359  1032.067
 360  986.861
 361  1010.196
 362  1001.384
 363  911.5731
 364  933.2511
 365  1080.859
 366  1093.686
 367  959.3208
 368  962.5389
 369  1033.301
 370  947.9487
 371  912.7463
 372  963.5251
 373  927.5422
 374  1097.463
 375  1146.222
 376  1128.649
 377  1174.979
 378  1150.457
 379  1069.734
 380  1079.532
 381  1125.887
 382  1111.615
 383  1169.181
 384  1162.523
 385  1146.525
 386  1109.215
 387  1117.901
 388  1062.944
 389  1124.34
 390  1120.951
 391  1239.554
 392  1223.546
 393  1245.748
 394  1297.079
 395  1281.556
 396  1219.106
 397  1236.011
 398  1269.163
 399  1372.113
 400  1401.094
 401  1312.934
 402  1301.502
 403  1286.409
 404  1236.452
 405  1191.361
 406  1178.449
 407  1381.811
 408  1388.117
 409  1349.43
 410  1455.22
 411  1659.054
 412  1835.554
 413  1814.173
 414  1748.995
 415  1725.204
 416  1529.471
 417  1257.873
 418  1218.313
 419  1161.712
 420  1215.285
 421  1217.154
 422  1262.724
 423  1217.407
 424  1271.986
 425  1348.312
 426  1327.758
 427  1177.186
 428  1212.378
 429  1290.868
 430  1274.716
 431  1179.185
 432  1165.32
 433  1151.413
 434  1134.371
 435  1088.994
 436  1051.976
 437  1094.788
 438  1241.645
 439  1165.099
 440  1268.567
 441  1236.923
 442  1129.078
 443  1105.006
 444  1084.72
 445  1138.582
 446  1190.815
 447  1218.691
 448  1228.128
 449  1142.8
 450  1147.128
 451  1184.178
 452  1133.667
 453  1023.223
 454  1005.085
 455  1057.741
 456  1180.619
 457  1248.105
 458  1271.725
 459  1237.711
 460  1120.232
 461  1162.604
 462  1110.152
 463  1132.403
 464  1133.953
 465  1151.396
 466  1163.601
 467  1109.62
 468  1131.079
 469  1047.356
 470  1029.2
 471  1051.066
 472  1121.935
 473  1218.266
 474  1303.906
 475  1159.799
 476  1091.982
 477  1040.947
 478  1146.869
 479  1205.455
 480  1111.057
 481  1116.285
 482  1114.592
 483  1098.191
 484  1172.187
 485  1153.24
 486  1131.497
 487  1116.946
 488  1070.051
 489  1222.314
 490  1229.883
 491  1274.626
 492  1136.115
 493  1144.54
 494  1035.648
 495  975.1146
 496  1140.186
 497  1083.117
 498  1153.223
 499  1206.888
 500  1124.987
 501  1134.11
 502  1136.4
 503  1092.992
 504  1013.661
 505  1006.954
 506  1181.898
 507  1272.856
 508  1190.448
 509  1189.112
 510  1163.576
 511  1164.712
