# Input file       =  1206013894.110423_cleaned.dat
# Candidate        =  PSR_0332+5434
# Telescope        =  AR
# Epoch_topo       =  58202.494364703969
# Epoch_bary       =  N/A
# T_sample         =  0.002
# Data Folded      =  7340032
# Data Avg         =  0.498071515221714
# Data StdDev      =  6.14507208118364 
# Profile Bins     =  512
# Profile Avg      =  7138.08176048869 
# Profile StdDev   =  735.768139034211 
# Reduced chi-sqr  =  0.744
# Prob(Noise)      <  1   (~0.0 sigma)
# P_topo (ms)      =  714.57320548688   +/- 0.0011
# P'_topo (s/s)    =  -0                +/- 5.8e-10
# P''_topo (s/s^2) =  0                 +/- 2.56e-13
# P_bary (ms)      =  N/A
# P'_bary (s/s)    =  N/A
# P''_bary (s/s^2) =  N/A
# P_orb (s)        =  N/A
# asin(i)/c (s)    =  N/A
# eccentricity     =  N/A
# w (rad)          =  N/A
# T_peri           =  N/A
######################################################
   0  7275.515
   1  7298.668
   2  7207.55
   3  7033.095
   4  7044.157
   5  7310.613
   6  6863.701
   7  7064.061
   8  6910.905
   9  6988.141
  10  6652.458
  11  6881.107
  12  6973.74
  13  6754.089
  14  7202.241
  15  7099.157
  16  7242.066
  17  7397.983
  18  7412.833
  19  7607.878
  20  7427.543
  21  6766.434
  22  6964.644
  23  7382.383
  24  7446.04
  25  7673.966
  26  7526.526
  27  7293.453
  28  7205.16
  29  7302.81
  30  7219.599
  31  7384.029
  32  7604.568
  33  7276.335
  34  6683.952
  35  6862.434
  36  7208.861
  37  6910.016
  38  6977.434
  39  6972.221
  40  7108.754
  41  7323.583
  42  7001.542
  43  7294.918
  44  7545.169
  45  7820.546
  46  7535.347
  47  7670.727
  48  7794.659
  49  7666.383
  50  7668.812
  51  7409.183
  52  7213.701
  53  7400.007
  54  7100.972
  55  7203.871
  56  7342.067
  57  7591.079
  58  7559.868
  59  7348.958
  60  7556.692
  61  7519.034
  62  7400.201
  63  7345.293
  64  7223.446
  65  7387.275
  66  7313.652
  67  7544.899
  68  7508.959
  69  7297.466
  70  7209.837
  71  7149.568
  72  7281.689
  73  7378.989
  74  7309.321
  75  7035.302
  76  7121.954
  77  7229.241
  78  7187.113
  79  7023.684
  80  7204.639
  81  7593.168
  82  7143.286
  83  7181.292
  84  7159.922
  85  7323.48
  86  7385.876
  87  7268.974
  88  7281.631
  89  7293.337
  90  7225.297
  91  7129.63
  92  7563.583
  93  7798.059
  94  7418.969
  95  7370.818
  96  7400.631
  97  7341.077
  98  7425.116
  99  7496.327
 100  7671.713
 101  7460.744
 102  7488.253
 103  7323.295
 104  7314.521
 105  7167.285
 106  7112.447
 107  7131.357
 108  6947.525
 109  6818.615
 110  6918.121
 111  7051.916
 112  6649.225
 113  6739.505
 114  7126.246
 115  7187.747
 116  7251.187
 117  7392.3
 118  7269.161
 119  7380.902
 120  7733.708
 121  7822.452
 122  7596.564
 123  7660.812
 124  7727.718
 125  7687.679
 126  7653.211
 127  7517.019
 128  7681.556
 129  7987.44
 130  7875.635
 131  7821.623
 132  7675.633
 133  7685.071
 134  7793.364
 135  7838.022
 136  7290.112
 137  6920.183
 138  7321.475
 139  7605.278
 140  7838.591
 141  7476.318
 142  7329.936
 143  7539.005
 144  7610.801
 145  7582.712
 146  8265.635
 147  8912.087
 148  9122.257
 149  9329.335
 150  9483.385
 151  8826.81
 152  8047.376
 153  7538.619
 154  7672.562
 155  7490.206
 156  7683.298
 157  7529.847
 158  7530.625
 159  7637.358
 160  7707.156
 161  7759.456
 162  7704.072
 163  7594.17
 164  7893.008
 165  8009.153
 166  7741.049
 167  7485.247
 168  7247.34
 169  7277.905
 170  7326.355
 171  7459.505
 172  7691.482
 173  7564.582
 174  7287.921
 175  7424.051
 176  7315.092
 177  7169.678
 178  7317.235
 179  7378.728
 180  7286.218
 181  7090.114
 182  6685.631
 183  6833.118
 184  7164.398
 185  7253.926
 186  7187.36
 187  7287.963
 188  6949.84
 189  6976.598
 190  6906.228
 191  7063.23
 192  7285.071
 193  7445.437
 194  7287.231
 195  7087.62
 196  7227.503
 197  7247.154
 198  7218.202
 199  6770.926
 200  7321.201
 201  7540.784
 202  7269.16
 203  7183.959
 204  7167.5
 205  6953.926
 206  6606.302
 207  6539.362
 208  6937.353
 209  6892.871
 210  6962.069
 211  6690.256
 212  6448.601
 213  6970.403
 214  7101.898
 215  6969.116
 216  7408.639
 217  7320.015
 218  7164.826
 219  6854.843
 220  6933.332
 221  6925.872
 222  7057.559
 223  7094.215
 224  7159.778
 225  7122.905
 226  7409.611
 227  7285.907
 228  7840.679
 229  8128.359
 230  8163.688
 231  7984.268
 232  7692.835
 233  8019.117
 234  8283.153
 235  8021.271
 236  7691.788
 237  7436.856
 238  7692.362
 239  7327.803
 240  7216.652
 241  7305.278
 242  7173.419
 243  6922.073
 244  6851.594
 245  6919.213
 246  7135.167
 247  7498.398
 248  7102.215
 249  6779.05
 250  6960.394
 251  7078.658
 252  6739.629
 253  6863.417
 254  6834.31
 255  7039.41
 256  6925.663
 257  6878.428
 258  6816.326
 259  7007.088
 260  7507.404
 261  7217.729
 262  6655.168
 263  6856.777
 264  6738.872
 265  6634.941
 266  6774.06
 267  6717.892
 268  6821.494
 269  6683.55
 270  6940.574
 271  6535.579
 272  6854.603
 273  6532.244
 274  6556.345
 275  6577.344
 276  6942.675
 277  6861.723
 278  6332.992
 279  6469.651
 280  6377.747
 281  6437.418
 282  6250.128
 283  6363.28
 284  6301.058
 285  5829.03
 286  6020.419
 287  6533.123
 288  6627.845
 289  6733.352
 290  6744.953
 291  7114.785
 292  6379.49
 293  6441.006
 294  6829.025
 295  7050.203
 296  7130.021
 297  6942.815
 298  6958.809
 299  7006.332
 300  7226.035
 301  6921.644
 302  7165.165
 303  7038.018
 304  7176.106
 305  7240.068
 306  7096.635
 307  6898.673
 308  7108.688
 309  7432.995
 310  7346.501
 311  7595.336
 312  7831.254
 313  8037.771
 314  7731.141
 315  7754.323
 316  7658.31
 317  7366.874
 318  7426.232
 319  7333.077
 320  7719.79
 321  7232.082
 322  6980.685
 323  7034.469
 324  7080.856
 325  7268.17
 326  7132.551
 327  6654.263
 328  6546.35
 329  6594.001
 330  6874.225
 331  6847.019
 332  6640.429
 333  6283.586
 334  6243.968
 335  6494.541
 336  6131.079
 337  6203.878
 338  6187.137
 339  6690.606
 340  6725.096
 341  6524.08
 342  6426.247
 343  6467.582
 344  6886.941
 345  6696.273
 346  6674.875
 347  6742.254
 348  6974.043
 349  6643.368
 350  6603.539
 351  6709.648
 352  6826.817
 353  6780.481
 354  6345.125
 355  6361.701
 356  6164.038
 357  5848.855
 358  6179.294
 359  6528.887
 360  6373.15
 361  6237.607
 362  6286.482
 363  6403.631
 364  6416.731
 365  6413.188
 366  6169.876
 367  6044.173
 368  6295.857
 369  6449.13
 370  6797.504
 371  6715.524
 372  6626.81
 373  6654.349
 374  6310.151
 375  6346.214
 376  6544.594
 377  6558.673
 378  6531.483
 379  6856.972
 380  7005.59
 381  6841.904
 382  7083.954
 383  7360.15
 384  6389.115
 385  6527.409
 386  6658.314
 387  6793.082
 388  6984.041
 389  7097.353
 390  6920.933
 391  6805.505
 392  6929.426
 393  6431.412
 394  6586.408
 395  6625.83
 396  6622.899
 397  6866.78
 398  7093.023
 399  6702.527
 400  6465.917
 401  6514.313
 402  6665.546
 403  6686.965
 404  6521.263
 405  6964.133
 406  7045.458
 407  6824.762
 408  7014.859
 409  7094.696
 410  6865.835
 411  6343.39
 412  6695.241
 413  6904.69
 414  7003.325
 415  6909.666
 416  6895.932
 417  6751.343
 418  6385.222
 419  6945.183
 420  6834.242
 421  7016.064
 422  7398.444
 423  7417.585
 424  7124.438
 425  7286.988
 426  7487.728
 427  7407.243
 428  7287.34
 429  7018.406
 430  7201.591
 431  7611.271
 432  7685.168
 433  7615.515
 434  7589.092
 435  7527.127
 436  7194.593
 437  7376.556
 438  7515.026
 439  7245.768
 440  7542.305
 441  7219.611
 442  6933.761
 443  7033.556
 444  7593.328
 445  7550.494
 446  7291.19
 447  7316.996
 448  7311.505
 449  7231.216
 450  7014.894
 451  7256.541
 452  7544.186
 453  7458.341
 454  7233.627
 455  7171.944
 456  7074.251
 457  7057.908
 458  7083.639
 459  7058.177
 460  6942.892
 461  7296.794
 462  7439.809
 463  7300.423
 464  7397.43
 465  7336.637
 466  6886.605
 467  6636.559
 468  6909.335
 469  6626.976
 470  6849.881
 471  6629.547
 472  6823.3
 473  6789.711
 474  6930.185
 475  7087.778
 476  7101.703
 477  7046.759
 478  7268.403
 479  7353.625
 480  7394.478
 481  7732.768
 482  7639.954
 483  7386.466
 484  7517.311
 485  7630.782
 486  7429.796
 487  7438.38
 488  7333.584
 489  7334.68
 490  7257.789
 491  7330.706
 492  7401.691
 493  7283.212
 494  7152.119
 495  7011.911
 496  6965.278
 497  7134.205
 498  7011.792
 499  6906.59
 500  6875.763
 501  7043.641
 502  7126.146
 503  7049.634
 504  7218.859
 505  7353.64
 506  7047.843
 507  7037.913
 508  7235.08
 509  7124.226
 510  7102.235
 511  7337.345
