# Input file       =  1206343968.106489_cleaned.dat
# Candidate        =  PSR_0332+5434
# Telescope        =  AR
# Epoch_topo       =  58206.314665584359
# Epoch_bary       =  N/A
# T_sample         =  0.002
# Data Folded      =  7208960
# Data Avg         =  0.103192273554746
# Data StdDev      =  1.00019266778634 
# Profile Bins     =  512
# Profile Avg      =  1452.93875814424 
# Profile StdDev   =  118.68203759426  
# Reduced chi-sqr  =  1.813
# Prob(Noise)      <  1.88e-26   (~10.6 sigma)
# P_topo (ms)      =  714.571172970189  +/- 0.000123
# P'_topo (s/s)    =  -0                +/- 6.61e-11
# P''_topo (s/s^2) =  0                 +/- 2.97e-14
# P_bary (ms)      =  N/A
# P'_bary (s/s)    =  N/A
# P''_bary (s/s^2) =  N/A
# P_orb (s)        =  N/A
# asin(i)/c (s)    =  N/A
# eccentricity     =  N/A
# w (rad)          =  N/A
# T_peri           =  N/A
######################################################
   0  2167.154
   1  1966.872
   2  1711.77
   3  1606.892
   4  1490.014
   5  1497.126
   6  1511.247
   7  1511.579
   8  1571.378
   9  1421.688
  10  1348.861
  11  1362.35
  12  1361.487
  13  1389.878
  14  1263.393
  15  1345.013
  16  1359.795
  17  1329.874
  18  1302.294
  19  1364.251
  20  1409.805
  21  1371.857
  22  1357.177
  23  1446.755
  24  1427.542
  25  1360.7
  26  1345.779
  27  1291.982
  28  1274.652
  29  1261.113
  30  1304.381
  31  1244.908
  32  1293.899
  33  1372.014
  34  1220.444
  35  1237.344
  36  1307.97
  37  1458.527
  38  1414.286
  39  1356.284
  40  1357.395
  41  1393.281
  42  1253.604
  43  1283.647
  44  1280.152
  45  1295.668
  46  1231.046
  47  1266.237
  48  1355.234
  49  1278.012
  50  1249.402
  51  1204.571
  52  1251.017
  53  1408.749
  54  1401.431
  55  1325.397
  56  1331.658
  57  1439.442
  58  1377.29
  59  1335.536
  60  1244.4
  61  1330.075
  62  1419.085
  63  1355.222
  64  1228.42
  65  1264.616
  66  1376.237
  67  1377.573
  68  1344.671
  69  1416.762
  70  1415.237
  71  1456.512
  72  1463.933
  73  1422.68
  74  1508.999
  75  1402.917
  76  1242.866
  77  1313.048
  78  1279.63
  79  1290.558
  80  1225.016
  81  1281.257
  82  1240.439
  83  1365.097
  84  1362.38
  85  1363.252
  86  1448.016
  87  1515.951
  88  1496.383
  89  1483.656
  90  1565.934
  91  1560.335
  92  1451.282
  93  1320.497
  94  1490.025
  95  1490.72
  96  1444.275
  97  1456.289
  98  1537.773
  99  1502.609
 100  1541.499
 101  1556.114
 102  1699.67
 103  1627.997
 104  1587.779
 105  1599.022
 106  1561.177
 107  1583.567
 108  1577.676
 109  1584.872
 110  1490.189
 111  1544.289
 112  1529.561
 113  1564.456
 114  1492.976
 115  1411.371
 116  1508.326
 117  1488.378
 118  1417.769
 119  1510.18
 120  1591.07
 121  1623.509
 122  1636.331
 123  1592.133
 124  1502.615
 125  1475.343
 126  1460.176
 127  1553.522
 128  1516.623
 129  1494.1
 130  1450.31
 131  1422.516
 132  1497.137
 133  1583.339
 134  1451.325
 135  1388.845
 136  1466.157
 137  1503.005
 138  1542.237
 139  1469.674
 140  1522.305
 141  1491.768
 142  1455.846
 143  1342.16
 144  1353.827
 145  1363.627
 146  1414.756
 147  1434.749
 148  1385.443
 149  1363.764
 150  1271.796
 151  1358.653
 152  1482.477
 153  1334.497
 154  1370.419
 155  1409.756
 156  1378.657
 157  1443.63
 158  1414.032
 159  1376.19
 160  1369.013
 161  1344.306
 162  1317.186
 163  1365.146
 164  1339.655
 165  1424.93
 166  1350.781
 167  1259.069
 168  1182.203
 169  1327.221
 170  1508.959
 171  1429.902
 172  1424.265
 173  1570.577
 174  1524.112
 175  1361.745
 176  1336.35
 177  1314.546
 178  1365.695
 179  1348.232
 180  1190.536
 181  1354.436
 182  1425.418
 183  1307.536
 184  1304.889
 185  1338.534
 186  1364.482
 187  1390.626
 188  1428.002
 189  1472.108
 190  1415.045
 191  1349.643
 192  1331.457
 193  1429.283
 194  1334.139
 195  1317.603
 196  1386.252
 197  1337.959
 198  1453.331
 199  1476.719
 200  1428.201
 201  1455.94
 202  1457.629
 203  1453.435
 204  1361.492
 205  1450.78
 206  1438.299
 207  1525.614
 208  1522.408
 209  1481.246
 210  1478.217
 211  1548.497
 212  1523.017
 213  1500.387
 214  1472.865
 215  1381.862
 216  1370.544
 217  1438.207
 218  1472.459
 219  1500.869
 220  1490.922
 221  1512.656
 222  1504.973
 223  1451.223
 224  1477.992
 225  1380.062
 226  1335.815
 227  1384.213
 228  1422.971
 229  1422.204
 230  1425.729
 231  1402.988
 232  1443.718
 233  1498.935
 234  1443.48
 235  1474.433
 236  1570.885
 237  1636.112
 238  1585.057
 239  1601.291
 240  1609.119
 241  1525.984
 242  1490.736
 243  1474.803
 244  1535.581
 245  1524.952
 246  1443.729
 247  1402.242
 248  1490.431
 249  1461.588
 250  1437.921
 251  1529.669
 252  1595.396
 253  1559.52
 254  1516.981
 255  1526.268
 256  1528.114
 257  1510.094
 258  1565.959
 259  1601.072
 260  1464.711
 261  1471.134
 262  1414.994
 263  1424.762
 264  1585.703
 265  1587.855
 266  1487.714
 267  1538.854
 268  1611.052
 269  1680.451
 270  1671.645
 271  1606.27
 272  1712.234
 273  1624.117
 274  1587.037
 275  1497.653
 276  1523.604
 277  1502.457
 278  1504.103
 279  1445.084
 280  1591.001
 281  1625.637
 282  1491.904
 283  1409.938
 284  1514.911
 285  1574.557
 286  1622.755
 287  1610.641
 288  1597.757
 289  1478.521
 290  1412.329
 291  1477.258
 292  1570.306
 293  1624.94
 294  1619.812
 295  1625.792
 296  1620.838
 297  1673.65
 298  1601.174
 299  1499.369
 300  1513.567
 301  1592.22
 302  1597.892
 303  1581.577
 304  1611.271
 305  1610.055
 306  1613.016
 307  1556.488
 308  1495.544
 309  1507.617
 310  1545.812
 311  1606.747
 312  1535.878
 313  1545.024
 314  1570.333
 315  1557.764
 316  1500.787
 317  1483.605
 318  1490.905
 319  1520.026
 320  1544.505
 321  1636.888
 322  1648.429
 323  1548.053
 324  1563.234
 325  1472.129
 326  1566.108
 327  1429.025
 328  1426.466
 329  1477.64
 330  1496.162
 331  1399.667
 332  1327.61
 333  1412.314
 334  1559.319
 335  1475.427
 336  1525.16
 337  1627.357
 338  1548.777
 339  1434.757
 340  1405.588
 341  1383.912
 342  1480.168
 343  1465.198
 344  1338.25
 345  1299.551
 346  1315.206
 347  1329.244
 348  1300.767
 349  1289.837
 350  1312.988
 351  1449.036
 352  1438.99
 353  1418.942
 354  1484.738
 355  1527.846
 356  1463.825
 357  1432.161
 358  1275.838
 359  1242.176
 360  1330.728
 361  1298.072
 362  1229.808
 363  1357.697
 364  1364.106
 365  1357.597
 366  1353.518
 367  1447.755
 368  1480.64
 369  1357.216
 370  1365.879
 371  1419.084
 372  1406.01
 373  1436.814
 374  1368.72
 375  1318.735
 376  1393.897
 377  1544.469
 378  1389.31
 379  1459.066
 380  1522.525
 381  1496.354
 382  1426.232
 383  1395.052
 384  1506.821
 385  1581.163
 386  1562.309
 387  1555.329
 388  1563.655
 389  1515.561
 390  1419.567
 391  1284.805
 392  1411.286
 393  1405.439
 394  1357.556
 395  1370.886
 396  1324.874
 397  1318.017
 398  1321.013
 399  1383.163
 400  1488.636
 401  1518.326
 402  1585.98
 403  1518.3
 404  1572.316
 405  1551.84
 406  1458.628
 407  1455.717
 408  1442.663
 409  1393.042
 410  1399.963
 411  1447.026
 412  1502.025
 413  1478.04
 414  1445.825
 415  1466.982
 416  1570.401
 417  1637.74
 418  1594.043
 419  1490.696
 420  1399.42
 421  1472.699
 422  1486.884
 423  1499.252
 424  1503.241
 425  1472.024
 426  1394.878
 427  1494.78
 428  1500.36
 429  1579.04
 430  1550.298
 431  1496.876
 432  1475.642
 433  1516.332
 434  1514.506
 435  1498.157
 436  1553.7
 437  1555.548
 438  1600.691
 439  1573.65
 440  1471.893
 441  1452.095
 442  1450.232
 443  1455.033
 444  1394.902
 445  1393.962
 446  1494.883
 447  1450.183
 448  1377.461
 449  1428.71
 450  1510.323
 451  1506.378
 452  1510.242
 453  1585.896
 454  1598.373
 455  1516.54
 456  1519.569
 457  1378.822
 458  1379.3
 459  1376.697
 460  1311.013
 461  1377.059
 462  1493.509
 463  1437.574
 464  1377.203
 465  1468.071
 466  1503.936
 467  1441.859
 468  1497.854
 469  1492.606
 470  1550.204
 471  1512.584
 472  1486.369
 473  1386.263
 474  1277.9
 475  1303.396
 476  1427.773
 477  1391.831
 478  1368.593
 479  1344.83
 480  1302.886
 481  1355.115
 482  1373.921
 483  1425.083
 484  1352.445
 485  1356.768
 486  1429.064
 487  1435.243
 488  1387.835
 489  1351.098
 490  1334.707
 491  1391.843
 492  1376.133
 493  1378.261
 494  1387.922
 495  1406.721
 496  1420.339
 497  1443.685
 498  1290.378
 499  1405.195
 500  1496.27
 501  1500.132
 502  1539.036
 503  1524.04
 504  1481.599
 505  1483.949
 506  1440.195
 507  1423.387
 508  1534.541
 509  1768.852
 510  2004.126
 511  2142.539
