# Input file       =  1206287371.110199_cleaned.dat
# Candidate        =  PSR_0332+5434
# Telescope        =  AR
# Epoch_topo       =  58205.659607756934
# Epoch_bary       =  N/A
# T_sample         =  0.002
# Data Folded      =  7340032
# Data Avg         =  0.178965697824813
# Data StdDev      =  5.26936485079863 
# Profile Bins     =  1024
# Profile Avg      =  1282.90027768945 
# Profile StdDev   =  446.125726799301 
# Reduced chi-sqr  =  0.787
# Prob(Noise)      <  1   (~0.0 sigma)
# P_topo (ms)      =  714.571886556817  +/- 0.000281
# P'_topo (s/s)    =  -0                +/- 1.48e-10
# P''_topo (s/s^2) =  0                 +/- 6.55e-14
# P_bary (ms)      =  N/A
# P'_bary (s/s)    =  N/A
# P''_bary (s/s^2) =  N/A
# P_orb (s)        =  N/A
# asin(i)/c (s)    =  N/A
# eccentricity     =  N/A
# w (rad)          =  N/A
# T_peri           =  N/A
######################################################
   0  1318.095
   1  1316.868
   2  1395.43
   3  1528.869
   4  1600.796
   5  1567.079
   6  1386.63
   7  1386.776
   8  1462.895
   9  1543.402
  10  1526.7
  11  1472.008
  12  1329.151
  13  1267.313
  14  1206.809
  15  1275.042
  16  1233.415
  17  1201.427
  18  1187.266
  19  1345.869
  20  1602.282
  21  1662.653
  22  1571.517
  23  1472.3
  24  1313.136
  25  1294.152
  26  1281.913
  27  1501.26
  28  1461.406
  29  1384.069
  30  1231.843
  31  1116.321
  32  1194.809
  33  1290.476
  34  1427.092
  35  1382.016
  36  1318.253
  37  1146.218
  38  1146.74
  39  1152.264
  40  1336.713
  41  1518.064
  42  1659.343
  43  1593.045
  44  1494.91
  45  1442.56
  46  1391.215
  47  1398.649
  48  1420.629
  49  1305.368
  50  1276.753
  51  1274.815
  52  1396.96
  53  1427.861
  54  1420.985
  55  1379.613
  56  1387.325
  57  1300.795
  58  1341.833
  59  1204.921
  60  1237.559
  61  1237.131
  62  1321.011
  63  1348.251
  64  1390.616
  65  1419.217
  66  1370.172
  67  1351.331
  68  1204.128
  69  1133.122
  70  995.9928
  71  1087.273
  72  1212.609
  73  1257.597
  74  1224.705
  75  1161.434
  76  1188.402
  77  1198.08
  78  1300.614
  79  1478.625
  80  1553.514
  81  1584.841
  82  1483.069
  83  1638.953
  84  1591.225
  85  1583.644
  86  1476.856
  87  1447.118
  88  1383.241
  89  1387.291
  90  1539.097
  91  1561.1
  92  1573.905
  93  1490.531
  94  1542.05
  95  1527.619
  96  1522.459
  97  1432.745
  98  1406.804
  99  1376.975
 100  1363.439
 101  1345.722
 102  1244.475
 103  1392.441
 104  1460.954
 105  1524.858
 106  1523.161
 107  1552.269
 108  1523.225
 109  1490.631
 110  1434.616
 111  1381.109
 112  1353.485
 113  1470.043
 114  1425.436
 115  1363.917
 116  1259.485
 117  1298.663
 118  1240.838
 119  1214.684
 120  1281.457
 121  1321.045
 122  1353.801
 123  1470.104
 124  1616.95
 125  1602.422
 126  1537.134
 127  1385.121
 128  1201.669
 129  1103.829
 130  1257.503
 131  1500.969
 132  1589.523
 133  1518.675
 134  1425.875
 135  1413.274
 136  1445.388
 137  1323.855
 138  1254.615
 139  1298.364
 140  1546.88
 141  1565.015
 142  1394.409
 143  1296.478
 144  1222.324
 145  1238.351
 146  1301.039
 147  1425.608
 148  1546.81
 149  1461.567
 150  1295.563
 151  1244.179
 152  1171.844
 153  1143.566
 154  1144.262
 155  1197.12
 156  1274.541
 157  1328.493
 158  1460.666
 159  1519.874
 160  1457.507
 161  1498.711
 162  1397.589
 163  1352.848
 164  1195.467
 165  1316.027
 166  1406.58
 167  1377.115
 168  1439.987
 169  1327.382
 170  1374.418
 171  1366.131
 172  1444.836
 173  1457.165
 174  1505.502
 175  1417.338
 176  1442.346
 177  1444.93
 178  1509.623
 179  1414.462
 180  1341.547
 181  1329.776
 182  1387.436
 183  1387.314
 184  1306.583
 185  1183.66
 186  1133.289
 187  1158.658
 188  1067.403
 189  1075.736
 190  1263.283
 191  1507.057
 192  1426.402
 193  1333.233
 194  1442.339
 195  1416.72
 196  1419.96
 197  1302.228
 198  1406
 199  1370.11
 200  1315.835
 201  1391.598
 202  1569.394
 203  1551.461
 204  1470.174
 205  1386.061
 206  1358.217
 207  1320.913
 208  1373.448
 209  1367.81
 210  1213.111
 211  1058.102
 212  958.7104
 213  1040.941
 214  1218.217
 215  1494.254
 216  1532.938
 217  1442.49
 218  1280.316
 219  1308.557
 220  1371.166
 221  1345.792
 222  1407.895
 223  1436.404
 224  1487.989
 225  1364.225
 226  1350.153
 227  1269.122
 228  1193.928
 229  1154.388
 230  1156.525
 231  1028.803
 232  909.4362
 233  846.3292
 234  994.8319
 235  1299.975
 236  1496.453
 237  1508.634
 238  1344.492
 239  1202.759
 240  1119.008
 241  1130.893
 242  1090.311
 243  1056.51
 244  1087.893
 245  1118.479
 246  1229.287
 247  1344.433
 248  1327.007
 249  1213.494
 250  1144.947
 251  1074.411
 252  1046.43
 253  1045.861
 254  1047.28
 255  1059.33
 256  1055.729
 257  1179.958
 258  1352.246
 259  1459.473
 260  1523.676
 261  1564.162
 262  1502.062
 263  1356.943
 264  1209.293
 265  1201.454
 266  1242.303
 267  1330.116
 268  1207.688
 269  1213.099
 270  1266.781
 271  1477.449
 272  1505.145
 273  1428.745
 274  1365.831
 275  1466.876
 276  1509.317
 277  1531.125
 278  1463.861
 279  1427.368
 280  1382.245
 281  1413.016
 282  1400.17
 283  1361.662
 284  1292.195
 285  1335.398
 286  1465.492
 287  1610.051
 288  1613.271
 289  1652.223
 290  1520.13
 291  1459.565
 292  1487.036
 293  1477.218
 294  1567.151
 295  1415.447
 296  1472.178
 297  1501.784
 298  1593.496
 299  1436.181
 300  1383.599
 301  1222.489
 302  1234.645
 303  1169.058
 304  1198.83
 305  1292.105
 306  1374.612
 307  1497.509
 308  1383.021
 309  1276.95
 310  1151.436
 311  1159.267
 312  1191.636
 313  1174.859
 314  1319.726
 315  1238.668
 316  1133.506
 317  1157.45
 318  1256.262
 319  1334.9
 320  1246.379
 321  1304.353
 322  1306.112
 323  1344.419
 324  1396.681
 325  1523.736
 326  1471.934
 327  1406.758
 328  1442.799
 329  1542.806
 330  1525.641
 331  1299.382
 332  1218
 333  1267.38
 334  1208.899
 335  1174.76
 336  1218.482
 337  1324.526
 338  1190.974
 339  1203.535
 340  1261.62
 341  1453.098
 342  1602.109
 343  1600.694
 344  1496.085
 345  1309.383
 346  1206.823
 347  1304.719
 348  1404.346
 349  1427.548
 350  1280.697
 351  1193.856
 352  1266.606
 353  1425.825
 354  1467.793
 355  1564.931
 356  1598.187
 357  1708.263
 358  1542.617
 359  1443.332
 360  1427.335
 361  1373.929
 362  1390.559
 363  1475.207
 364  1526.47
 365  1508.879
 366  1419.052
 367  1439.726
 368  1434.609
 369  1347.316
 370  1347.321
 371  1329.863
 372  1251.266
 373  1085.78
 374  936.1316
 375  917.5453
 376  1149.631
 377  1257.356
 378  1380.94
 379  1283.544
 380  1205.29
 381  1081.636
 382  1121.165
 383  1150.856
 384  1219.804
 385  1143.736
 386  1082.881
 387  1059.499
 388  1017.749
 389  1019.538
 390  1071.679
 391  1159.603
 392  1231.747
 393  1179.362
 394  1114.556
 395  1030.279
 396  1153.422
 397  1107.326
 398  1110.205
 399  1081.381
 400  995.1245
 401  936.9059
 402  866.3643
 403  1100.138
 404  1311.197
 405  1307.175
 406  1279.042
 407  1224.044
 408  1250.363
 409  1370.8
 410  1345.91
 411  1317.403
 412  1230.907
 413  1243.742
 414  1268.024
 415  1126.879
 416  1084.137
 417  1156.102
 418  1360.367
 419  1334.214
 420  1173.925
 421  1149.843
 422  1167.025
 423  1246.542
 424  1247.123
 425  1227.009
 426  1146.46
 427  1060.839
 428  1157.863
 429  1362.273
 430  1423.547
 431  1329.767
 432  1213.567
 433  1084.568
 434  959.4621
 435  997.7601
 436  1170.388
 437  1370.314
 438  1325.925
 439  1234.595
 440  1235.217
 441  1247.525
 442  1254.872
 443  1142.051
 444  1015.023
 445  1048.506
 446  1127.188
 447  1222.166
 448  1278.368
 449  1134.058
 450  1122.411
 451  1129.193
 452  1226.866
 453  1257.868
 454  1281.634
 455  1320.376
 456  1184.637
 457  1175.535
 458  1148.701
 459  1204.705
 460  1135.241
 461  1306.787
 462  1144.027
 463  1119.812
 464  824.0731
 465  842.6691
 466  841.9021
 467  843.2881
 468  767.5109
 469  939.2488
 470  1112.834
 471  1160.536
 472  933.3538
 473  731.7112
 474  742.7653
 475  890.139
 476  1158.377
 477  1352.447
 478  1180.109
 479  875.6652
 480  738.8347
 481  870.3246
 482  1079.154
 483  1057.558
 484  908.9525
 485  918.0892
 486  1105.126
 487  1333.282
 488  1348.265
 489  1190.234
 490  1192.337
 491  1274.992
 492  1368.698
 493  1148.792
 494  1125.306
 495  1114.505
 496  1183.988
 497  1141.722
 498  1078.986
 499  1033.946
 500  1066.567
 501  1074.335
 502  1119.927
 503  1041.361
 504  1141.752
 505  1107.442
 506  1070.895
 507  1064.96
 508  1052.964
 509  944.7596
 510  942.2045
 511  907.6631
 512  811.7545
 513  716.5953
 514  807.4353
 515  939.4116
 516  1013.612
 517  986.1444
 518  907.6736
 519  770.9982
 520  821.7947
 521  945.5358
 522  1135.411
 523  1168.533
 524  1193.942
 525  1142.759
 526  1194.34
 527  1178.158
 528  1157.066
 529  1131.28
 530  1180.357
 531  1175.779
 532  1060.823
 533  948.0184
 534  934.8802
 535  991.6282
 536  1053.728
 537  1157.901
 538  1214.879
 539  1255.747
 540  1280.201
 541  1282.809
 542  1280.015
 543  1188.698
 544  1165.186
 545  1165.741
 546  1002.799
 547  1047.715
 548  947.4183
 549  910.0215
 550  799.771
 551  915.5538
 552  1142.287
 553  1217.824
 554  1203.008
 555  1172.334
 556  1106.179
 557  1108.97
 558  1033.002
 559  1022.062
 560  1001.976
 561  970.6063
 562  1021.817
 563  1002.504
 564  983.751
 565  868.2566
 566  703.4465
 567  592.196
 568  694.2502
 569  879.1421
 570  1040.676
 571  1109.164
 572  1168.936
 573  1121.115
 574  1034.605
 575  942.9606
 576  903.121
 577  906.32
 578  938.5442
 579  1093.962
 580  1113.575
 581  1156.233
 582  1076.885
 583  974.952
 584  953.3008
 585  925.3776
 586  891.6427
 587  819.3245
 588  859.8993
 589  1111.416
 590  1178.311
 591  1072.924
 592  985.8129
 593  971.7235
 594  1214.137
 595  1254.366
 596  1321.832
 597  1065.226
 598  1029.769
 599  1117.185
 600  1440.205
 601  1590.967
 602  1813.909
 603  1953.052
 604  2036.572
 605  2092.349
 606  2209.014
 607  2277.793
 608  2141.662
 609  1724.181
 610  1418.075
 611  1351.097
 612  1473.669
 613  1448.589
 614  1373.928
 615  1222.74
 616  1227.712
 617  1185.685
 618  1177.497
 619  1190.946
 620  1276.929
 621  1256.288
 622  1351.813
 623  1408.775
 624  1509.341
 625  1486.254
 626  1487.35
 627  1397.532
 628  1320.122
 629  1301.087
 630  1247.468
 631  1111.062
 632  1096.464
 633  1068.761
 634  1155.838
 635  1187.582
 636  1131.671
 637  1141.502
 638  1198.951
 639  1416.665
 640  1369.797
 641  1160.515
 642  1053.124
 643  1213.426
 644  1298.58
 645  1265.454
 646  1099.411
 647  1069.764
 648  1156.195
 649  1079.912
 650  1065.188
 651  878.4131
 652  913.322
 653  750.4227
 654  885.3192
 655  943.5954
 656  973.0763
 657  943.0112
 658  986.6478
 659  1258.656
 660  1281.552
 661  1194.707
 662  1059.331
 663  1029.042
 664  954.9213
 665  946.4645
 666  991.7727
 667  1114.666
 668  1163.265
 669  1118.538
 670  1108.812
 671  1106.137
 672  1088.243
 673  1130.383
 674  1185.845
 675  1210.155
 676  1163.383
 677  1165.107
 678  1086.694
 679  1020.286
 680  920.5186
 681  1103.573
 682  1216.929
 683  1207.499
 684  1117.795
 685  982.7877
 686  979.2207
 687  913.9501
 688  1032.41
 689  977.8832
 690  1196.952
 691  1192.694
 692  1328.666
 693  1374.507
 694  1369.85
 695  1324.832
 696  1176.467
 697  1194.839
 698  1269.376
 699  1378.727
 700  1412.293
 701  1319.04
 702  1248.37
 703  1188.84
 704  1220.4
 705  1235.974
 706  1226.471
 707  1283.795
 708  1359.175
 709  1249.164
 710  1049.32
 711  968.8361
 712  1073.059
 713  1336.783
 714  1263.559
 715  1194.156
 716  1168.545
 717  1261.964
 718  1276.88
 719  1313.777
 720  1284.687
 721  1307.579
 722  1257.197
 723  1474.924
 724  1674.385
 725  1509.603
 726  1389.393
 727  1227.195
 728  1266.962
 729  1178.003
 730  1201.278
 731  1203.188
 732  1323.311
 733  1228.269
 734  1204.766
 735  1198.286
 736  1111.399
 737  1053.667
 738  1013.008
 739  985.1169
 740  952.2433
 741  962.4351
 742  1071.507
 743  1172.604
 744  1012.169
 745  841.7858
 746  808.9177
 747  922.9374
 748  991.6125
 749  917.2035
 750  764.5126
 751  819.3757
 752  889.2495
 753  1000.916
 754  1029.585
 755  1170.99
 756  1228.047
 757  1197.591
 758  1055.014
 759  940.257
 760  842.0067
 761  752.3677
 762  743.2522
 763  831.6462
 764  806.6889
 765  823.631
 766  886.3549
 767  1004.602
 768  972.4981
 769  941.6213
 770  974.0652
 771  1006.906
 772  1033.862
 773  960.1542
 774  902.0565
 775  936.7163
 776  1095.749
 777  1167.51
 778  1123.882
 779  982.5406
 780  1005.903
 781  950.2206
 782  943.4042
 783  806.627
 784  932.3602
 785  1147.233
 786  1323.533
 787  1384.783
 788  1290.363
 789  1240.188
 790  1190.034
 791  1251.85
 792  1215.67
 793  1215.089
 794  1197.187
 795  1218.741
 796  1373.38
 797  1236.754
 798  1142.419
 799  1118.289
 800  1133.178
 801  1039.965
 802  1084.65
 803  1275.196
 804  1415.555
 805  1500.95
 806  1433.696
 807  1415.564
 808  1527.546
 809  1707.663
 810  1729.699
 811  1660.349
 812  1521.32
 813  1535.174
 814  1422.456
 815  1509.892
 816  1612.569
 817  1859.382
 818  1859.692
 819  1659.834
 820  1509.66
 821  1468.273
 822  1596.577
 823  1698.634
 824  1868.008
 825  1787.122
 826  1693.145
 827  1518.227
 828  1494.667
 829  1459.548
 830  1442.854
 831  1472.113
 832  1534.547
 833  1537.349
 834  1481.286
 835  1394.698
 836  1353.502
 837  1362.333
 838  1451.623
 839  1518.135
 840  1463.027
 841  1557.442
 842  1564.857
 843  1517.148
 844  1423.886
 845  1419.35
 846  1371.744
 847  1372.834
 848  1237.235
 849  1248.894
 850  1310.63
 851  1349.861
 852  1360.983
 853  1405.694
 854  1424.502
 855  1407.106
 856  1448.258
 857  1532.295
 858  1578.863
 859  1518.38
 860  1442.506
 861  1452.989
 862  1430.308
 863  1462.518
 864  1548.492
 865  1624.093
 866  1496.008
 867  1487.56
 868  1455.441
 869  1508.827
 870  1486.083
 871  1527.981
 872  1603.525
 873  1659.343
 874  1615.311
 875  1599.604
 876  1478.083
 877  1532.89
 878  1449.904
 879  1479.703
 880  1448.051
 881  1511.085
 882  1554.957
 883  1660.972
 884  1589.589
 885  1474.109
 886  1396.104
 887  1494.171
 888  1582.618
 889  1648.205
 890  1499.231
 891  1424.325
 892  1446.67
 893  1453.027
 894  1489.123
 895  1363.747
 896  1418.216
 897  1423.401
 898  1433.412
 899  1506.191
 900  1510.383
 901  1560.732
 902  1454.886
 903  1339.257
 904  1311.924
 905  1370.556
 906  1564.77
 907  1636.121
 908  1596.063
 909  1555.719
 910  1401.154
 911  1437.708
 912  1422.22
 913  1408.781
 914  1227.244
 915  1114.226
 916  1138.521
 917  1192.246
 918  1180.917
 919  1161.885
 920  1275.269
 921  1405.408
 922  1493.521
 923  1487.022
 924  1311.95
 925  1177.414
 926  1149.678
 927  1113.272
 928  1199.185
 929  1320.842
 930  1364.392
 931  1319.56
 932  1272.58
 933  1515.4
 934  1530.235
 935  1434.438
 936  1409.909
 937  1488.984
 938  1507.169
 939  1490.12
 940  1497.26
 941  1542.058
 942  1469.65
 943  1398.513
 944  1371.198
 945  1588.27
 946  1578.322
 947  1567.111
 948  1484.643
 949  1608.398
 950  1679.641
 951  1703.421
 952  1539.2
 953  1504.413
 954  1426.797
 955  1354.319
 956  1352.462
 957  1340.819
 958  1378.6
 959  1416.094
 960  1412.156
 961  1442.425
 962  1479.71
 963  1572.381
 964  1620.777
 965  1502.095
 966  1444.755
 967  1475.798
 968  1539.614
 969  1436.847
 970  1470.906
 971  1473.292
 972  1463.163
 973  1371.049
 974  1510.809
 975  1647.735
 976  1740.533
 977  1745.064
 978  1612.218
 979  1437.814
 980  1437.976
 981  1556.547
 982  1623.88
 983  1423.787
 984  1309.201
 985  1395.78
 986  1461.141
 987  1517.031
 988  1666.307
 989  1737.877
 990  1667.892
 991  1510.026
 992  1464.711
 993  1332.714
 994  1157.81
 995  1097.069
 996  1082.121
 997  1296.258
 998  1362.064
 999  1279.904
1000  1312.749
1001  1367.53
1002  1458.709
1003  1353.442
1004  1382.38
1005  1345.19
1006  1267.47
1007  1167.197
1008  1174.024
1009  1320.39
1010  1326.235
1011  1244.564
1012  1133.551
1013  1155.133
1014  1142.103
1015  1323.124
1016  1398.177
1017  1436.977
1018  1392.287
1019  1428.553
1020  1283.389
1021  1351.488
1022  1301.835
1023  1392.961
