# Input file       =  1206171627.11937_cleaned.dat
# Candidate        =  PSR_0332+5434
# Telescope        =  AR
# Epoch_topo       =  58204.319978233449
# Epoch_bary       =  N/A
# T_sample         =  0.002
# Data Folded      =  7208960
# Data Avg         =  0.272041572521397
# Data StdDev      =  6.57788022553014 
# Profile Bins     =  256
# Profile Avg      =  7661.02582934756 
# Profile StdDev   =  1103.83023723832 
# Reduced chi-sqr  =  3.293
# Prob(Noise)      <  1.68e-63   (~16.8 sigma)
# P_topo (ms)      =  714.57225076045   +/- 1.56e-05
# P'_topo (s/s)    =  -0                +/- 8.37e-12
# P''_topo (s/s^2) =  0                 +/- 3.76e-15
# P_bary (ms)      =  N/A
# P'_bary (s/s)    =  N/A
# P''_bary (s/s^2) =  N/A
# P_orb (s)        =  N/A
# asin(i)/c (s)    =  N/A
# eccentricity     =  N/A
# w (rad)          =  N/A
# T_peri           =  N/A
######################################################
   0  9651.797
   1  6097.219
   2  8242.414
   3  8275.37
   4  7814.848
   5  4322.678
   6  7406.531
   7  8883.022
   8  10388.97
   9  6042.732
  10  6138.812
  11  7651.645
  12  10075.26
  13  5223.731
  14  5551.312
  15  8242.71
  16  10571.52
  17  7020.354
  18  7020.844
  19  9044.034
  20  9587.646
  21  5994.125
  22  5722.404
  23  8491.377
  24  10405.25
  25  8105.169
  26  5620.818
  27  7890.739
  28  9307.431
  29  7798.973
  30  4145.853
  31  6705.135
  32  9664.708
  33  9964.591
  34  6230.998
  35  7626.498
  36  7846.549
  37  8703.102
  38  4405.751
  39  6768.812
  40  8675.883
  41  9755.269
  42  6505.851
  43  7513.398
  44  8509.195
  45  8907.935
  46  5256.729
  47  5585.052
  48  7837.217
  49  11170.24
  50  7679.755
  51  5590.651
  52  6770.641
  53  9105.874
  54  6381.352
  55  4978.611
  56  7237.042
  57  9486.402
  58  7889.962
  59  5387.654
  60  8400.327
  61  8651.095
  62  8031.108
  63  4012.048
  64  7824.588
  65  9529.695
  66  9911.073
  67  5437.246
  68  6660.496
  69  7782.723
  70  8681.014
  71  4302.719
  72  6667.076
  73  7929.284
  74  10167.92
  75  6693.801
  76  6390.137
  77  8605.481
  78  9140.087
  79  5102.458
  80  5969.744
  81  8718.996
  82  11082.85
  83  8185.449
  84  6645.245
  85  7827.795
  86  9765.392
  87  6588.018
  88  4617.691
  89  7521.579
  90  10492.92
  91  9176.324
  92  5901.465
  93  7488.745
  94  9021.421
  95  7977.241
  96  4413.204
  97  7530.242
  98  9397.332
  99  9466.762
 100  5028.414
 101  6849.093
 102  7808.645
 103  8584.118
 104  4567.243
 105  5844.792
 106  7986.321
 107  10937.51
 108  6712.372
 109  6577.231
 110  7564.237
 111  8787.62
 112  6109.276
 113  6826.106
 114  8559.624
 115  10734.4
 116  8102.066
 117  5570.631
 118  6617.842
 119  9620.401
 120  7713.433
 121  4273.715
 122  7232.231
 123  9516.407
 124  8828.646
 125  6312.225
 126  7435.618
 127  8253.263
 128  7918.566
 129  5493.123
 130  7074.668
 131  9455.094
 132  9441.992
 133  5814.111
 134  7528.266
 135  7759.399
 136  8945.832
 137  4730.122
 138  5849.478
 139  8239.307
 140  10519.4
 141  6853.333
 142  6831.724
 143  7211.751
 144  8628.232
 145  5924.908
 146  5968.697
 147  7932.543
 148  10074.69
 149  8630.536
 150  8356.158
 151  12024.48
 152  12755.28
 153  7850.486
 154  4808.435
 155  7268.88
 156  10264.84
 157  10094.51
 158  6803.5
 159  6892.769
 160  8055.668
 161  9030.757
 162  5510.479
 163  6826.71
 164  8950.732
 165  9225.507
 166  5991.279
 167  8283.865
 168  8641.492
 169  9313.766
 170  4312.682
 171  7981.364
 172  8779.033
 173  10166.86
 174  6966.958
 175  6963.752
 176  7965.458
 177  10034.06
 178  6437.974
 179  5466.514
 180  7388.412
 181  10043.19
 182  7925.682
 183  5830.769
 184  7485.721
 185  8618.742
 186  6656.32
 187  4216.897
 188  7457.55
 189  9937.353
 190  9491.742
 191  4763.007
 192  6299.834
 193  9007.28
 194  9565.775
 195  4026.222
 196  6117.988
 197  8848.773
 198  11087.48
 199  6432.224
 200  6827.076
 201  7002.226
 202  8697.804
 203  5311.367
 204  7008.085
 205  7914.884
 206  10261.1
 207  6774.885
 208  7014.975
 209  8479.532
 210  9552.897
 211  6229.204
 212  4906.204
 213  7998.29
 214  10079.12
 215  8268.174
 216  6981.941
 217  8004.036
 218  8584.041
 219  7940.572
 220  5257.9
 221  7915.662
 222  9228.229
 223  8707.188
 224  6357.929
 225  8080.109
 226  9221.39
 227  9174.511
 228  3953.933
 229  6783.744
 230  9803.92
 231  10325.74
 232  5132.903
 233  6573.376
 234  7957.127
 235  9789.928
 236  5686.968
 237  5962.183
 238  7954.75
 239  10260.77
 240  7484.979
 241  7098.25
 242  7954.083
 243  10303.03
 244  6364.713
 245  5052.051
 246  8016.912
 247  10421.66
 248  8183.124
 249  5695
 250  7443.105
 251  8857.862
 252  8126.625
 253  5188.835
 254  7289.427
 255  8188.576
