# Input file       =  1206114991.108777_cleaned.dat
# Candidate        =  PSR_0332+5434
# Telescope        =  AR
# Epoch_topo       =  58203.664468851588
# Epoch_bary       =  N/A
# T_sample         =  0.002
# Data Folded      =  7340032
# Data Avg         =  0.22898020285876 
# Data StdDev      =  5.62524657399123 
# Profile Bins     =  1024
# Profile Avg      =  1641.4575135756  
# Profile StdDev   =  476.256111942365 
# Reduced chi-sqr  =  0.737
# Prob(Noise)      <  1   (~0.0 sigma)
# P_topo (ms)      =  714.572945084624  +/- 0.00058
# P'_topo (s/s)    =  -0                +/- 3.06e-10
# P''_topo (s/s^2) =  0                 +/- 1.35e-13
# P_bary (ms)      =  N/A
# P'_bary (s/s)    =  N/A
# P''_bary (s/s^2) =  N/A
# P_orb (s)        =  N/A
# asin(i)/c (s)    =  N/A
# eccentricity     =  N/A
# w (rad)          =  N/A
# T_peri           =  N/A
######################################################
   0  1269.42
   1  1244.79
   2  1281.118
   3  1247.403
   4  1228.581
   5  1293.899
   6  1280.758
   7  1389.543
   8  1360.736
   9  1380.97
  10  1269.878
  11  1296.778
  12  1368.379
  13  1380.952
  14  1389.782
  15  1303.042
  16  1410.965
  17  1358.966
  18  1428.424
  19  1331.758
  20  1511.075
  21  1623.102
  22  1711.583
  23  1799.651
  24  1626.802
  25  1421.838
  26  1379.427
  27  1558.119
  28  1740.693
  29  1759.872
  30  1688.359
  31  1651.182
  32  1600.701
  33  1583.398
  34  1650.672
  35  1701.018
  36  1682.392
  37  1724.108
  38  1715.806
  39  1611.572
  40  1613.717
  41  1626.381
  42  1635.825
  43  1533.105
  44  1593.6
  45  1722.001
  46  1634.398
  47  1620.85
  48  1476.933
  49  1612.942
  50  1568.021
  51  1655.479
  52  1504.71
  53  1454.911
  54  1371.528
  55  1478.585
  56  1627.797
  57  1551.848
  58  1577.3
  59  1614.711
  60  1748.807
  61  1803.927
  62  1890.556
  63  1833.637
  64  1898.379
  65  2071.037
  66  2067.32
  67  1793.958
  68  1554.944
  69  1568.986
  70  1738.273
  71  1804.723
  72  1837.585
  73  1719.738
  74  1772.375
  75  1792.528
  76  1959.91
  77  2085.609
  78  2055.648
  79  1950.505
  80  1813.463
  81  1767.36
  82  1669.82
  83  1684.332
  84  1637.453
  85  1461.108
  86  1421.582
  87  1447.348
  88  1551.087
  89  1631.777
  90  1691.586
  91  1625.579
  92  1463.165
  93  1383.399
  94  1497.112
  95  1603.84
  96  1603.095
  97  1535.96
  98  1533.438
  99  1549.325
 100  1614.936
 101  1664.537
 102  1570.941
 103  1526.137
 104  1433.945
 105  1513.895
 106  1574.196
 107  1557.573
 108  1510.502
 109  1542.536
 110  1680.603
 111  1606.42
 112  1619.768
 113  1729.191
 114  1902.913
 115  1798.508
 116  1797.027
 117  1770.715
 118  1766.027
 119  1734.474
 120  1702.611
 121  1644.1
 122  1688.904
 123  1768.887
 124  1794.434
 125  1612.64
 126  1424.13
 127  1481.224
 128  1530.196
 129  1467.92
 130  1350.725
 131  1374.142
 132  1502.09
 133  1552.483
 134  1531.232
 135  1502.609
 136  1532.763
 137  1588.919
 138  1525.935
 139  1348.114
 140  1365.751
 141  1392.398
 142  1444.969
 143  1405.693
 144  1545.784
 145  1711.38
 146  1700.342
 147  1610.841
 148  1585.863
 149  1619.238
 150  1452.278
 151  1474.504
 152  1400.223
 153  1439.371
 154  1384.326
 155  1376.868
 156  1530.47
 157  1713.29
 158  1825.154
 159  1666.724
 160  1668.986
 161  1822.882
 162  1784.839
 163  1800.244
 164  1808.533
 165  1917.37
 166  1781.958
 167  1565.948
 168  1584.392
 169  1694.634
 170  1843.926
 171  1866.097
 172  1900.387
 173  1903.252
 174  1905.4
 175  1834.593
 176  1822.609
 177  1846.233
 178  1900.834
 179  1848.94
 180  1956.701
 181  1860.785
 182  1960.785
 183  1991.611
 184  1941.083
 185  1762.282
 186  1684.95
 187  1737.247
 188  1786.697
 189  1820.532
 190  1706.711
 191  1596.114
 192  1472.871
 193  1458.26
 194  1731.016
 195  1794.977
 196  1761.218
 197  1564.477
 198  1472.895
 199  1416.295
 200  1475.827
 201  1507.329
 202  1549.74
 203  1522.914
 204  1465.055
 205  1428.314
 206  1372.009
 207  1453.685
 208  1582.849
 209  1652.059
 210  1652.418
 211  1474.113
 212  1490.441
 213  1649.875
 214  1661.142
 215  1679.156
 216  1717.586
 217  1718.322
 218  1652.141
 219  1691.192
 220  1614.55
 221  1636.843
 222  1537.549
 223  1607.459
 224  1704.243
 225  1860.631
 226  1755.526
 227  1655.41
 228  1722.328
 229  1737.598
 230  1744.795
 231  1734.903
 232  1789.199
 233  1762.242
 234  1796.44
 235  1825.927
 236  1742.755
 237  1535.84
 238  1520.244
 239  1637.625
 240  1694.159
 241  1705.862
 242  1724.338
 243  1793.366
 244  1995.092
 245  1960.382
 246  1991.042
 247  1938.706
 248  2004.632
 249  1972.502
 250  1961.964
 251  1935.439
 252  1960.55
 253  1880.254
 254  1923.659
 255  2039.763
 256  2094.881
 257  2070.12
 258  1985.512
 259  1910.57
 260  1863.763
 261  2042.145
 262  2120.289
 263  2079.197
 264  2072.844
 265  2000.076
 266  1891.239
 267  1746.534
 268  1837.329
 269  1937.429
 270  1931.376
 271  1793.153
 272  1875.275
 273  1935.364
 274  1873.217
 275  1816.583
 276  1721.626
 277  1799.024
 278  1842.3
 279  1933.579
 280  1934.123
 281  1924.51
 282  1980.455
 283  2057.422
 284  1890.039
 285  1704.396
 286  1496.364
 287  1605.124
 288  1826.966
 289  1855.96
 290  1854.984
 291  1746.139
 292  1719.711
 293  1616.709
 294  1513.603
 295  1623.881
 296  1722.049
 297  1816.983
 298  1880.203
 299  1835.275
 300  1657.12
 301  1595.29
 302  1547.196
 303  1611.685
 304  1637.629
 305  1650.184
 306  1614.246
 307  1611.439
 308  1588.934
 309  1735.325
 310  1743.655
 311  1703.165
 312  1708.927
 313  1772.005
 314  1726.337
 315  1589.104
 316  1550.072
 317  1608.7
 318  1460.967
 319  1423.276
 320  1387.257
 321  1512.84
 322  1582.875
 323  1800.968
 324  1957.71
 325  1970.589
 326  1889.847
 327  1853.495
 328  1866.595
 329  1848.275
 330  1823.323
 331  1807.974
 332  1728.753
 333  1754.404
 334  1761.353
 335  1701.521
 336  1657.412
 337  1772.821
 338  1800.57
 339  1773.36
 340  1649.794
 341  1592.939
 342  1454.432
 343  1434.029
 344  1381.224
 345  1540.654
 346  1582.787
 347  1704.733
 348  1609.005
 349  1631.754
 350  1731.276
 351  1812.494
 352  1792.946
 353  1724.718
 354  1716.417
 355  1687.987
 356  1695.549
 357  1788.733
 358  1676.683
 359  1693.48
 360  1659.582
 361  1853.016
 362  1875.67
 363  1847.583
 364  1771.568
 365  1828.683
 366  1706.267
 367  1679.051
 368  1604.303
 369  1630.913
 370  1518.62
 371  1534.597
 372  1697.157
 373  1725.161
 374  1585.811
 375  1566.646
 376  1649.956
 377  1738.704
 378  1708.584
 379  1706.485
 380  1756.429
 381  1822.55
 382  1844.983
 383  1730.801
 384  1773.33
 385  1849.888
 386  1959.68
 387  1867.516
 388  1896.136
 389  1922.036
 390  1886.072
 391  1753.784
 392  1773.141
 393  1897.832
 394  1967.695
 395  2036.719
 396  2058.173
 397  2047.16
 398  1957.205
 399  1850.494
 400  1771.557
 401  1610.421
 402  1722.236
 403  1798.204
 404  1919.937
 405  1813.226
 406  1779.295
 407  1834.312
 408  2020.876
 409  1987.072
 410  1846.642
 411  1772.941
 412  1772.813
 413  1686.236
 414  1728.358
 415  1752.151
 416  1749.514
 417  1765.956
 418  1773.416
 419  1749.939
 420  1697.615
 421  1668.002
 422  1656.432
 423  1614.455
 424  1500.292
 425  1568.086
 426  1629.565
 427  1682.664
 428  1601.525
 429  1545.423
 430  1477.561
 431  1407.104
 432  1449.945
 433  1652.301
 434  1656.085
 435  1613.361
 436  1452.955
 437  1432.392
 438  1378.237
 439  1392.148
 440  1311.684
 441  1469.291
 442  1553.929
 443  1693.804
 444  1681.341
 445  1767.923
 446  1847.754
 447  1800.338
 448  1761.157
 449  1659.618
 450  1787.934
 451  1704.848
 452  1763.377
 453  1586.597
 454  1588.016
 455  1615.751
 456  1703.318
 457  1711.656
 458  1656.567
 459  1496.024
 460  1488.422
 461  1598.668
 462  1754.801
 463  1864.435
 464  1781.164
 465  1782.935
 466  1741.657
 467  1607.421
 468  1557.126
 469  1556.175
 470  1587.433
 471  1498.881
 472  1535.488
 473  1552.717
 474  1562.162
 475  1537.434
 476  1594.241
 477  1752.994
 478  1704.944
 479  1697.733
 480  1617.296
 481  1608.671
 482  1661.675
 483  1720.534
 484  1810.259
 485  1671.998
 486  1569.383
 487  1481.899
 488  1637.688
 489  1597.332
 490  1671.741
 491  1729.164
 492  1721.202
 493  1707.799
 494  1789.614
 495  1874.73
 496  1831.716
 497  1835.968
 498  1885.026
 499  1767.745
 500  1677.177
 501  1753.45
 502  1859.772
 503  1835.527
 504  1739.236
 505  1604.617
 506  1543.512
 507  1479.169
 508  1503.71
 509  1671.897
 510  1686.207
 511  1617.883
 512  1488.44
 513  1593.771
 514  1522.486
 515  1675.218
 516  1687.164
 517  1649.836
 518  1634.782
 519  1677.187
 520  1744.902
 521  1776.993
 522  1807.365
 523  1821.362
 524  1877.182
 525  1899.386
 526  1818.867
 527  1868.954
 528  1917.191
 529  1894.886
 530  1758.793
 531  1496.815
 532  1444.924
 533  1505.108
 534  1636.432
 535  1706.678
 536  1847.762
 537  1881.389
 538  1740.93
 539  1629.212
 540  1583.77
 541  1733.975
 542  1836.415
 543  1948.14
 544  2064.204
 545  2074.441
 546  2000.52
 547  1908.237
 548  2024.367
 549  2185.222
 550  2268.446
 551  2177.328
 552  1976.586
 553  1718.397
 554  1737.747
 555  1802.259
 556  1935.62
 557  1943.541
 558  1932.96
 559  1962.877
 560  2044.22
 561  2112.509
 562  1932.122
 563  1790.117
 564  1774.896
 565  1851.4
 566  1843.614
 567  1791.71
 568  1801.92
 569  1708.497
 570  1726.227
 571  1805.533
 572  1940.238
 573  2015.024
 574  1818.065
 575  1839.832
 576  1859.614
 577  1947.169
 578  1811.665
 579  1816.874
 580  1785.88
 581  1865.877
 582  1886.926
 583  1867.168
 584  1794.876
 585  1636.291
 586  1629.346
 587  1682.467
 588  1790.823
 589  1750.41
 590  1640.594
 591  1649.596
 592  1740.133
 593  1897.755
 594  1880.826
 595  1773.398
 596  1865.327
 597  1896.466
 598  1973.793
 599  1931.102
 600  2023.313
 601  2150.91
 602  2217.306
 603  2399.011
 604  2599.444
 605  2731.424
 606  2832.402
 607  2792.541
 608  2615.873
 609  2509.706
 610  2380.081
 611  2345.014
 612  2134.647
 613  1966.213
 614  1716.469
 615  1534.365
 616  1408.753
 617  1450.303
 618  1573.571
 619  1575.403
 620  1624.472
 621  1674.901
 622  1600.401
 623  1472.903
 624  1519.389
 625  1613.67
 626  1721.886
 627  1754.383
 628  1665.301
 629  1536.557
 630  1350.34
 631  1300.773
 632  1422.642
 633  1578.094
 634  1628.169
 635  1659.493
 636  1651.095
 637  1671.4
 638  1635.057
 639  1593.171
 640  1457.744
 641  1337.709
 642  1401.051
 643  1631.081
 644  1818.592
 645  1656.604
 646  1655.448
 647  1522.207
 648  1531.734
 649  1417.283
 650  1441.584
 651  1534.004
 652  1566.774
 653  1622.367
 654  1679.054
 655  1688.509
 656  1527.571
 657  1568.35
 658  1660.608
 659  1894.355
 660  1855.507
 661  1751.783
 662  1633.995
 663  1559.708
 664  1704.013
 665  1784.059
 666  1736.26
 667  1563.893
 668  1566.287
 669  1756.188
 670  1773.161
 671  1696.909
 672  1546.938
 673  1604.592
 674  1619.649
 675  1576.725
 676  1662.644
 677  1737.626
 678  1772.904
 679  1755.768
 680  1705.081
 681  1709.141
 682  1692.343
 683  1820.082
 684  1855.057
 685  1839.286
 686  1961.306
 687  1943.023
 688  1819.156
 689  1526.732
 690  1578.024
 691  1644.84
 692  1810.409
 693  1810.422
 694  1762.443
 695  1837.912
 696  1936.175
 697  2024.672
 698  1935.353
 699  1928.303
 700  1887.163
 701  1812.089
 702  1787.904
 703  1841.049
 704  1842.14
 705  1799.327
 706  1785.622
 707  1724.955
 708  1559.056
 709  1631.006
 710  1611.341
 711  1653.433
 712  1439.487
 713  1581.109
 714  1582.347
 715  1622.914
 716  1640.627
 717  1769.534
 718  1855.883
 719  1854.16
 720  1844.605
 721  1768.921
 722  1627.672
 723  1580.648
 724  1575.484
 725  1659.09
 726  1669.28
 727  1716.323
 728  1697.119
 729  1690.475
 730  1600.066
 731  1601.439
 732  1503.639
 733  1529.696
 734  1546.629
 735  1602.475
 736  1629.37
 737  1472.144
 738  1479.648
 739  1564.099
 740  1717.742
 741  1795.082
 742  1796.505
 743  1752.442
 744  1769.996
 745  1784.437
 746  1837.269
 747  1808.577
 748  1742.679
 749  1664.409
 750  1597.224
 751  1613.758
 752  1891.277
 753  1950.151
 754  2016.515
 755  1968.312
 756  1932
 757  1863.316
 758  1861.082
 759  1892.541
 760  1927.376
 761  1897.411
 762  1773.094
 763  1679.694
 764  1672.516
 765  1709.481
 766  1689.198
 767  1517.891
 768  1274.978
 769  1456.663
 770  1611.292
 771  1772.363
 772  1630.255
 773  1684.24
 774  1688.867
 775  1511.212
 776  1459.38
 777  1536.295
 778  1797.563
 779  1783.605
 780  1709.12
 781  1591.83
 782  1479.498
 783  1586.806
 784  1585.528
 785  1705.614
 786  1679.593
 787  1759.162
 788  1734.694
 789  1663.469
 790  1573.1
 791  1592.94
 792  1638.611
 793  1664.764
 794  1676.146
 795  1685.982
 796  1670.174
 797  1621.507
 798  1476.746
 799  1260.387
 800  1271.554
 801  1510.558
 802  1667.562
 803  1646.872
 804  1472.841
 805  1410.026
 806  1446.956
 807  1457.116
 808  1456.182
 809  1293.087
 810  1089.197
 811  1129.115
 812  1277.123
 813  1395.003
 814  1564.087
 815  1529.864
 816  1598.124
 817  1524.649
 818  1488.759
 819  1391.589
 820  1515.76
 821  1476.609
 822  1664.38
 823  1707.677
 824  1761.354
 825  1539.576
 826  1456.643
 827  1341.482
 828  1396.203
 829  1361.546
 830  1380.869
 831  1345.329
 832  1420.791
 833  1435.845
 834  1463.859
 835  1434.559
 836  1481.841
 837  1468.304
 838  1523.803
 839  1540.892
 840  1702.021
 841  1734.635
 842  1581.581
 843  1534.506
 844  1572.792
 845  1650.031
 846  1546.37
 847  1523.348
 848  1425.675
 849  1451.84
 850  1483.901
 851  1396.004
 852  1319.165
 853  1378.622
 854  1483.375
 855  1576.688
 856  1665.737
 857  1698.034
 858  1664.307
 859  1711.384
 860  1774.747
 861  1793.813
 862  1722.383
 863  1624.288
 864  1477.651
 865  1476.708
 866  1418.626
 867  1401.241
 868  1368.241
 869  1288.69
 870  1269.871
 871  1311.427
 872  1425.533
 873  1390.903
 874  1452.108
 875  1474.563
 876  1388.772
 877  1226.822
 878  1255.254
 879  1339.538
 880  1440.554
 881  1231.812
 882  1208.229
 883  1192.526
 884  1355.725
 885  1457.694
 886  1455.569
 887  1461.357
 888  1405.933
 889  1527.846
 890  1530.109
 891  1474.828
 892  1389.44
 893  1525.531
 894  1749.474
 895  1706.556
 896  1678.457
 897  1534.656
 898  1573.667
 899  1537.431
 900  1585.329
 901  1491.949
 902  1534.858
 903  1498.561
 904  1660.56
 905  1603.154
 906  1544.355
 907  1448.713
 908  1536.398
 909  1545.747
 910  1484.884
 911  1510.464
 912  1454.168
 913  1440.865
 914  1348.431
 915  1373.049
 916  1278.31
 917  1300.167
 918  1315.551
 919  1417.99
 920  1454.511
 921  1482.147
 922  1341.691
 923  1210.766
 924  1331.845
 925  1435.245
 926  1465.239
 927  1304.953
 928  1288.082
 929  1192.49
 930  1305.548
 931  1365.19
 932  1415.614
 933  1335.739
 934  1299.612
 935  1430.669
 936  1438.143
 937  1393.266
 938  1285.085
 939  1285.284
 940  1344.044
 941  1393.833
 942  1592.868
 943  1506.163
 944  1490.788
 945  1437.018
 946  1554.592
 947  1482.784
 948  1323.671
 949  1136.306
 950  1178.198
 951  1294.685
 952  1397.356
 953  1433.749
 954  1401.496
 955  1340.754
 956  1350.513
 957  1358.633
 958  1262.652
 959  1174.05
 960  1189.3
 961  1263.32
 962  1341.948
 963  1275.039
 964  1193.628
 965  1203.304
 966  1328.569
 967  1397.473
 968  1565.494
 969  1498.825
 970  1514.228
 971  1533.983
 972  1620.826
 973  1555.128
 974  1506.834
 975  1395.089
 976  1371.155
 977  1316.866
 978  1409.635
 979  1403.39
 980  1391.053
 981  1490.334
 982  1484.93
 983  1429.702
 984  1391.476
 985  1482.658
 986  1522.403
 987  1554.918
 988  1486.364
 989  1408.341
 990  1234.877
 991  1007.593
 992  953.3248
 993  1123.168
 994  1105.307
 995  1243.97
 996  1314.945
 997  1491.686
 998  1384.038
 999  1307.094
1000  1345.315
1001  1443.049
1002  1424.808
1003  1272.144
1004  1205.911
1005  1276.11
1006  1122.105
1007  1070.244
1008  1103.667
1009  1068.52
1010  1047.458
1011  1003.418
1012  1003.196
1013  1049.07
1014  1106.172
1015  1156.966
1016  1165.338
1017  1258.869
1018  1261.377
1019  1182.811
1020  1227.495
1021  1384.444
1022  1489.658
1023  1355.57
