# Input file       =  1206444813.112411_cleaned.dat
# Candidate        =  PSR_0332+5434
# Telescope        =  AR
# Epoch_topo       =  58207.481853152902
# Epoch_bary       =  N/A
# T_sample         =  0.002
# Data Folded      =  7340032
# Data Avg         =  0.0961894290268192
# Data StdDev      =  1.00010987174241 
# Profile Bins     =  512
# Profile Avg      =  1378.89146662768 
# Profile StdDev   =  119.746191654097 
# Reduced chi-sqr  =  1.010
# Prob(Noise)      <  0.427   (~0.2 sigma)
# P_topo (ms)      =  714.570537217296  +/- 0.000781
# P'_topo (s/s)    =  -0                +/- 4.12e-10
# P''_topo (s/s^2) =  0                 +/- 1.82e-13
# P_bary (ms)      =  N/A
# P'_bary (s/s)    =  N/A
# P''_bary (s/s^2) =  N/A
# P_orb (s)        =  N/A
# asin(i)/c (s)    =  N/A
# eccentricity     =  N/A
# w (rad)          =  N/A
# T_peri           =  N/A
######################################################
   0  1300.915
   1  1290.763
   2  1313.667
   3  1285.493
   4  1362.827
   5  1297.62
   6  1359.421
   7  1406.268
   8  1365.197
   9  1443.495
  10  1453.611
  11  1306.481
  12  1292.835
  13  1336.166
  14  1404.706
  15  1352.947
  16  1354.68
  17  1387.887
  18  1366.438
  19  1281.249
  20  1265.705
  21  1258.536
  22  1319.506
  23  1324.016
  24  1329.484
  25  1367.015
  26  1415.972
  27  1386.076
  28  1400.184
  29  1325.304
  30  1378.961
  31  1366.011
  32  1365.128
  33  1306.413
  34  1391.849
  35  1376.126
  36  1350.506
  37  1349.288
  38  1258.094
  39  1322.231
  40  1353.634
  41  1353.694
  42  1306.977
  43  1367.264
  44  1325.513
  45  1286.999
  46  1286.681
  47  1339.589
  48  1270.249
  49  1267.139
  50  1352.404
  51  1419.421
  52  1387.872
  53  1374.639
  54  1388.509
  55  1328.771
  56  1236.911
  57  1261.052
  58  1260.573
  59  1288.512
  60  1294.92
  61  1340.448
  62  1336.641
  63  1318.284
  64  1265.381
  65  1277.008
  66  1289.69
  67  1289.247
  68  1321.003
  69  1405.232
  70  1331.812
  71  1260.075
  72  1286.618
  73  1307.335
  74  1312.361
  75  1344.852
  76  1453.425
  77  1404.254
  78  1390.807
  79  1387.971
  80  1422.616
  81  1344.879
  82  1327.644
  83  1309.785
  84  1262.426
  85  1215.651
  86  1313.75
  87  1238.072
  88  1248.686
  89  1329.667
  90  1384.678
  91  1346.592
  92  1407.828
  93  1343.986
  94  1326.195
  95  1361.573
  96  1418.984
  97  1412.041
  98  1392.754
  99  1399.662
 100  1392.287
 101  1294.284
 102  1252.451
 103  1282.664
 104  1317.467
 105  1389.794
 106  1383.897
 107  1324.082
 108  1334.767
 109  1306.981
 110  1255.589
 111  1325.919
 112  1377.34
 113  1404.718
 114  1394.078
 115  1411.946
 116  1450.802
 117  1415.915
 118  1364.988
 119  1367.614
 120  1398.585
 121  1336.364
 122  1399.083
 123  1363.233
 124  1385.61
 125  1412.526
 126  1380.124
 127  1397.162
 128  1369.341
 129  1432.485
 130  1475.319
 131  1361.053
 132  1409.077
 133  1378.137
 134  1331.436
 135  1369.693
 136  1348.239
 137  1342.368
 138  1241.243
 139  1178.551
 140  1169.393
 141  1249.887
 142  1275.398
 143  1232.772
 144  1241.308
 145  1310.591
 146  1342.735
 147  1274.913
 148  1296.667
 149  1403.306
 150  1340.733
 151  1312.27
 152  1333.44
 153  1321.819
 154  1239.173
 155  1300.718
 156  1322.333
 157  1385.376
 158  1378.593
 159  1386.541
 160  1290.86
 161  1206.444
 162  1282.4
 163  1273.685
 164  1291.604
 165  1372.436
 166  1285.13
 167  1191.957
 168  1179.39
 169  1267.429
 170  1292.049
 171  1303.575
 172  1267.207
 173  1353.598
 174  1384.986
 175  1285.398
 176  1366.487
 177  1380.377
 178  1315.178
 179  1327.077
 180  1307.755
 181  1318.038
 182  1283.674
 183  1248.799
 184  1336.545
 185  1346.64
 186  1428.547
 187  1372.269
 188  1441.043
 189  1378.258
 190  1374.733
 191  1465.267
 192  1383.737
 193  1354.963
 194  1377.818
 195  1346.789
 196  1287.912
 197  1330.606
 198  1405.428
 199  1411.363
 200  1468.133
 201  1424.684
 202  1355.912
 203  1357.506
 204  1388.71
 205  1329.809
 206  1362.477
 207  1450.036
 208  1443.564
 209  1460.305
 210  1403.93
 211  1406.585
 212  1371.138
 213  1377.553
 214  1329.18
 215  1364.659
 216  1385.171
 217  1443.785
 218  1490.608
 219  1376.653
 220  1360.691
 221  1391.827
 222  1408.286
 223  1325.678
 224  1382.423
 225  1431.597
 226  1416.264
 227  1391.397
 228  1425.384
 229  1473.387
 230  1426.748
 231  1430.115
 232  1443.16
 233  1397.829
 234  1387.745
 235  1425.631
 236  1419.75
 237  1430.331
 238  1382.056
 239  1408.458
 240  1404.594
 241  1354.114
 242  1427.851
 243  1295.967
 244  1303.328
 245  1252.467
 246  1328.016
 247  1384.406
 248  1289.537
 249  1259.674
 250  1346.9
 251  1366.366
 252  1403.064
 253  1370.767
 254  1379.252
 255  1468.5
 256  1418.935
 257  1373.875
 258  1320.964
 259  1366.577
 260  1423.266
 261  1422.921
 262  1392.709
 263  1400.513
 264  1410.948
 265  1398.929
 266  1357.634
 267  1314.331
 268  1378.298
 269  1400.974
 270  1430.087
 271  1348.189
 272  1321.466
 273  1414.318
 274  1455.557
 275  1460.428
 276  1418.852
 277  1377.377
 278  1508.58
 279  1491.998
 280  1464.445
 281  1490.098
 282  1676.058
 283  1822.291
 284  1902.775
 285  1962.987
 286  1971.412
 287  1804.016
 288  1508.749
 289  1410.143
 290  1447.575
 291  1404.295
 292  1447.643
 293  1506.725
 294  1494.626
 295  1476.168
 296  1484.311
 297  1440.303
 298  1461.932
 299  1532.084
 300  1627.711
 301  1595.105
 302  1474.965
 303  1417.891
 304  1411.647
 305  1448.876
 306  1471.506
 307  1433.967
 308  1463.639
 309  1427.655
 310  1435.392
 311  1345.611
 312  1357.049
 313  1289.762
 314  1384.298
 315  1429.903
 316  1411.938
 317  1424.756
 318  1404.132
 319  1464.953
 320  1512.489
 321  1436.498
 322  1383.148
 323  1429.876
 324  1363.196
 325  1393.571
 326  1392.465
 327  1356.492
 328  1447.773
 329  1467.26
 330  1368.988
 331  1345.774
 332  1335.193
 333  1322.219
 334  1362.796
 335  1413.601
 336  1448.118
 337  1400.111
 338  1412.204
 339  1444.639
 340  1390.688
 341  1397.691
 342  1452.084
 343  1400.401
 344  1389.322
 345  1401.516
 346  1380.144
 347  1356.217
 348  1325.732
 349  1299.03
 350  1429.072
 351  1389.862
 352  1382.147
 353  1434.951
 354  1382.486
 355  1327.76
 356  1318.336
 357  1344.744
 358  1315.668
 359  1281.664
 360  1413.793
 361  1363.78
 362  1329.937
 363  1360.001
 364  1345.935
 365  1324.946
 366  1316.312
 367  1372.43
 368  1260.016
 369  1290.505
 370  1300.399
 371  1222.383
 372  1233.514
 373  1291.431
 374  1363.471
 375  1362.644
 376  1363.968
 377  1378.569
 378  1421.929
 379  1381.209
 380  1306.891
 381  1259.371
 382  1310.328
 383  1346.314
 384  1411.5
 385  1321.921
 386  1167.432
 387  1295.859
 388  1414.129
 389  1400.024
 390  1332.727
 391  1364.476
 392  1379.05
 393  1344.535
 394  1401.565
 395  1442.262
 396  1504.249
 397  1526.142
 398  1480.19
 399  1496.498
 400  1508.079
 401  1462.822
 402  1399.14
 403  1438.141
 404  1476.126
 405  1436.61
 406  1368.511
 407  1408.036
 408  1482.237
 409  1472.216
 410  1436.393
 411  1496.677
 412  1435.346
 413  1397.906
 414  1359.662
 415  1359.049
 416  1426.013
 417  1466.339
 418  1545.078
 419  1560.986
 420  1520.397
 421  1484.078
 422  1525.241
 423  1452.078
 424  1461.419
 425  1409
 426  1308.974
 427  1425.459
 428  1504.945
 429  1416.961
 430  1373.729
 431  1401.833
 432  1426.786
 433  1374.401
 434  1437.989
 435  1403.658
 436  1363.402
 437  1378.314
 438  1429.826
 439  1487.18
 440  1469.605
 441  1451.383
 442  1450.377
 443  1472.721
 444  1436.78
 445  1466.873
 446  1477.309
 447  1515.438
 448  1445.309
 449  1448.899
 450  1442.352
 451  1399.929
 452  1385.663
 453  1459.954
 454  1479.64
 455  1413.931
 456  1413.437
 457  1409.444
 458  1340.002
 459  1357.973
 460  1371.618
 461  1394.198
 462  1371.865
 463  1384.948
 464  1387.56
 465  1393.061
 466  1371.22
 467  1298.711
 468  1353.535
 469  1438.83
 470  1416.405
 471  1398.479
 472  1350.575
 473  1350.196
 474  1352.178
 475  1413.995
 476  1429.957
 477  1364.09
 478  1356.74
 479  1437.146
 480  1471.596
 481  1404.212
 482  1433.026
 483  1390.377
 484  1442.407
 485  1419.023
 486  1429.346
 487  1450.883
 488  1419.599
 489  1405.462
 490  1399.456
 491  1349.03
 492  1354.663
 493  1365.758
 494  1354.564
 495  1392.353
 496  1384.714
 497  1288.718
 498  1308.39
 499  1328.788
 500  1355.044
 501  1380.971
 502  1348.973
 503  1377.664
 504  1232.927
 505  1204.897
 506  1254.006
 507  1288.735
 508  1328.227
 509  1184.306
 510  1271.295
 511  1327.078
