# Input file       =  1206358626.111749_cleaned.dat
# Candidate        =  PSR_0332+5434
# Telescope        =  AR
# Epoch_topo       =  58206.484318423019
# Epoch_bary       =  N/A
# T_sample         =  0.002
# Data Folded      =  7340032
# Data Avg         =  0.0657329037082582
# Data StdDev      =  1.00011991923284 
# Profile Bins     =  512
# Profile Avg      =  942.324748109414 
# Profile StdDev   =  119.747394670634 
# Reduced chi-sqr  =  0.966
# Prob(Noise)      <  0.7   (~0.0 sigma)
# P_topo (ms)      =  714.571096941393  +/- 0.000284
# P'_topo (s/s)    =  -0                +/- 1.5e-10
# P''_topo (s/s^2) =  0                 +/- 6.61e-14
# P_bary (ms)      =  N/A
# P'_bary (s/s)    =  N/A
# P''_bary (s/s^2) =  N/A
# P_orb (s)        =  N/A
# asin(i)/c (s)    =  N/A
# eccentricity     =  N/A
# w (rad)          =  N/A
# T_peri           =  N/A
######################################################
   0  965.3608
   1  1052.328
   2  1095.816
   3  1070.016
   4  1101.279
   5  1126.445
   6  1101.33
   7  1102.631
   8  1061.454
   9  1082.833
  10  1021.045
  11  985.2507
  12  1015.469
  13  1044.832
  14  1017.803
  15  1052.887
  16  1094.415
  17  1077.098
  18  1082.862
  19  1018.509
  20  949.5542
  21  887.6035
  22  894.257
  23  1014.977
  24  1024.657
  25  960.8922
  26  1072.159
  27  1076.364
  28  1023.31
  29  923.1857
  30  926.9136
  31  902.5779
  32  786.996
  33  920.398
  34  925.8455
  35  923.3273
  36  970.0029
  37  1015.336
  38  934.8477
  39  877.5709
  40  968.1409
  41  969.3519
  42  965.7017
  43  929.6678
  44  906.0376
  45  920.0063
  46  831.4993
  47  736.8459
  48  837.1216
  49  936.6953
  50  935.395
  51  844.2693
  52  879.9925
  53  891.3568
  54  906.8766
  55  980.647
  56  900.3625
  57  910.2736
  58  892.7944
  59  893.2093
  60  783.361
  61  857.5176
  62  867.9616
  63  830.0462
  64  848.1006
  65  899.1413
  66  918.6176
  67  793.3416
  68  874.5571
  69  847.6972
  70  890.6474
  71  921.5734
  72  840.7845
  73  827.1651
  74  924.9481
  75  872.0593
  76  757.6969
  77  810.4897
  78  882.9213
  79  896.3481
  80  917.3213
  81  1029.965
  82  1220.565
  83  1310.412
  84  1391.278
  85  1317.352
  86  1246.67
  87  1172.077
  88  1062.515
  89  951.0872
  90  867.5829
  91  853.5321
  92  841.2852
  93  831.7671
  94  872.6538
  95  921.2764
  96  913.5748
  97  926.8794
  98  912.6989
  99  927.5312
 100  939.23
 101  984.1559
 102  1009.252
 103  959.5536
 104  962.6356
 105  976.9551
 106  930.7218
 107  859.3624
 108  865.2454
 109  819.8947
 110  927.5409
 111  960.4499
 112  969.0001
 113  982.5421
 114  1027.781
 115  1053.746
 116  957.731
 117  973.8306
 118  930.0647
 119  981.9056
 120  887.9918
 121  821.6412
 122  896.9625
 123  895.6279
 124  928.425
 125  857.4562
 126  888.7359
 127  933.7593
 128  901.3168
 129  954.4167
 130  957.0165
 131  982.5142
 132  977.4457
 133  980.1089
 134  960.7092
 135  901.3092
 136  984.1443
 137  907.0054
 138  874.0017
 139  835.3803
 140  852.6784
 141  799.9533
 142  820.3712
 143  921.5486
 144  930.0977
 145  961.1996
 146  925.7518
 147  877.3569
 148  861.4824
 149  931.0844
 150  822.3148
 151  788.9542
 152  901.3281
 153  904.3516
 154  861.1536
 155  793.576
 156  845.7844
 157  788.9794
 158  912.0291
 159  966.6133
 160  865.861
 161  880.177
 162  948.8991
 163  1023.285
 164  961.6744
 165  962.8458
 166  925.2166
 167  869.2598
 168  987.6603
 169  1028.945
 170  1017.943
 171  1025.736
 172  966.0488
 173  997.4229
 174  1039.454
 175  972.8569
 176  945.6558
 177  1064.932
 178  1145.701
 179  1087.787
 180  1013.892
 181  1140.579
 182  1108.842
 183  1022.849
 184  1026.294
 185  977.8231
 186  992.7924
 187  1005.08
 188  1006.437
 189  1055.59
 190  1072.84
 191  1043.975
 192  1047.971
 193  1128.669
 194  1046.652
 195  1059.396
 196  1061.015
 197  1000.967
 198  1042.833
 199  1033.25
 200  997.6234
 201  911.6293
 202  967.0638
 203  1048.411
 204  927.3178
 205  900.9783
 206  911.9269
 207  948.1235
 208  969.9621
 209  1001.376
 210  1078.091
 211  1124.805
 212  998.4771
 213  979.6195
 214  1021.875
 215  1056.9
 216  1005.166
 217  984.4936
 218  981.5275
 219  1105.217
 220  1065.908
 221  1028.398
 222  1002.798
 223  1043.619
 224  1016.578
 225  1054.266
 226  1066.327
 227  998.8166
 228  1009.25
 229  960.4124
 230  977.3139
 231  1047.153
 232  1021.459
 233  1002.698
 234  913.4506
 235  889.5243
 236  960.9562
 237  1057.657
 238  1040.117
 239  994.2869
 240  1015.512
 241  1011.524
 242  988.2278
 243  937.9362
 244  1003.512
 245  1032.307
 246  995.8604
 247  963.185
 248  937.0004
 249  921.5674
 250  898.7842
 251  913.5582
 252  948.3915
 253  1023.97
 254  1011.988
 255  943.9771
 256  957.9451
 257  910.5804
 258  908.3632
 259  916.2365
 260  976.3412
 261  891.2856
 262  873.756
 263  832.9052
 264  891.3202
 265  837.907
 266  879.4019
 267  939.9623
 268  874.106
 269  923.6335
 270  892.0618
 271  939.0602
 272  982.2256
 273  1026.453
 274  1022.351
 275  911.6226
 276  882.6255
 277  904.7094
 278  929.9656
 279  987.2811
 280  981.4448
 281  965.9844
 282  953.5036
 283  922.0496
 284  948.2825
 285  939.6903
 286  860.7698
 287  932.7425
 288  901.9124
 289  915.465
 290  889.7653
 291  954.265
 292  878.7146
 293  871.4572
 294  937.8303
 295  953.6174
 296  1018.753
 297  965.0959
 298  956.6588
 299  945.0616
 300  931.0232
 301  952.3871
 302  880.6533
 303  957.0481
 304  974.8662
 305  897.0187
 306  893.4601
 307  974.6618
 308  1014.875
 309  950.7651
 310  966.5199
 311  935.3351
 312  975.932
 313  968.0312
 314  919.4985
 315  946.2415
 316  958.5288
 317  1022.002
 318  960.7338
 319  1011.769
 320  1029.883
 321  1030.571
 322  966.8204
 323  881.2131
 324  868.0098
 325  960.7615
 326  934.1972
 327  889.9467
 328  973.6227
 329  1002.984
 330  1015.527
 331  1039.071
 332  1035.084
 333  912.4781
 334  810.814
 335  856.2419
 336  911.8798
 337  888.8915
 338  923.938
 339  1027.951
 340  954.3827
 341  933.4693
 342  935.0146
 343  868.0747
 344  839.5341
 345  898.0012
 346  984.2634
 347  973.5076
 348  900.1782
 349  879.8395
 350  948.4337
 351  936.759
 352  917.6238
 353  902.5348
 354  877.9434
 355  862.7429
 356  897.2814
 357  816.7878
 358  822.3805
 359  872.1512
 360  899.8677
 361  953.235
 362  942.3796
 363  943.403
 364  860.4305
 365  886.8568
 366  932.7203
 367  870.1582
 368  818.7756
 369  813.0861
 370  781.9686
 371  756.4171
 372  838.3132
 373  897.9638
 374  848.8388
 375  874.156
 376  729.7109
 377  714.9875
 378  807.6955
 379  880.7049
 380  886.0375
 381  857.5742
 382  872.8091
 383  846.1147
 384  846.1913
 385  821.3795
 386  933.3796
 387  980.2421
 388  845.7996
 389  820.0937
 390  841.5271
 391  779.4529
 392  761.4922
 393  888.0406
 394  900.9279
 395  878.7827
 396  897.6031
 397  894.8633
 398  920.9908
 399  928.015
 400  878.6118
 401  843.9191
 402  841.4146
 403  962.3314
 404  994.7247
 405  978.0411
 406  1016.797
 407  1043.538
 408  948.2961
 409  955.7582
 410  912.61
 411  878.8437
 412  921.7277
 413  926.5664
 414  891.675
 415  825.3167
 416  877.3387
 417  927.5267
 418  963.7853
 419  938.2767
 420  900.6225
 421  951.0462
 422  1010.931
 423  955.0679
 424  950.7029
 425  946.553
 426  934.4492
 427  879.8322
 428  870.2068
 429  935.6821
 430  883.6659
 431  935.2382
 432  1025.81
 433  999.7504
 434  985.0723
 435  991.8806
 436  972.4235
 437  949.071
 438  986.2298
 439  919.6025
 440  977.3998
 441  997.7028
 442  914.8835
 443  853.5751
 444  796.6733
 445  881.9673
 446  887.7104
 447  854.0804
 448  863.6356
 449  910.4027
 450  881.1457
 451  849.8837
 452  783.8694
 453  868.4353
 454  806.7631
 455  815.8915
 456  855.631
 457  885.3184
 458  858.4846
 459  889.8912
 460  819.5529
 461  828.9162
 462  859.0519
 463  834.7879
 464  877.7932
 465  894.6715
 466  968.8167
 467  919.3355
 468  921.8477
 469  906.1769
 470  872.8455
 471  887.1261
 472  905.7521
 473  924.3469
 474  946.8682
 475  919.8645
 476  883.8466
 477  770.9766
 478  874.0504
 479  857.7651
 480  901.8217
 481  960.9172
 482  907.8935
 483  800.1169
 484  789.8596
 485  911.1797
 486  991.7299
 487  993.056
 488  997.3862
 489  1094.243
 490  973.8989
 491  886.4876
 492  900.3365
 493  951.0865
 494  1035.774
 495  1026.896
 496  1052.31
 497  1086.392
 498  1089.536
 499  1046.568
 500  1040.245
 501  990.8287
 502  964.6787
 503  1002.771
 504  995.5193
 505  1026.94
 506  1060.184
 507  995.0509
 508  1021.36
 509  1098.066
 510  1066.953
 511  943.3725
