# Input file       =  1206186294.114467_cleaned.dat
# Candidate        =  PSR_0332+5434
# Telescope        =  AR
# Epoch_topo       =  58204.489735121148
# Epoch_bary       =  N/A
# T_sample         =  0.002
# Data Folded      =  7340032
# Data Avg         =  0.120349830516456
# Data StdDev      =  5.76104297903581 
# Profile Bins     =  512
# Profile Avg      =  1722.98026410453 
# Profile StdDev   =  689.787168577007 
# Reduced chi-sqr  =  1.956
# Prob(Noise)      <  6.2e-34   (~12.1 sigma)
# P_topo (ms)      =  714.572178044697  +/- 0.000155
# P'_topo (s/s)    =  -0                +/- 8.18e-11
# P''_topo (s/s^2) =  0                 +/- 3.61e-14
# P_bary (ms)      =  N/A
# P'_bary (s/s)    =  N/A
# P''_bary (s/s^2) =  N/A
# P_orb (s)        =  N/A
# asin(i)/c (s)    =  N/A
# eccentricity     =  N/A
# w (rad)          =  N/A
# T_peri           =  N/A
######################################################
   0  2428.92
   1  2495.661
   2  2356.917
   3  2053.907
   4  2182.136
   5  2368.885
   6  2204.842
   7  1906.626
   8  1943.918
   9  1876.197
  10  2107.925
  11  1991.054
  12  2225.634
  13  1976.388
  14  1744.202
  15  1759.895
  16  1638.011
  17  1635.405
  18  1621.251
  19  1502.817
  20  1725.479
  21  1801.376
  22  1920.081
  23  1612.263
  24  1136.62
  25  913.0933
  26  1017.395
  27  1131.797
  28  783.3156
  29  633.4284
  30  662.7841
  31  733.8409
  32  429.1491
  33  129.6355
  34  430.6078
  35  234.599
  36  -3.154083
  37  70.42735
  38  300.4466
  39  465.8719
  40  1007.084
  41  727.3106
  42  628.4014
  43  717.4831
  44  769.9867
  45  735.4495
  46  1100.739
  47  1426.618
  48  1574.021
  49  1366.17
  50  1211.509
  51  1504.219
  52  1489.217
  53  1057.042
  54  1112.016
  55  1172.395
  56  1250.261
  57  1683.983
  58  1980.866
  59  1901.548
  60  1709.473
  61  1922.027
  62  1773.776
  63  2060.164
  64  2267.727
  65  2261.493
  66  2208.633
  67  2194.12
  68  2567.092
  69  2550.889
  70  2426.61
  71  2400.206
  72  2501.502
  73  2832.005
  74  2818.604
  75  2578.121
  76  2363.117
  77  2537.713
  78  2899.348
  79  2806.507
  80  2716.741
  81  2758.212
  82  2846.07
  83  2332.257
  84  1988.001
  85  2092.149
  86  2051.931
  87  1975.948
  88  1653.141
  89  1555.265
  90  1568.312
  91  1190.562
  92  1452.803
  93  1576.998
  94  1696.594
  95  1017.364
  96  858.189
  97  1169.53
  98  1481.451
  99  1510.933
 100  1345.721
 101  1026.455
 102  1034.892
 103  1367.081
 104  1588.402
 105  1378.994
 106  1480.087
 107  1383.97
 108  1113.428
 109  1181.599
 110  1290.919
 111  1266.389
 112  1330.841
 113  1431.273
 114  1135.7
 115  1264.148
 116  1353.022
 117  1126.178
 118  1470.576
 119  1518.322
 120  1463.167
 121  1353.038
 122  1446.088
 123  1563.03
 124  1445.238
 125  1458.688
 126  1680.019
 127  1758.245
 128  1847.147
 129  2063.484
 130  1950.323
 131  1926.687
 132  2109.509
 133  2141.136
 134  2023.558
 135  1861.054
 136  2396.362
 137  2639.329
 138  2663.096
 139  2525.88
 140  2415.561
 141  2285.526
 142  2074.287
 143  2504.665
 144  2628.207
 145  2143.426
 146  2647.827
 147  2670.865
 148  2580.749
 149  2348.154
 150  2387.093
 151  2647.048
 152  2563.761
 153  2836.258
 154  2907.344
 155  2963.577
 156  2390.56
 157  2038.089
 158  1865.25
 159  2035.411
 160  1682.698
 161  1769.998
 162  1449.685
 163  1615.165
 164  1425.536
 165  1132.002
 166  1444.114
 167  1308.967
 168  915.7703
 169  931.1424
 170  1002.463
 171  1272.289
 172  1533.302
 173  1205.429
 174  1079.976
 175  1020.073
 176  1193.919
 177  1306.981
 178  1079.214
 179  1023.335
 180  1482.951
 181  1276.002
 182  1344.906
 183  1156.834
 184  835.4357
 185  622.9105
 186  814.5941
 187  1132.681
 188  1676.893
 189  1611.375
 190  1831.394
 191  2114.598
 192  2107.203
 193  1859.918
 194  1798.826
 195  1700.958
 196  2393.139
 197  2418.423
 198  1969.823
 199  1635.805
 200  2019.612
 201  1684.421
 202  1581.289
 203  1967.519
 204  2059.7
 205  1975.476
 206  1955.425
 207  2473.83
 208  2363.81
 209  2065.302
 210  2288.828
 211  2396.443
 212  2790.8
 213  3156.585
 214  3302.79
 215  3333.335
 216  3066.076
 217  3236.882
 218  3388.7
 219  3146.58
 220  2944.425
 221  3186.106
 222  3497.561
 223  3162.142
 224  3026.097
 225  3010.731
 226  3048.855
 227  3048.371
 228  2877.472
 229  2379.965
 230  2620.506
 231  2960.228
 232  2782.947
 233  2211.549
 234  2078.264
 235  1743.893
 236  1453.508
 237  1706.509
 238  1915.772
 239  1816.493
 240  1823.988
 241  1891.125
 242  1516.477
 243  1410.829
 244  1482.402
 245  1531.957
 246  1563.438
 247  1726.172
 248  1953.811
 249  1977.303
 250  1654.444
 251  1636.403
 252  1666.328
 253  1778.051
 254  1966.033
 255  1882.034
 256  1444.659
 257  1134.816
 258  1083.02
 259  1201.146
 260  1201.851
 261  1173.498
 262  1495.576
 263  1667.771
 264  1067.033
 265  785.6254
 266  1196.565
 267  1346.452
 268  1477.281
 269  1292.392
 270  1475.605
 271  1619.971
 272  1688.178
 273  1890.312
 274  1766.229
 275  1550.283
 276  1787.318
 277  1784.22
 278  1985.021
 279  2431.644
 280  2566.003
 281  2644.622
 282  2555.405
 283  2827.256
 284  2589.938
 285  2492.099
 286  2693.13
 287  2509.86
 288  2568.13
 289  2734.92
 290  2838.127
 291  2927.587
 292  2725.817
 293  3002.486
 294  3063.101
 295  2675.841
 296  2587.244
 297  3272.508
 298  3239.798
 299  3069.842
 300  3496.464
 301  3934.935
 302  3745.755
 303  3834.168
 304  3901.791
 305  3580.119
 306  2720.496
 307  2744.636
 308  2271.911
 309  1776.713
 310  1823.932
 311  1961.353
 312  1851.648
 313  2004.014
 314  2049.944
 315  2157.621
 316  1788.18
 317  2095.261
 318  2035.801
 319  2061.556
 320  1806.962
 321  1558.155
 322  1558.01
 323  1592.717
 324  1323.654
 325  1382.038
 326  1322.811
 327  1509.873
 328  1130.183
 329  1087.986
 330  1051.865
 331  1194.863
 332  1323.406
 333  1288.814
 334  975.0394
 335  850.4556
 336  785.3728
 337  836.8732
 338  1036.651
 339  1046.079
 340  1115.12
 341  1329.981
 342  1108.012
 343  1552.926
 344  1589.157
 345  1456.068
 346  1627.739
 347  1537.065
 348  1599.293
 349  1830.984
 350  1709.052
 351  1922.64
 352  1899.846
 353  1798.691
 354  2225.807
 355  2306.284
 356  2364.007
 357  2320.731
 358  2350.56
 359  2330.175
 360  2417.438
 361  2264.854
 362  2220.722
 363  2147.693
 364  2037.015
 365  2001.354
 366  2117.796
 367  2174.847
 368  2082.988
 369  2207.822
 370  2102.825
 371  2128.442
 372  2159.316
 373  1892.273
 374  2003.581
 375  1640.907
 376  2208.429
 377  1981.331
 378  1966.255
 379  2072.244
 380  1848.469
 381  1814.46
 382  1449.932
 383  1406.387
 384  1711.652
 385  1353.647
 386  1451.139
 387  1379.086
 388  1469.877
 389  1227.435
 390  799.0984
 391  1024.935
 392  1078.495
 393  965.9141
 394  885.1336
 395  876.7683
 396  949.0027
 397  1107.803
 398  1568.013
 399  1167.176
 400  1095.28
 401  1243.848
 402  902.1547
 403  795.6436
 404  809.4205
 405  731.589
 406  872.4529
 407  643.0133
 408  840.5773
 409  782.095
 410  941.2527
 411  807.5325
 412  331.3886
 413  625.0541
 414  1240.87
 415  1247.346
 416  1107.364
 417  976.2512
 418  829.8151
 419  851.5923
 420  1110.455
 421  1051.902
 422  1273.94
 423  1245.29
 424  1405.154
 425  1633.268
 426  1737.672
 427  1810.422
 428  1627.402
 429  1725.291
 430  1938.47
 431  2117.245
 432  1906.398
 433  2275.873
 434  2421.165
 435  2215.627
 436  2041.654
 437  1787.32
 438  1834.178
 439  1985.32
 440  2175.855
 441  2039.531
 442  2166.199
 443  2374.9
 444  2205.003
 445  1961.537
 446  1869.4
 447  1924.13
 448  1904.078
 449  1656.36
 450  1891.273
 451  1629.365
 452  1498.624
 453  1745.36
 454  1491.928
 455  1385.146
 456  1182.714
 457  1307.837
 458  1290.551
 459  1316.277
 460  1394.481
 461  950.8893
 462  899.0864
 463  1074.26
 464  976.282
 465  863.3561
 466  1004.046
 467  1257.986
 468  1414.259
 469  1375.929
 470  1171.04
 471  900.2481
 472  875.7591
 473  996.9724
 474  781.2809
 475  447.0378
 476  588.6395
 477  758.887
 478  689.9534
 479  667.1035
 480  528.3029
 481  479.5924
 482  725.2285
 483  929.685
 484  863.0352
 485  893.5105
 486  619.2007
 487  626.7665
 488  620.027
 489  450.6678
 490  606.3138
 491  651.7424
 492  877.1639
 493  864.7082
 494  943.0388
 495  965.7467
 496  646.9607
 497  941.475
 498  1437.017
 499  1613.091
 500  1374.396
 501  1960.16
 502  1720.895
 503  1865.654
 504  1894.309
 505  2011.232
 506  2107.518
 507  2151.922
 508  2405.43
 509  2310.581
 510  2330.136
 511  2426.659
