# Input file       =  1206186294.114467_cleaned.dat
# Candidate        =  PSR_0332+5434
# Telescope        =  AR
# Epoch_topo       =  58204.489735121148
# Epoch_bary       =  N/A
# T_sample         =  0.002
# Data Folded      =  7340032
# Data Avg         =  0.120349830516456
# Data StdDev      =  5.76104297903581 
# Profile Bins     =  1024
# Profile Avg      =  861.490132028044 
# Profile StdDev   =  487.75318447627  
# Reduced chi-sqr  =  1.696
# Prob(Noise)      <  1.45e-39   (~13.1 sigma)
# P_topo (ms)      =  714.572178032741  +/- 0.000155
# P'_topo (s/s)    =  -0                +/- 8.18e-11
# P''_topo (s/s^2) =  0                 +/- 3.61e-14
# P_bary (ms)      =  N/A
# P'_bary (s/s)    =  N/A
# P''_bary (s/s^2) =  N/A
# P_orb (s)        =  N/A
# asin(i)/c (s)    =  N/A
# eccentricity     =  N/A
# w (rad)          =  N/A
# T_peri           =  N/A
######################################################
   0  1208.281
   1  1205.496
   2  1256.284
   3  1259.296
   4  1170.889
   5  1101.649
   6  1016.561
   7  1026.584
   8  1087.108
   9  1165.991
  10  1191.704
  11  1144.954
  12  1113.493
  13  1040.323
  14  913.5154
  15  970.4659
  16  951.8925
  17  1005.707
  18  901.0406
  19  970.6277
  20  1054.918
  21  1075.661
  22  937.1854
  23  1063.767
  24  1132.79
  25  1068.926
  26  1015.124
  27  890.4776
  28  880.0345
  29  853.732
  30  859.7356
  31  941.4097
  32  787.1486
  33  778.3513
  34  810.9969
  35  848.6702
  36  835.8934
  37  710.1163
  38  753.5999
  39  827.7882
  40  862.3866
  41  895.4484
  42  867.6967
  43  960.3425
  44  938.8443
  45  958.2301
  46  805.1146
  47  654.0499
  48  537.7816
  49  571.9666
  50  430.1109
  51  427.4162
  52  491.617
  53  587.6968
  54  586.3005
  55  500.7002
  56  402.7997
  57  277.1552
  58  324.4502
  59  353.2566
  60  328.8329
  61  323.6494
  62  392.1183
  63  314.8048
  64  227.8498
  65  88.81963
  66  57.13434
  67  94.68648
  68  234.2714
  69  277.6752
  70  110.8713
  71  -35.46842
  72  -18.20872
  73  59.69036
  74  19.12171
  75  77.67283
  76  183.9556
  77  168.4543
  78  207.6627
  79  380.9809
  80  524.2818
  81  488.2904
  82  325.4734
  83  352.0316
  84  276.1227
  85  392.1805
  86  334.5125
  87  349.4098
  88  399.5726
  89  381.2704
  90  354.1875
  91  419.2076
  92  536.4901
  93  689.8141
  94  693.7985
  95  783.8204
  96  778.576
  97  756.8314
  98  667.6224
  99  651.8466
 100  583.1204
 101  638.2526
 102  731.4988
 103  891.5652
 104  744.8515
 105  558.4384
 106  501.7787
 107  579.7668
 108  538.561
 109  542.8012
 110  593.8831
 111  605.2233
 112  616.5451
 113  714.6425
 114  852.0799
 115  935.9713
 116  1002.642
 117  996.391
 118  970.0417
 119  844.832
 120  857.1743
 121  896.9681
 122  995.2247
 123  921.1001
 124  887.0808
 125  920.1483
 126  1026.678
 127  1129.661
 128  1142.299
 129  1129.102
 130  1125.476
 131  1131.272
 132  1100.736
 133  1061.326
 134  1080.974
 135  1203.02
 136  1312.666
 137  1299.188
 138  1291.85
 139  1223.818
 140  1194.684
 141  1221.053
 142  1185.821
 143  1193.673
 144  1247.649
 145  1328.422
 146  1415.506
 147  1470.686
 148  1398.887
 149  1387.979
 150  1266.516
 151  1255.342
 152  1164.435
 153  1169.009
 154  1254.631
 155  1371.773
 156  1487.122
 157  1458.444
 158  1372.952
 159  1372.7
 160  1358.124
 161  1358.88
 162  1347.655
 163  1485.591
 164  1437.532
 165  1284.128
 166  1164.491
 167  1059.146
 168  986.6951
 169  971.0568
 170  1066.021
 171  1086.018
 172  1033.044
 173  955.8131
 174  991.6506
 175  983.1339
 176  788.1064
 177  750.2172
 178  728.9625
 179  875.3419
 180  769.8351
 181  714.3668
 182  545.2619
 183  634.0298
 184  730.8434
 185  803.4188
 186  766.7445
 187  807.7314
 188  867.2261
 189  776.4194
 190  497.6332
 191  320.4943
 192  424.143
 193  565.8177
 194  576.3012
 195  654.9272
 196  719.4622
 197  819.5066
 198  733.9127
 199  742.7081
 200  671.48
 201  589.484
 202  499.1355
 203  473.3763
 204  528.8695
 205  571.8868
 206  682.9224
 207  801.957
 208  809.4089
 209  704.9481
 210  702.1386
 211  688.5331
 212  763.132
 213  753.2867
 214  694.4945
 215  573.4907
 216  541.9789
 217  578.9132
 218  605.7411
 219  594.4372
 220  645.4705
 221  668.319
 222  658.6841
 223  583.2487
 224  686.7896
 225  696.6705
 226  738.9227
 227  673.1152
 228  545.7768
 229  536.6427
 230  641.0266
 231  719.1123
 232  699.3185
 233  549.4777
 234  555.415
 235  644.1488
 236  732.5845
 237  782.0999
 238  724.0854
 239  794.9917
 240  705.0168
 241  715.4836
 242  694.4636
 243  650.8962
 244  736.5624
 245  780.4934
 246  805.5522
 247  736.5535
 248  703.8914
 249  744.0537
 250  718.3231
 251  768.3388
 252  826.257
 253  873.0605
 254  862.6279
 255  911.5296
 256  917.5035
 257  986.1487
 258  1015.993
 259  1040.376
 260  978.4572
 261  954.8896
 262  958.0967
 263  1002.752
 264  1030.147
 265  1111.839
 266  1051.034
 267  1088.162
 268  995.055
 269  943.8842
 270  902.6149
 271  1053.471
 272  1207.629
 273  1265.269
 274  1343.072
 275  1311.282
 276  1350.263
 277  1320.261
 278  1271.857
 279  1201.699
 280  1215.208
 281  1189.315
 282  1157.945
 283  1014.897
 284  1028.97
 285  1128.156
 286  1290.173
 287  1338.744
 288  1320.586
 289  1197.704
 290  1033.49
 291  1114.943
 292  1324.862
 293  1477.104
 294  1288.071
 295  1294.023
 296  1262.426
 297  1315.86
 298  1140.229
 299  1127.976
 300  1193.765
 301  1280.874
 302  1324.84
 303  1310.474
 304  1266.599
 305  1323.429
 306  1415.65
 307  1468.053
 308  1431.066
 309  1501.867
 310  1487.183
 311  1397.172
 312  1166.318
 313  1121.656
 314  1001.827
 315  943.096
 316  883.811
 317  1052.949
 318  1019.852
 319  926.9417
 320  803.9611
 321  891.7523
 322  868.9553
 323  820.6437
 324  685.5046
 325  779.937
 326  771.8828
 327  848.3917
 328  700.8723
 329  628.5261
 330  546.8848
 331  580.509
 332  761.3201
 333  743.7349
 334  681.563
 335  509.9831
 336  458.6656
 337  444.796
 338  481.1114
 339  461.8874
 340  495.6246
 341  540.2399
 342  637.9452
 343  735.4526
 344  779.8456
 345  722.9823
 346  604.7131
 347  507.5856
 348  549.0909
 349  526.8211
 350  520.845
 351  507.7528
 352  611.8723
 353  676.6517
 354  653.4786
 355  584.2583
 356  546.3182
 357  454.6582
 358  521.1765
 359  631.912
 360  766.6293
 361  748.9015
 362  611.6868
 363  616.2191
 364  669.0261
 365  686.3383
 366  571.8235
 367  475.7158
 368  420.0797
 369  354.5363
 370  306.4454
 371  318.949
 372  433.2663
 373  463.3135
 374  553.3258
 375  715.9709
 376  853.936
 377  874.5446
 378  773.4653
 379  807.7738
 380  933.248
 381  1002.359
 382  1068.388
 383  1062.847
 384  1070.679
 385  967.5581
 386  936.2852
 387  913.416
 388  929.1746
 389  822.8682
 390  850.7715
 391  982.6747
 392  1207.166
 393  1287.924
 394  1202.419
 395  1128.358
 396  1004.855
 397  830.3159
 398  789.9819
 399  898.6937
 400  1051.109
 401  979.1111
 402  852.679
 403  732.4638
 404  796.4872
 405  881.9863
 406  986.8184
 407  1062.678
 408  1038.573
 409  957.4138
 410  987.2406
 411  980.1028
 412  964.5876
 413  1076.564
 414  1258.93
 415  1267.559
 416  1210.915
 417  1045.396
 418  1035.105
 419  1061.682
 420  1147.169
 421  1152.136
 422  1212.825
 423  1289.557
 424  1389.541
 425  1503.253
 426  1571.787
 427  1639.133
 428  1633.465
 429  1721.946
 430  1678.444
 431  1560.043
 432  1525.743
 433  1553.172
 434  1614.947
 435  1657.51
 436  1699.918
 437  1714.867
 438  1551.954
 439  1492.361
 440  1454.846
 441  1461.703
 442  1619.731
 443  1708.472
 444  1795.42
 445  1625.899
 446  1583.635
 447  1602.667
 448  1494.496
 449  1441.089
 450  1502.764
 451  1573.597
 452  1511.881
 453  1500.519
 454  1516.334
 455  1544.055
 456  1439.752
 457  1274.874
 458  1202.634
 459  1174.271
 460  1341.34
 461  1394.276
 462  1504.232
 463  1487.462
 464  1438.435
 465  1188.121
 466  1114.329
 467  1050.907
 468  1049.444
 469  991.5439
 470  849.8678
 471  758.8887
 472  678.6215
 473  781.5489
 474  870.7017
 475  948.4468
 476  972.0255
 477  937.8989
 478  884.2673
 479  917.6881
 480  903.3705
 481  930.1626
 482  955.7079
 483  895.1783
 484  763.1647
 485  652.9965
 486  729.8866
 487  709.0132
 488  748.8755
 489  751.4023
 490  772.1127
 491  778.5033
 492  783.8657
 493  808.9537
 494  869.7098
 495  890.2431
 496  977.3032
 497  1047.52
 498  996.1096
 499  889.9733
 500  805.4302
 501  844.5258
 502  805.5794
 503  800.6341
 504  838.0842
 505  851.4468
 506  878.3865
 507  926.2373
 508  1011.737
 509  983.2333
 510  973.8994
 511  810.7745
 512  714.4971
 513  631.6506
 514  561.4815
 515  548.2736
 516  554.6411
 517  550.782
 518  611.0667
 519  623.1521
 520  603.3644
 521  561.7289
 522  578.8212
 523  643.3518
 524  751.9708
 525  821.6118
 526  861.3322
 527  757.2946
 528  514.1829
 529  363.2245
 530  365.3664
 531  527.231
 532  618.9997
 533  613.2164
 534  673.6656
 535  727.046
 536  750.1697
 537  669.8255
 538  625.222
 539  709.7391
 540  752.143
 541  770.0643
 542  833.3582
 543  793.7175
 544  862.14
 545  878.2609
 546  946.5501
 547  972.2804
 548  888.0184
 549  789.657
 550  770.2743
 551  795.317
 552  921.7222
 553  898.44
 554  892.8681
 555  835.8132
 556  1024.988
 557  1128.758
 558  1255.652
 559  1240.974
 560  1306.161
 561  1285.222
 562  1332.176
 563  1318.611
 564  1252.625
 565  1334.208
 566  1428.457
 567  1410.231
 568  1277.018
 569  1238.434
 570  1231.219
 571  1304.146
 572  1354.245
 573  1327.74
 574  1259.053
 575  1171.602
 576  1287.827
 577  1374.256
 578  1356.242
 579  1422.163
 580  1399.708
 581  1444.36
 582  1458.383
 583  1438.074
 584  1356.97
 585  1366.956
 586  1489.001
 587  1620.17
 588  1497.024
 589  1491.287
 590  1326.563
 591  1224.563
 592  1284.658
 593  1458.921
 594  1667.713
 595  1680.118
 596  1611.57
 597  1527.226
 598  1540.756
 599  1616.741
 600  1734.329
 601  1911.73
 602  1988.457
 603  1939.114
 604  1878.426
 605  1846.331
 606  1923.413
 607  1968.158
 608  1937.658
 609  1930.184
 610  1767.023
 611  1637.479
 612  1291.844
 613  1320.278
 614  1367.085
 615  1344.677
 616  1125.121
 617  946.9321
 618  929.4941
 619  799.988
 620  951.842
 621  967.6506
 622  1031.398
 623  891.3195
 624  922.2259
 625  978.4868
 626  1012.106
 627  978.5104
 628  1021.368
 629  1092.504
 630  1101.181
 631  949.5892
 632  861.3217
 633  984.431
 634  1049.208
 635  1060.125
 636  981.9432
 637  1070.828
 638  1038.946
 639  957.0645
 640  899.4506
 641  866.3067
 642  783.6423
 643  718.4783
 644  786.6426
 645  838.7439
 646  796.99
 647  699.5562
 648  631.7759
 649  696.3538
 650  684.6888
 651  678.7085
 652  657.5477
 653  685.7808
 654  780.799
 655  727.5004
 656  572.7183
 657  460.3108
 658  548.0615
 659  577.2935
 660  503.6735
 661  537.1451
 662  600.7177
 663  635.3572
 664  653.4156
 665  707.7655
 666  640.8528
 667  544.5326
 668  491.2504
 669  465.3075
 670  442.4066
 671  352.8398
 672  398.6076
 673  413.3715
 674  419.7283
 675  458.7292
 676  540.9058
 677  484.0117
 678  527.6707
 679  562.2787
 680  536.895
 681  594.6039
 682  690.6019
 683  650.7851
 684  541.6505
 685  561.448
 686  809.8446
 687  871.8443
 688  807.3288
 689  689.0563
 690  707.3557
 691  838.6364
 692  806.3186
 693  788.9833
 694  785.6337
 695  728.5999
 696  802.5339
 697  850.6854
 698  944.0601
 699  876.0245
 700  846.6418
 701  887.9011
 702  972.8719
 703  1008.816
 704  936.0822
 705  879.3315
 706  886.3828
 707  1020.714
 708  1123.489
 709  1147.675
 710  1152.219
 711  1160.214
 712  1192.062
 713  1179.562
 714  1156.717
 715  1135.322
 716  1174.696
 717  1207.082
 718  1160.091
 719  1159.552
 720  1205.962
 721  1234.203
 722  1105.769
 723  1128.237
 724  1097.558
 725  1093.544
 726  1076.753
 727  1063.14
 728  1015.775
 729  987.4322
 730  963.83
 731  1082.618
 732  1051.455
 733  1037.03
 734  1116.825
 735  1054.913
 736  1062.667
 737  1026.251
 738  1123.509
 739  1100.327
 740  1046.542
 741  1054.037
 742  1069.308
 743  1076.992
 744  1104.021
 745  987.6273
 746  938.0854
 747  968.7004
 748  1048.167
 749  882.3337
 750  802.0925
 751  893.577
 752  1135.548
 753  1148.308
 754  988.0822
 755  903.3357
 756  1014.954
 757  988.3646
 758  1042.322
 759  1031.837
 760  919.9413
 761  857.8499
 762  915.8234
 763  906.4888
 764  727.4626
 765  566.2908
 766  687.7673
 767  854.4182
 768  909.4291
 769  735.1696
 770  658.4427
 771  699.9499
 772  735.5464
 773  684.272
 774  702.1754
 775  730.9842
 776  747.6147
 777  695.9104
 778  645.6886
 779  441.5001
 780  400.7305
 781  395.9551
 782  526.9007
 783  547.3806
 784  542.6947
 785  532.7739
 786  496.282
 787  434.8409
 788  445.4848
 789  442.9337
 790  453.6445
 791  419.3017
 792  507.7648
 793  475.5689
 794  548.9428
 795  678.6799
 796  819.3321
 797  703.1802
 798  561.408
 799  560.686
 800  529.6135
 801  603.0403
 802  604.5971
 803  586.8212
 804  419.1896
 805  403.765
 806  362.4552
 807  485.9328
 808  369.0908
 809  400.6525
 810  329.1116
 811  416.1271
 812  454.8105
 813  374.0279
 814  316.4837
 815  354.1603
 816  439.0354
 817  400.2522
 818  369.0275
 819  446.9363
 820  475.1848
 821  458.172
 822  423.7528
 823  269.8103
 824  153.9806
 825  147.761
 826  300.659
 827  520.5297
 828  634.0314
 829  641.8919
 830  630.3056
 831  597.1301
 832  550.2028
 833  525.2673
 834  480.8734
 835  435.3097
 836  423.2697
 837  411.9418
 838  403.6402
 839  478.0875
 840  569.5869
 841  575.094
 842  521.5118
 843  529.8334
 844  676.3361
 845  673.4816
 846  637.6323
 847  558.3072
 848  712.0557
 849  777.4716
 850  833.9556
 851  846.4562
 852  844.9093
 853  909.3251
 854  916.2721
 855  877.6008
 856  786.9632
 857  810.8345
 858  887.6373
 859  912.0674
 860  965.7166
 861  1024.296
 862  1091.51
 863  991.944
 864  950.6054
 865  973.1505
 866  1180.637
 867  1197.751
 868  1253.073
 869  1103.017
 870  1135.645
 871  1061.62
 872  1025.52
 873  958.7878
 874  889.4569
 875  873.3588
 876  934.2096
 877  934.9147
 878  1007.545
 879  997.9297
 880  1096.551
 881  1101.107
 882  1027.223
 883  976.7158
 884  1110.867
 885  1197.784
 886  1194.173
 887  1102.849
 888  1115.584
 889  1065.068
 890  976.7275
 891  909.1799
 892  943.9742
 893  957.1835
 894  979.5629
 895  953.7613
 896  982.8673
 897  866.722
 898  811.5819
 899  876.6952
 900  950.754
 901  936.0693
 902  789.203
 903  750.06
 904  700.7176
 905  871.5154
 906  891.1424
 907  809.778
 908  744.1393
 909  686.8847
 910  706.9615
 911  654.2213
 912  593.145
 913  571.2135
 914  643.4695
 915  740.674
 916  658.8692
 917  575.3869
 918  643.1714
 919  732.6723
 920  696.9866
 921  598.2162
 922  458.4301
 923  402.9609
 924  461.4266
 925  483.9088
 926  553.7274
 927  582.5987
 928  476.8291
 929  397.7292
 930  439.2697
 931  452.6269
 932  506.7713
 933  575.1707
 934  646.4806
 935  656.6898
 936  685.5914
 937  766.0651
 938  693.9336
 939  563.8245
 940  585.9244
 941  583.3433
 942  421.7409
 943  410.5435
 944  415.9474
 945  534.541
 946  505.1064
 947  477.0878
 948  396.8221
 949  238.1514
 950  243.4128
 951  198.0795
 952  326.8608
 953  328.8794
 954  400.1362
 955  357.0352
 956  337.2379
 957  325.7323
 958  376.3345
 959  281.4572
 960  293.7095
 961  192.9507
 962  226.4085
 963  321.6183
 964  344.053
 965  435.1915
 966  471.9737
 967  466.9216
 968  407.6729
 969  446.3189
 970  452.0006
 971  425.765
 972  294.6324
 973  253.0531
 974  315.9152
 975  348.9023
 976  335.9603
 977  198.979
 978  220.2489
 979  272.6634
 980  307.794
 981  327.8708
 982  318.8802
 983  381.4348
 984  437.9187
 985  482.48
 986  390.6202
 987  466.9583
 988  433.9754
 989  546.3551
 990  475.3852
 991  407.1729
 992  289.1887
 993  341.7953
 994  460.2729
 995  602.9862
 996  710.7704
 997  847.2657
 998  820.3568
 999  702.0614
1000  691.6755
1001  801.5025
1002  1039.004
1003  944.6556
1004  827.998
1005  864.5074
1006  954.594
1007  942.6284
1008  924.6185
1009  989.7452
1010  1012.447
1011  1033.956
1012  1059.94
1013  1057.686
1014  1066.772
1015  1145.143
1016  1194.776
1017  1232.462
1018  1120.583
1019  1158.749
1020  1163.041
1021  1177.293
1022  1228.3
1023  1214.811
