# Input file       =  1206085431.110653_cleaned.dat
# Candidate        =  PSR_0332+5434
# Telescope        =  AR
# Epoch_topo       =  58203.322339243670
# Epoch_bary       =  N/A
# T_sample         =  0.002
# Data Folded      =  7208960
# Data Avg         =  0.468724663662513
# Data StdDev      =  5.84154512039751 
# Profile Bins     =  512
# Profile Avg      =  6599.44332334723 
# Profile StdDev   =  693.152929347089 
# Reduced chi-sqr  =  2.374
# Prob(Noise)      <  5.54e-59   (~16.2 sigma)
# P_topo (ms)      =  714.572769926372  +/- 2.04e-05
# P'_topo (s/s)    =  -0                +/- 1.1e-11
# P''_topo (s/s^2) =  0                 +/- 4.94e-15
# P_bary (ms)      =  N/A
# P'_bary (s/s)    =  N/A
# P''_bary (s/s^2) =  N/A
# P_orb (s)        =  N/A
# asin(i)/c (s)    =  N/A
# eccentricity     =  N/A
# w (rad)          =  N/A
# T_peri           =  N/A
######################################################
   0  6565.853
   1  6071.991
   2  6545.016
   3  6953.354
   4  7330.948
   5  6880.005
   6  6073.602
   7  6220.573
   8  6165.088
   9  6063.582
  10  6397.189
  11  7331.887
  12  7556
  13  6718.286
  14  6499.103
  15  6632.479
  16  6353.223
  17  5684.94
  18  6244.699
  19  6813.77
  20  7125.317
  21  6607.388
  22  5389.835
  23  5221.625
  24  5335.098
  25  5448.314
  26  5718.731
  27  6906.51
  28  7324.519
  29  7015.331
  30  6194.558
  31  5502.513
  32  5982.239
  33  5701.3
  34  5560.9
  35  6337.096
  36  7031.97
  37  6640.704
  38  5603.176
  39  5450.469
  40  5556.042
  41  5697.333
  42  5648.17
  43  6437.766
  44  7260.985
  45  7161.275
  46  6454.513
  47  5580.268
  48  5929.502
  49  5867.774
  50  5920.731
  51  6043.32
  52  6551.423
  53  6916.137
  54  6104.589
  55  5320.458
  56  5392.029
  57  5701.803
  58  5629.719
  59  5778.246
  60  6650.856
  61  7300.489
  62  7099.999
  63  6274.596
  64  5780.263
  65  6063.181
  66  5892.758
  67  5981.305
  68  6117.209
  69  6791.744
  70  7029.199
  71  6752.043
  72  6121.179
  73  5981.083
  74  5954.259
  75  5932.625
  76  6502.9
  77  7276.327
  78  7727.041
  79  7608.865
  80  6777.835
  81  6772.491
  82  6921.06
  83  6813.963
  84  6189.694
  85  7101.896
  86  7973.407
  87  7483.708
  88  7050.741
  89  6669.865
  90  6687.528
  91  6664.249
  92  6299.329
  93  7540.618
  94  7827.723
  95  7813.062
  96  7099.805
  97  6910.746
  98  6723.21
  99  6498.968
 100  6542.962
 101  7021.719
 102  7352.961
 103  7088.606
 104  6413.206
 105  5628.618
 106  5697.311
 107  6027.018
 108  6176.662
 109  6612.147
 110  7752.347
 111  8065.172
 112  7029.31
 113  6401.516
 114  6328.403
 115  6634.794
 116  6311.676
 117  6380.17
 118  6918.957
 119  7327.849
 120  7231.84
 121  6088.636
 122  5747.673
 123  5747.138
 124  5677.861
 125  6160.53
 126  6881.957
 127  7271.18
 128  7221.435
 129  6403.914
 130  6221.577
 131  5987.125
 132  5622.429
 133  5726.257
 134  5779.48
 135  6797.766
 136  6883.603
 137  5906.404
 138  5526.903
 139  5001.425
 140  5167.163
 141  5138.309
 142  6165.157
 143  7074.753
 144  7484.143
 145  6559.513
 146  5396.538
 147  5166.414
 148  5163.625
 149  5217.625
 150  5477.846
 151  6117.037
 152  6948.209
 153  6531.783
 154  5266.292
 155  4870.919
 156  5110.298
 157  4979.625
 158  5449.396
 159  6402.474
 160  7124.321
 161  7412.198
 162  6918.435
 163  6120.106
 164  6032.771
 165  5919.775
 166  5919.974
 167  6295.437
 168  6727.335
 169  6964.648
 170  6552.775
 171  5893.623
 172  5330.267
 173  5185.099
 174  5337.732
 175  6415.324
 176  7328.253
 177  7595.826
 178  7405.475
 179  6876.32
 180  6544.837
 181  6163.063
 182  6094.726
 183  6306.676
 184  7044.337
 185  7689.385
 186  7312.665
 187  6600.746
 188  6127.642
 189  6508.238
 190  6149.199
 191  6215.943
 192  6945.733
 193  7681.917
 194  7525.479
 195  7293.342
 196  6719.64
 197  6498.678
 198  6904.916
 199  6628.625
 200  7060.292
 201  7609.61
 202  7484.998
 203  7043.862
 204  6259.876
 205  6523.43
 206  6572.73
 207  6487.362
 208  6789.176
 209  7396.887
 210  8241.842
 211  7560.228
 212  7180.649
 213  6742.592
 214  6848.019
 215  6349.792
 216  6613.969
 217  7248.999
 218  7994.606
 219  7705.043
 220  6592.074
 221  6395.279
 222  6395.743
 223  6187.478
 224  6555.582
 225  7627.582
 226  8365.08
 227  8091.194
 228  7529.032
 229  6569.4
 230  6422.601
 231  6535.558
 232  6312.796
 233  6779.596
 234  7163.689
 235  7221.675
 236  6357.753
 237  5940.125
 238  5865.553
 239  5679.236
 240  5500.18
 241  6527.586
 242  7153.521
 243  7665.084
 244  7310.631
 245  6651.257
 246  6079.829
 247  5985.943
 248  5925.223
 249  5821.319
 250  6234.784
 251  6947.729
 252  6553.131
 253  5642.585
 254  5360.628
 255  5279.743
 256  5062.021
 257  5264.218
 258  6292.503
 259  7043.398
 260  6799.99
 261  6860.678
 262  6019.332
 263  5570.223
 264  5262.144
 265  5995.246
 266  6488.803
 267  6669.446
 268  6943.326
 269  6068.847
 270  5624.293
 271  5715.99
 272  5606.53
 273  5405.757
 274  6303.961
 275  7314.615
 276  7232.801
 277  6733.286
 278  6375.303
 279  6476.14
 280  6458.246
 281  6202.127
 282  6090.958
 283  6621.135
 284  6924.781
 285  6922.874
 286  6553.538
 287  5780.116
 288  5879.958
 289  6184.428
 290  6397.369
 291  6827.499
 292  7299.593
 293  7674.597
 294  7296.379
 295  6521.896
 296  6381.704
 297  6520.257
 298  6504.737
 299  6552.391
 300  7185.283
 301  7626.878
 302  7053.613
 303  6192.137
 304  6241.523
 305  6069.82
 306  6422.673
 307  7325.473
 308  8183.56
 309  8181.74
 310  7652.634
 311  7042.423
 312  6559.235
 313  6175.533
 314  6091.701
 315  6661.92
 316  7223.727
 317  7533.794
 318  7234.402
 319  6397.418
 320  5970.507
 321  5503.379
 322  5580.998
 323  6197.304
 324  6834.463
 325  7788.847
 326  7641.975
 327  6958.557
 328  6117.512
 329  5830.209
 330  6055.944
 331  5822.226
 332  6303.726
 333  6749.508
 334  6956.133
 335  6466.432
 336  5781.949
 337  5558.064
 338  5453.009
 339  5253.626
 340  5606.586
 341  6661.326
 342  7264.652
 343  6804.821
 344  5842.646
 345  5725.452
 346  5555.408
 347  5730.127
 348  5689.909
 349  6319.568
 350  6601.099
 351  6230.508
 352  4954.345
 353  4959.505
 354  5366.396
 355  5567.237
 356  5960.586
 357  6491.88
 358  6846.775
 359  6892.675
 360  6267.57
 361  5772.664
 362  5687.164
 363  5303.342
 364  5239.111
 365  6024.34
 366  6592.532
 367  6338.312
 368  6106.881
 369  5829.053
 370  5490.256
 371  5541.048
 372  5528.33
 373  5695.248
 374  6991.218
 375  7561.617
 376  7312.742
 377  6941.605
 378  6612.38
 379  6269.56
 380  6527.177
 381  6829.532
 382  7036.988
 383  7533.491
 384  7180.272
 385  6525.727
 386  6236.016
 387  6288.437
 388  6312.023
 389  6647.164
 390  7439.043
 391  8257.12
 392  8357.271
 393  7776.185
 394  7449.827
 395  7153.722
 396  6995.425
 397  7004.964
 398  7374.667
 399  8119.49
 400  8453.742
 401  8113.941
 402  7354.187
 403  6912.861
 404  6734.042
 405  6554.442
 406  6832.005
 407  8240.544
 408  8805.274
 409  8617.14
 410  8231.056
 411  8440.273
 412  8869.181
 413  8813.137
 414  8468.889
 415  8581.192
 416  8517.174
 417  7748.138
 418  7153.387
 419  6512.325
 420  6759.864
 421  6733.005
 422  6846.909
 423  7325.115
 424  8034.283
 425  8435.22
 426  7944.443
 427  6975.603
 428  6786.446
 429  6997.069
 430  7055.958
 431  6919.554
 432  7301.294
 433  7376.201
 434  6863.174
 435  6224.598
 436  5911.552
 437  5926.941
 438  6487.582
 439  6548.192
 440  7558.61
 441  8006.875
 442  7455.146
 443  6891.499
 444  6441.432
 445  6512.244
 446  6458.087
 447  6490.298
 448  7038.802
 449  7230.719
 450  7368.576
 451  6792.162
 452  6278.933
 453  6026.309
 454  6043.636
 455  6238.032
 456  7047.179
 457  7750.997
 458  7865.942
 459  7445.38
 460  6561.438
 461  6732.602
 462  6513.002
 463  6462.744
 464  6798.692
 465  7330.676
 466  7377.369
 467  6830.705
 468  6406.929
 469  5777.959
 470  5836.419
 471  6074.783
 472  6664.609
 473  7739.318
 474  8586.499
 475  7925.168
 476  6888.592
 477  6395.076
 478  6650.569
 479  6631.658
 480  6364.194
 481  6889.845
 482  7480.229
 483  7112.126
 484  6552.901
 485  6101.858
 486  6125.829
 487  6215.449
 488  6280.477
 489  7201.593
 490  7672.976
 491  7943.697
 492  7209.269
 493  6567.321
 494  6274.34
 495  6181.191
 496  6330.597
 497  6273.165
 498  7095.661
 499  7573.254
 500  7030.059
 501  6475.57
 502  6233.245
 503  5896.204
 504  5781.059
 505  5793.758
 506  7105.374
 507  7796.265
 508  7416.864
 509  7014.495
 510  6639.186
 511  6586.658
