# Input file       =  1206444813.112411_cleaned.dat
# Candidate        =  PSR_0332+5434
# Telescope        =  AR
# Epoch_topo       =  58207.481853152902
# Epoch_bary       =  N/A
# T_sample         =  0.002
# Data Folded      =  7340032
# Data Avg         =  0.591438275927171
# Data StdDev      =  6.17327019222834 
# Profile Bins     =  1024
# Profile Avg      =  4239.23333429899 
# Profile StdDev   =  522.65400654861  
# Reduced chi-sqr  =  0.532
# Prob(Noise)      <  1   (~0.0 sigma)
# P_topo (ms)      =  714.570537217296  +/- 0.000765
# P'_topo (s/s)    =  -0                +/- 4.04e-10
# P''_topo (s/s^2) =  0                 +/- 1.78e-13
# P_bary (ms)      =  N/A
# P'_bary (s/s)    =  N/A
# P''_bary (s/s^2) =  N/A
# P_orb (s)        =  N/A
# asin(i)/c (s)    =  N/A
# eccentricity     =  N/A
# w (rad)          =  N/A
# T_peri           =  N/A
######################################################
   0  4238.468
   1  4298.085
   2  4282.817
   3  4147.316
   4  4025.292
   5  3929.291
   6  3885.981
   7  3933.478
   8  4021.766
   9  4020.97
  10  3986.84
  11  4143.625
  12  4180.292
  13  4163.299
  14  4116.948
  15  4108.39
  16  4181.97
  17  4184.07
  18  3998.435
  19  3858.018
  20  3787.373
  21  3774.238
  22  3878
  23  3824.103
  24  3873.505
  25  3890.892
  26  4003.954
  27  3991.765
  28  3841.994
  29  3708.085
  30  3815.259
  31  3914.829
  32  3937.501
  33  3963.308
  34  3966.978
  35  3856.894
  36  3794.237
  37  3913.355
  38  3987.267
  39  4074.506
  40  3943.438
  41  3831.948
  42  3887.312
  43  4076.393
  44  4119.594
  45  3963.334
  46  3964.77
  47  4101.231
  48  4291.981
  49  4225.58
  50  4099.182
  51  4024.847
  52  4145.832
  53  4185.85
  54  4264.179
  55  4342.881
  56  4223.216
  57  4037.973
  58  3882.061
  59  3963.958
  60  4045.878
  61  4144.941
  62  4204.154
  63  4276.108
  64  4265.264
  65  4125.726
  66  4134.737
  67  4179.937
  68  4214.521
  69  4273.153
  70  4242.912
  71  4202.321
  72  3917.686
  73  3931.902
  74  3913.459
  75  3897.418
  76  3836.405
  77  3857.012
  78  4073.316
  79  4156.793
  80  4191.457
  81  4241.463
  82  4209.433
  83  4212.899
  84  4208.37
  85  4231.428
  86  4379.091
  87  4409.891
  88  4402.391
  89  4389.287
  90  4387.526
  91  4400.376
  92  4137.833
  93  4102.831
  94  4080.22
  95  4217.412
  96  4167.739
  97  4256.742
  98  4358.194
  99  4271.878
 100  4188.789
 101  4081.536
 102  4269.018
 103  4296.098
 104  4345.729
 105  4289.987
 106  4148.402
 107  4110.196
 108  4099.86
 109  4071.062
 110  3997.613
 111  3868.525
 112  3919.789
 113  4052.066
 114  4149.953
 115  4141.94
 116  4163.794
 117  4245.226
 118  4147.58
 119  4144.479
 120  4228.814
 121  4335.123
 122  4282.731
 123  4101.02
 124  4052.24
 125  4063.595
 126  3965.278
 127  3948.339
 128  3963.979
 129  4044.505
 130  3964.714
 131  3970.173
 132  3929.567
 133  3904.444
 134  4069.517
 135  4168.399
 136  4303.247
 137  4252.514
 138  4260.918
 139  4166.516
 140  4146.447
 141  4075.16
 142  4157.884
 143  4137.456
 144  4078.553
 145  4065.75
 146  3933.037
 147  3850.199
 148  3857.354
 149  3980.497
 150  3985.104
 151  3983.61
 152  3965.253
 153  3954.199
 154  4050.299
 155  3993.731
 156  4042.345
 157  4119.274
 158  4134.634
 159  4172.432
 160  4196.584
 161  4169.665
 162  3949.967
 163  4050.358
 164  4126.195
 165  4051.019
 166  3934.914
 167  3925.667
 168  4037.526
 169  4093.802
 170  4044.258
 171  4096.893
 172  4208.167
 173  4193.937
 174  4198.34
 175  4081.115
 176  4072.417
 177  4040.909
 178  4016.487
 179  4024.537
 180  3957.009
 181  3971.291
 182  4039.893
 183  4089.174
 184  4072.824
 185  4162.302
 186  4278.766
 187  4303.921
 188  4261.73
 189  4193.558
 190  4213.545
 191  4286.803
 192  4321.752
 193  4333.972
 194  4409.011
 195  4439.971
 196  4393.64
 197  4257.987
 198  4164.049
 199  4115.618
 200  4240.476
 201  4232.055
 202  4214.968
 203  4188.371
 204  4048.961
 205  4071.868
 206  4152.186
 207  4325.091
 208  4240.265
 209  4190.232
 210  4141.172
 211  4139.645
 212  4231.622
 213  4305.267
 214  4468.226
 215  4517.175
 216  4483.13
 217  4337.969
 218  4317.516
 219  4376.355
 220  4410.947
 221  4259.232
 222  4168.009
 223  4233.132
 224  4270.127
 225  4322.375
 226  4313.614
 227  4423.517
 228  4426.856
 229  4473.628
 230  4403.105
 231  4324.239
 232  4246.276
 233  4313.503
 234  4414.532
 235  4327.493
 236  4240.805
 237  4072.159
 238  3980.859
 239  3980.634
 240  4025.497
 241  4042.639
 242  4032.257
 243  4087.079
 244  4146.745
 245  4206.841
 246  4182.813
 247  4269.445
 248  4187.75
 249  4077.607
 250  3992.626
 251  4138.865
 252  4152.392
 253  4104.073
 254  3976.982
 255  3921.399
 256  3911.185
 257  4063.506
 258  4163.077
 259  4208.581
 260  4255.686
 261  4216.045
 262  4230.271
 263  4178.682
 264  4280.051
 265  4348.192
 266  4385.589
 267  4364.02
 268  4350.1
 269  4329.379
 270  4323.709
 271  4340.826
 272  4146.32
 273  4197.15
 274  4319.935
 275  4377.119
 276  4194.557
 277  4254.495
 278  4322.199
 279  4503.996
 280  4524.757
 281  4439.439
 282  4385.783
 283  4294.076
 284  4376.657
 285  4335.772
 286  4351.023
 287  4272.711
 288  4307.805
 289  4378.257
 290  4357.977
 291  4347.162
 292  4335.841
 293  4354.899
 294  4514.154
 295  4491.059
 296  4369.947
 297  4273.572
 298  4320.948
 299  4426.891
 300  4434.658
 301  4290.763
 302  4167.712
 303  4100.952
 304  4187.865
 305  4242.432
 306  4253.963
 307  4133.944
 308  4135.512
 309  4094.196
 310  4040.785
 311  3894.259
 312  3845.146
 313  3827.226
 314  3814.131
 315  3713.39
 316  3737.997
 317  3763.631
 318  3836.111
 319  3944.252
 320  3968.683
 321  4059.525
 322  3953.315
 323  4055.897
 324  3983.064
 325  4072.39
 326  4172.361
 327  4170.636
 328  4084.171
 329  4011.927
 330  3987.068
 331  4084.143
 332  4160.585
 333  4259.321
 334  4366.863
 335  4216.341
 336  4143.418
 337  4127.245
 338  4308.604
 339  4232.305
 340  4368.619
 341  4300.969
 342  4114.803
 343  3972.863
 344  3901.985
 345  4032.693
 346  4067.335
 347  4002.537
 348  4142.88
 349  4129.732
 350  4107.665
 351  4113.565
 352  4209.578
 353  4214.291
 354  4134.205
 355  4012.857
 356  3838.389
 357  3795.659
 358  3845.833
 359  3998.277
 360  4059.344
 361  4023.466
 362  3925.174
 363  3983.633
 364  4080.826
 365  4147.126
 366  4041.062
 367  3971.074
 368  3907.175
 369  3877.05
 370  3774.147
 371  3848.911
 372  3933.785
 373  4098.368
 374  4073.56
 375  4152.042
 376  4165.384
 377  4214.713
 378  4260.948
 379  4189.284
 380  4220.998
 381  4310.688
 382  4463.865
 383  4408.207
 384  4210.174
 385  4145.949
 386  4203.201
 387  4400.299
 388  4356.727
 389  4403.608
 390  4312.617
 391  4344.563
 392  4377.526
 393  4442.255
 394  4398.68
 395  4366.124
 396  4305.071
 397  4305.077
 398  4172.652
 399  4126.639
 400  4021.7
 401  4043.736
 402  4056.482
 403  4219.999
 404  4187.501
 405  4199.879
 406  4292.604
 407  4556.044
 408  4627.457
 409  4489.192
 410  4402.686
 411  4445.499
 412  4284.717
 413  4207.91
 414  4145.938
 415  4244.601
 416  4391.255
 417  4515.189
 418  4464.517
 419  4270.743
 420  4310.158
 421  4374.055
 422  4400.609
 423  4324.859
 424  4319.929
 425  4288.251
 426  4168.682
 427  4090.902
 428  3995.182
 429  4154.709
 430  4254.238
 431  4346.792
 432  4310.573
 433  4279.242
 434  4397.098
 435  4454.501
 436  4386.245
 437  4270.924
 438  4173.524
 439  4147.911
 440  4119.368
 441  4175.555
 442  4165.683
 443  4261.881
 444  4139.206
 445  4137.989
 446  4070.844
 447  4081.452
 448  4180.076
 449  4340.577
 450  4312.012
 451  4293.906
 452  4324.225
 453  4359.233
 454  4240.755
 455  4141.141
 456  4140.44
 457  4220.507
 458  4080.536
 459  4006.681
 460  4022.96
 461  4076.266
 462  3972.355
 463  4035.57
 464  4057.722
 465  4085.239
 466  4139.801
 467  4133.046
 468  4243.521
 469  4258.762
 470  4414.016
 471  4432.562
 472  4299.081
 473  4132.489
 474  4110.779
 475  4146.086
 476  4081.607
 477  4113.642
 478  4196.537
 479  4275.348
 480  4174.722
 481  4110.268
 482  4140.594
 483  4204.839
 484  4244.64
 485  4366.734
 486  4503.895
 487  4340.145
 488  4319.367
 489  4256.065
 490  4307.399
 491  4258.166
 492  4260.489
 493  4328.592
 494  4303.132
 495  4247.558
 496  4132.333
 497  4250.829
 498  4375.328
 499  4331.809
 500  4329.87
 501  4283.984
 502  4254.359
 503  4279.762
 504  4352.828
 505  4364.918
 506  4277.957
 507  4242.71
 508  4295.455
 509  4422.952
 510  4333.295
 511  4305.288
 512  4229.985
 513  4266.064
 514  4283.146
 515  4393.994
 516  4232.486
 517  4115.683
 518  4118.887
 519  4256.896
 520  4051.676
 521  3991.802
 522  4029.488
 523  4184.159
 524  4054.727
 525  4044.151
 526  4074.199
 527  4191.147
 528  4308.626
 529  4332.923
 530  4086.951
 531  3974.383
 532  3834.771
 533  3991.843
 534  4060.58
 535  4249.676
 536  4276.917
 537  4189.832
 538  4221.802
 539  4217.19
 540  4328.259
 541  4419.041
 542  4407.417
 543  4295.196
 544  4362.795
 545  4407.744
 546  4426.018
 547  4328.019
 548  4337.719
 549  4214.417
 550  4127.305
 551  4074.286
 552  4173.698
 553  4176.888
 554  4170.633
 555  4217.105
 556  4228.591
 557  4238.568
 558  4220.415
 559  4182.537
 560  4255.768
 561  4182.984
 562  4270.833
 563  4242.292
 564  4166.017
 565  4133.117
 566  4252.427
 567  4205.499
 568  4268.373
 569  4178.723
 570  4216.249
 571  4239.57
 572  4339.253
 573  4318.111
 574  4455.483
 575  4529.946
 576  4472.036
 577  4367.795
 578  4256.36
 579  4248.005
 580  4294.462
 581  4368.117
 582  4441.146
 583  4473.068
 584  4389.858
 585  4396.808
 586  4413.429
 587  4375.887
 588  4330.14
 589  4248.919
 590  4386.301
 591  4526.351
 592  4501.347
 593  4354.936
 594  4340.494
 595  4311.871
 596  4361.37
 597  4352.864
 598  4643.791
 599  4787.307
 600  5021.849
 601  5135.337
 602  5232.346
 603  5299.854
 604  5265.713
 605  5283.914
 606  5278.417
 607  5217.077
 608  5198.896
 609  5037.334
 610  4779.221
 611  4487.546
 612  4263.689
 613  4214.024
 614  4221.899
 615  4320.389
 616  4269.451
 617  4198.706
 618  4306.986
 619  4312.023
 620  4504.542
 621  4508.016
 622  4511.994
 623  4480.677
 624  4430.062
 625  4445.708
 626  4439.395
 627  4402.013
 628  4366.577
 629  4323.866
 630  4355.148
 631  4489.655
 632  4540.073
 633  4644.104
 634  4660.1
 635  4822.998
 636  4894.583
 637  4799.908
 638  4601.773
 639  4461.294
 640  4428.53
 641  4330.215
 642  4282.58
 643  4296.012
 644  4454.085
 645  4500.474
 646  4543.29
 647  4496.421
 648  4452.276
 649  4354.636
 650  4350.719
 651  4474.327
 652  4512.124
 653  4495.575
 654  4327.759
 655  4385.392
 656  4281.34
 657  4114.7
 658  4118.145
 659  4203.453
 660  4256.882
 661  4169.942
 662  4147.668
 663  4313.367
 664  4422.354
 665  4441.84
 666  4409.932
 667  4356.244
 668  4367.163
 669  4361.571
 670  4331.236
 671  4341.138
 672  4351.974
 673  4494.974
 674  4537.353
 675  4567.026
 676  4471.781
 677  4381.146
 678  4364.366
 679  4291.03
 680  4358.717
 681  4437.413
 682  4460.179
 683  4374.626
 684  4173.883
 685  4262.688
 686  4318.269
 687  4276.141
 688  4113.512
 689  4163.529
 690  4273.374
 691  4459.793
 692  4510.716
 693  4481.119
 694  4426.105
 695  4244.06
 696  4151.251
 697  4269.132
 698  4310.609
 699  4338.746
 700  4228.075
 701  4272.866
 702  4341.162
 703  4321.519
 704  4351.156
 705  4386.458
 706  4456.524
 707  4433.711
 708  4439.327
 709  4329.655
 710  4319.891
 711  4400.913
 712  4486.658
 713  4429.94
 714  4373.261
 715  4265.933
 716  4282.897
 717  4302.263
 718  4490.57
 719  4510.224
 720  4465.367
 721  4362.624
 722  4384.766
 723  4385.221
 724  4388.727
 725  4303.387
 726  4493.723
 727  4353.9
 728  4275.916
 729  4240.559
 730  4347.03
 731  4192.644
 732  4000.271
 733  3970.403
 734  4135.174
 735  4270.43
 736  4310.155
 737  4270.32
 738  4228.297
 739  4218.043
 740  4311.809
 741  4294.401
 742  4232.191
 743  4157.496
 744  4018.651
 745  3993.351
 746  4004.84
 747  3999.336
 748  3962.335
 749  4048.08
 750  4068.076
 751  3981.426
 752  3891.072
 753  3883.078
 754  4056.336
 755  4062.347
 756  3993.25
 757  3965.735
 758  3955.807
 759  3977.965
 760  3969.957
 761  4014.664
 762  3908.628
 763  3849.52
 764  3946.094
 765  3929.662
 766  4049.938
 767  4111.929
 768  4181.325
 769  4157.291
 770  3911.699
 771  3799.515
 772  3826.665
 773  3896.297
 774  3898.017
 775  3862.941
 776  3873.656
 777  3819.84
 778  3749.842
 779  3689.162
 780  3781.896
 781  3870.657
 782  4014.368
 783  4065.16
 784  4141.632
 785  4123.09
 786  4211.266
 787  4192.675
 788  4138.674
 789  4092.97
 790  4203.183
 791  4280.081
 792  4186.981
 793  4039.885
 794  3927.352
 795  3884.311
 796  3811.87
 797  3857.953
 798  3975.28
 799  4101.859
 800  4150.443
 801  4216.887
 802  4228.344
 803  4248.389
 804  4309.185
 805  4125.67
 806  3923.513
 807  3783.333
 808  3763.843
 809  4032.878
 810  4164.314
 811  4228.038
 812  4200.572
 813  4204.306
 814  4240.002
 815  4230.1
 816  4256.224
 817  4255.833
 818  4354.633
 819  4385.081
 820  4396.284
 821  4383.214
 822  4481.935
 823  4566.42
 824  4632.995
 825  4543.384
 826  4533.452
 827  4543.238
 828  4580.651
 829  4608.799
 830  4492.979
 831  4563.572
 832  4424.49
 833  4462.422
 834  4413.62
 835  4542.333
 836  4496.472
 837  4518.396
 838  4323.521
 839  4314.108
 840  4308.421
 841  4261.798
 842  4342.406
 843  4306.605
 844  4291.846
 845  4180.833
 846  4121.255
 847  4074.313
 848  4040.611
 849  4154.758
 850  4194.546
 851  4256.204
 852  4235.285
 853  4303.913
 854  4290.951
 855  4299.522
 856  4374.933
 857  4439.661
 858  4402.99
 859  4334.716
 860  4219.152
 861  4255.747
 862  4210.836
 863  4252.678
 864  4179.369
 865  4230.688
 866  4352.488
 867  4362.564
 868  4317.06
 869  4437.867
 870  4506.067
 871  4538.148
 872  4564.482
 873  4575.789
 874  4602.829
 875  4490.352
 876  4408.846
 877  4347.237
 878  4568.067
 879  4606.85
 880  4574.095
 881  4499.842
 882  4514.845
 883  4642.115
 884  4683.973
 885  4478.26
 886  4321.546
 887  4200.692
 888  4292.929
 889  4476.451
 890  4625.593
 891  4733.211
 892  4665.136
 893  4522.188
 894  4410.487
 895  4459.435
 896  4491.612
 897  4453.403
 898  4450.099
 899  4444.141
 900  4442
 901  4320.078
 902  4329.939
 903  4466.85
 904  4566.903
 905  4471.056
 906  4389.843
 907  4303.698
 908  4295.487
 909  4280.906
 910  4341.35
 911  4353.592
 912  4393.177
 913  4316.352
 914  4331.269
 915  4260.011
 916  4255.37
 917  4318.547
 918  4392.098
 919  4414.91
 920  4414.234
 921  4529.546
 922  4443.679
 923  4386.953
 924  4383.875
 925  4428.453
 926  4360.042
 927  4368.139
 928  4417.182
 929  4457.774
 930  4381.731
 931  4315.964
 932  4378.646
 933  4341.605
 934  4331.611
 935  4322.913
 936  4280.167
 937  4245.854
 938  4116.73
 939  4076.989
 940  4122.744
 941  4319.467
 942  4463.128
 943  4397.275
 944  4266.639
 945  4209.115
 946  4222.729
 947  4268.942
 948  4277.544
 949  4213.923
 950  4174.053
 951  4047.545
 952  4075.149
 953  4155.959
 954  4166.844
 955  4163.487
 956  4168.066
 957  4159.915
 958  4145.243
 959  4182.609
 960  4204.552
 961  4289.99
 962  4276.44
 963  4221.087
 964  4193.669
 965  4282.942
 966  4396.792
 967  4347.245
 968  4168.992
 969  4069.786
 970  4178.113
 971  4258.115
 972  4342.711
 973  4446.168
 974  4466.932
 975  4408.565
 976  4348.477
 977  4253.654
 978  4312.225
 979  4124.644
 980  4243.107
 981  4210.657
 982  4201.82
 983  4243.753
 984  4315.809
 985  4455.038
 986  4537.644
 987  4546.016
 988  4423.149
 989  4381.498
 990  4417.235
 991  4397.311
 992  4476.025
 993  4459.007
 994  4567.005
 995  4493.875
 996  4373.668
 997  4356.188
 998  4439.633
 999  4443.25
1000  4413.233
1001  4317.961
1002  4428.463
1003  4537.791
1004  4619.01
1005  4542.229
1006  4460.828
1007  4518.727
1008  4490.963
1009  4487.444
1010  4435.437
1011  4365.9
1012  4346.264
1013  4300.302
1014  4326.729
1015  4315.972
1016  4278.633
1017  4183.627
1018  4138.151
1019  4199.924
1020  4218
1021  4187.154
1022  4139.978
1023  4067.188
