# Input file       =  1206430175.134664_cleaned.dat
# Candidate        =  PSR_0332+5434
# Telescope        =  AR
# Epoch_topo       =  58207.312432114166
# Epoch_bary       =  N/A
# T_sample         =  0.002
# Data Folded      =  7208960
# Data Avg         =  0.563270050787833
# Data StdDev      =  6.93853805231424 
# Profile Bins     =  512
# Profile Avg      =  7930.85709635591 
# Profile StdDev   =  823.321206499657 
# Reduced chi-sqr  =  1.476
# Prob(Noise)      <  1.27e-11   (~6.7 sigma)
# P_topo (ms)      =  714.570615161003  +/- 4.68e-05
# P'_topo (s/s)    =  -0                +/- 2.52e-11
# P''_topo (s/s^2) =  0                 +/- 1.13e-14
# P_bary (ms)      =  N/A
# P'_bary (s/s)    =  N/A
# P''_bary (s/s^2) =  N/A
# P_orb (s)        =  N/A
# asin(i)/c (s)    =  N/A
# eccentricity     =  N/A
# w (rad)          =  N/A
# T_peri           =  N/A
######################################################
   0  8226.071
   1  7937.364
   2  7940.002
   3  7367.907
   4  7478.16
   5  7867.759
   6  7576.012
   7  7154.349
   8  7250.913
   9  7833.793
  10  7553.391
  11  8143.461
  12  8804.064
  13  8696.052
  14  8589.811
  15  7967.377
  16  7883.537
  17  8414.147
  18  8305.12
  19  7413.908
  20  7327.709
  21  7826.645
  22  7656.069
  23  7425.833
  24  7537.142
  25  7917.65
  26  7974.53
  27  7860.536
  28  8300.506
  29  8904.001
  30  9290.698
  31  8457.235
  32  7786.252
  33  8077.225
  34  8306.549
  35  7371.72
  36  6578.27
  37  7119.406
  38  7307.472
  39  7016.946
  40  6623.145
  41  7162.99
  42  7545.294
  43  7797.562
  44  7916.5
  45  7846.209
  46  8809.43
  47  8688.71
  48  8158.881
  49  7361.459
  50  7350.419
  51  7634.203
  52  7850.566
  53  8044.32
  54  7532.856
  55  7805.127
  56  6937.92
  57  6350.437
  58  7119.098
  59  7612.935
  60  7339.978
  61  7687.34
  62  8552.724
  63  9137.771
  64  9238.691
  65  8857.746
  66  8274.08
  67  8380.319
  68  7941.502
  69  7452.316
  70  7960.666
  71  8217.268
  72  7495.704
  73  7057.88
  74  7584.681
  75  7997.428
  76  8085.464
  77  8549.461
  78  9015.207
  79  9522.522
  80  9033.53
  81  8554.109
  82  8943.064
  83  8346.158
  84  7951.245
  85  7792.446
  86  7430.366
  87  8057.168
  88  8374.151
  89  7787.792
  90  7479.718
  91  8013.595
  92  8317.918
  93  8151.801
  94  8492.952
  95  8896.471
  96  8914.562
  97  8673.585
  98  8469.771
  99  8685.14
 100  8746.242
 101  7818.634
 102  7205.695
 103  7497.018
 104  7522.384
 105  7670.139
 106  7484.778
 107  7169.519
 108  7863.37
 109  7993.889
 110  7872.862
 111  8252.755
 112  8559.515
 113  8841.656
 114  8103.884
 115  7870.735
 116  7913.051
 117  8113.348
 118  7414.256
 119  6826.471
 120  7364.888
 121  7340.81
 122  7024.949
 123  6880.66
 124  7396.09
 125  7525.65
 126  7519.507
 127  7661.83
 128  8479.557
 129  9117.409
 130  8406.515
 131  7978.386
 132  7435.179
 133  7471.131
 134  6890.928
 135  6662.355
 136  7018.666
 137  7382.328
 138  7562.044
 139  6803.073
 140  6731.637
 141  7339.397
 142  7651.863
 143  7488.831
 144  7994.868
 145  8901.177
 146  8734.234
 147  8351.628
 148  7956.425
 149  7874.149
 150  7891.701
 151  7368.385
 152  7300.145
 153  7815.204
 154  7589.287
 155  6944.661
 156  6960.966
 157  7258.055
 158  7642.425
 159  8051.358
 160  7993.77
 161  8995.301
 162  9311.906
 163  9250.903
 164  8802.255
 165  8833.491
 166  8146.236
 167  7711.464
 168  7331.16
 169  7192.169
 170  7761.736
 171  8065.777
 172  7637.363
 173  7841.718
 174  7985.784
 175  8048.776
 176  8375.519
 177  8845.042
 178  9268.395
 179  9412.823
 180  8833.343
 181  8404.771
 182  8553.2
 183  8474.551
 184  7522.511
 185  7389.935
 186  7681.771
 187  7924.679
 188  7967.291
 189  8299.931
 190  8237.99
 191  8696.223
 192  8456.767
 193  8218.584
 194  8810.543
 195  9144.322
 196  8870.258
 197  8678.59
 198  9350.522
 199  8840.367
 200  8396.58
 201  7692.543
 202  8078.719
 203  8558.812
 204  8035.808
 205  7636.956
 206  7856.868
 207  8344.314
 208  8249.636
 209  8417.814
 210  8839.607
 211  9403.592
 212  9428.165
 213  8546.407
 214  8385.304
 215  8268.489
 216  8096.977
 217  7931.368
 218  7605.83
 219  8013.542
 220  7966.929
 221  7477.632
 222  6835.25
 223  7458.163
 224  8129.211
 225  7811.314
 226  8542.545
 227  9042.821
 228  9491.383
 229  8765.801
 230  8256.931
 231  8238.241
 232  8214.604
 233  8071.139
 234  7691.71
 235  8129.498
 236  8474.793
 237  8439.563
 238  7547.104
 239  7833.295
 240  7966.386
 241  7844.375
 242  8215.831
 243  8616.221
 244  9355.707
 245  9301.739
 246  8849.544
 247  8353.932
 248  8525.688
 249  8270.388
 250  7658.666
 251  7614.578
 252  7814.246
 253  8305.821
 254  7997.371
 255  7579.964
 256  8038.161
 257  7950.793
 258  8011.252
 259  8464.551
 260  9206.528
 261  9605.604
 262  9607.577
 263  8885.996
 264  8672.853
 265  8644.659
 266  7998.104
 267  7492.347
 268  7547.537
 269  7994.612
 270  8090.921
 271  8155.003
 272  8264.152
 273  8267.961
 274  8504.013
 275  8253.366
 276  9127.661
 277  9985.916
 278  9851.691
 279  9106.864
 280  8895.449
 281  9212.821
 282  9022.189
 283  8591.74
 284  8494.844
 285  8455.791
 286  8768.533
 287  8235.335
 288  8184.028
 289  8242.047
 290  8108.012
 291  8129.495
 292  8590.35
 293  9088.125
 294  9182.039
 295  9849.308
 296  9014.787
 297  8615.573
 298  8771.181
 299  8838.965
 300  9132.962
 301  9983.53
 302  11176.05
 303  10596.3
 304  9631.49
 305  8660.346
 306  8480.543
 307  8177.48
 308  8162.167
 309  8729.599
 310  9423.007
 311  9326.147
 312  8661.423
 313  8363.287
 314  8503.396
 315  8253.289
 316  7779.239
 317  7654.455
 318  8139.11
 319  8151.107
 320  7143.899
 321  6741.657
 322  7210.523
 323  7309.325
 324  7562.477
 325  7853.519
 326  8400.741
 327  8427.48
 328  8406.556
 329  8018.655
 330  7941.448
 331  7841.372
 332  7225.334
 333  6421.323
 334  6673.812
 335  7584.947
 336  7781.738
 337  7044.524
 338  6624.215
 339  7256.12
 340  7270.902
 341  7497.412
 342  7975.321
 343  8519.979
 344  8343.954
 345  8046.208
 346  7987.757
 347  7891.44
 348  7587.799
 349  6802.86
 350  6607.572
 351  7168.461
 352  7325.632
 353  7095.26
 354  6816.074
 355  7146.344
 356  7528.657
 357  7244.554
 358  7483.456
 359  8249.23
 360  8415.153
 361  8085.728
 362  7789.546
 363  7683.101
 364  7667.312
 365  7733.064
 366  7230.493
 367  6898.352
 368  7082.181
 369  7382.52
 370  6791.788
 371  7017.647
 372  7705.267
 373  7944.565
 374  7865.869
 375  7482.794
 376  8607.344
 377  8700.288
 378  8206.814
 379  7868.146
 380  7608.866
 381  7672.309
 382  7275.495
 383  6960.023
 384  6590.958
 385  7090.178
 386  6486.413
 387  6539.957
 388  7294.702
 389  7877.491
 390  7594.989
 391  7838.753
 392  8156.325
 393  8436.234
 394  8410.031
 395  8095.938
 396  7757.077
 397  7789.724
 398  7957.134
 399  7732.521
 400  7321.812
 401  7711.816
 402  7435.838
 403  6947.517
 404  7107.207
 405  7351.898
 406  8288.763
 407  8045.907
 408  7985.181
 409  8878.217
 410  8676.445
 411  8224.512
 412  8522.72
 413  8137.462
 414  7890.018
 415  7434.313
 416  6879.002
 417  7062.02
 418  7033.369
 419  6999.391
 420  6702.253
 421  6918.241
 422  7117.523
 423  7010.785
 424  7354.649
 425  8463.197
 426  8757.797
 427  8354.401
 428  7893.512
 429  7841.355
 430  7967.959
 431  7579.439
 432  6619.524
 433  6908.972
 434  7546.832
 435  7758.561
 436  7102.01
 437  6626.081
 438  7198.86
 439  7321.734
 440  7193.964
 441  7588.524
 442  8449.961
 443  8804.479
 444  8210.464
 445  7707.377
 446  7498.715
 447  7644.686
 448  7416.188
 449  6457.286
 450  6552.803
 451  6977.182
 452  7014.985
 453  6784.434
 454  7391.916
 455  7820.144
 456  7582.793
 457  7146.767
 458  7702.519
 459  8629.808
 460  8256.702
 461  7903.792
 462  7801.793
 463  7412.683
 464  6716.325
 465  6553.716
 466  6571.243
 467  6645.52
 468  6759.459
 469  6372.629
 470  6800.775
 471  7463.035
 472  7590.454
 473  7457.53
 474  7589.827
 475  8204.312
 476  8481.36
 477  8155.149
 478  7808.412
 479  7862.696
 480  7896.376
 481  7479.724
 482  7515.208
 483  7344.222
 484  7671.338
 485  7020.856
 486  6531.523
 487  6629.054
 488  7134.667
 489  7404.004
 490  7183.489
 491  8281.383
 492  8445.808
 493  8274.974
 494  7813.013
 495  8036.139
 496  8015.957
 497  7358.712
 498  7023.229
 499  6869.372
 500  7336.145
 501  7445.72
 502  7267.795
 503  6931.972
 504  7442.237
 505  7423.56
 506  7568.474
 507  8154.813
 508  8433.015
 509  8632.4
 510  8210.671
 511  8018.238
