# Input file       =  1206100079.114177_cleaned.dat
# Candidate        =  PSR_0332+5434
# Telescope        =  AR
# Epoch_topo       =  58203.491876321496
# Epoch_bary       =  N/A
# T_sample         =  0.002
# Data Folded      =  7340032
# Data Avg         =  0.381469899940255
# Data StdDev      =  6.01723487246575 
# Profile Bins     =  512
# Profile Avg      =  5468.36724641602 
# Profile StdDev   =  720.461801872488 
# Reduced chi-sqr  =  1.131
# Prob(Noise)      <  0.0214   (~2.0 sigma)
# P_topo (ms)      =  714.572698534987  +/- 0.000279
# P'_topo (s/s)    =  -0                +/- 1.47e-10
# P''_topo (s/s^2) =  0                 +/- 6.49e-14
# P_bary (ms)      =  N/A
# P'_bary (s/s)    =  N/A
# P''_bary (s/s^2) =  N/A
# P_orb (s)        =  N/A
# asin(i)/c (s)    =  N/A
# eccentricity     =  N/A
# w (rad)          =  N/A
# T_peri           =  N/A
######################################################
   0  5659.414
   1  6245.848
   2  5977.448
   3  5821.223
   4  5712.197
   5  5540.917
   6  5801.181
   7  5779.708
   8  6078.846
   9  6309.504
  10  6333.561
  11  6543.73
  12  6136.031
  13  5784.361
  14  5605.233
  15  5349.872
  16  5607.679
  17  5776.318
  18  5863.025
  19  5921.583
  20  5585.479
  21  5482.611
  22  5596.167
  23  5820.214
  24  5864.927
  25  5460.087
  26  5244.21
  27  5423.97
  28  5816.429
  29  5651.07
  30  5496.657
  31  5507.385
  32  5420.793
  33  5256.208
  34  4883.141
  35  4888.716
  36  5030.658
  37  5430.026
  38  4926.562
  39  5164.418
  40  5365.919
  41  5052.14
  42  4891.349
  43  5033.453
  44  5082.289
  45  4735.196
  46  4839.469
  47  4954.085
  48  4858.654
  49  4509.207
  50  4601.757
  51  4579.148
  52  4522.574
  53  4580.124
  54  4646.955
  55  4195.267
  56  4248.81
  57  4567.557
  58  4819.49
  59  4885.182
  60  4758.117
  61  4455.571
  62  4385.056
  63  4664.324
  64  4817.242
  65  4758.384
  66  4411.524
  67  4524.407
  68  4811.365
  69  4557.157
  70  4597.217
  71  4679.285
  72  4849.756
  73  4812.48
  74  5176.184
  75  5393.761
  76  5229.395
  77  5396.617
  78  5380.63
  79  5770.464
  80  6078.925
  81  5664.755
  82  5252.226
  83  5471.011
  84  5874.405
  85  6046.028
  86  6054.351
  87  6156.561
  88  6079.619
  89  5823.647
  90  5903.714
  91  6054.883
  92  6130.447
  93  6047.034
  94  6014.778
  95  5931.521
  96  5871.658
  97  6000.22
  98  6011.955
  99  5648.319
 100  5820.017
 101  5570.28
 102  5421.738
 103  5678.428
 104  5292.597
 105  5235.132
 106  5312.782
 107  5406.246
 108  5018.008
 109  4803.793
 110  5010.821
 111  5050.259
 112  5187.855
 113  4986.858
 114  5112.791
 115  5065.261
 116  4818.764
 117  4861.2
 118  4928.323
 119  4855.831
 120  4863.673
 121  4654.216
 122  4800.516
 123  4869.42
 124  5079.118
 125  4927.647
 126  4728.819
 127  4844.236
 128  4620.84
 129  4361.437
 130  4586.551
 131  5101.857
 132  5037.418
 133  4750.888
 134  4752.542
 135  5054.663
 136  5258.686
 137  5066.902
 138  5156.466
 139  5044.574
 140  4840.21
 141  4925.798
 142  5334.974
 143  5614.408
 144  5526.991
 145  5443.824
 146  5262.05
 147  5432.689
 148  5370.849
 149  5768.332
 150  5924.212
 151  5933.918
 152  5787.33
 153  5663.723
 154  5663.686
 155  5471.854
 156  5652.771
 157  5182.415
 158  5358.332
 159  5544.236
 160  5708.674
 161  5674.533
 162  5852.243
 163  5797.551
 164  5519.426
 165  5633.736
 166  6010.736
 167  6124.082
 168  5909.56
 169  6071.721
 170  5964.947
 171  5627.413
 172  5351.716
 173  5458.863
 174  5463.536
 175  5813.506
 176  5795.762
 177  5433.857
 178  5395.142
 179  5355.948
 180  4820.724
 181  5104.477
 182  5301.289
 183  5230.935
 184  5105.784
 185  5055.098
 186  5070.587
 187  4715.952
 188  4453.535
 189  4440.605
 190  4429.756
 191  4036.414
 192  4445.273
 193  4787.694
 194  4860.434
 195  4941.242
 196  4775.12
 197  4697.234
 198  4220.586
 199  4216.802
 200  4373.921
 201  4468.402
 202  4642.115
 203  4508.734
 204  4241.73
 205  4264.187
 206  4720.138
 207  4520.962
 208  4422.123
 209  4451.622
 210  4650.19
 211  4922.209
 212  4950.85
 213  5127.056
 214  5274.555
 215  5625.799
 216  5375.844
 217  5227.355
 218  5474.195
 219  5331.154
 220  5179.563
 221  5006.141
 222  5206.334
 223  5071.265
 224  5294.322
 225  4972.692
 226  4970.695
 227  5102.489
 228  5157.372
 229  5227.784
 230  5358.171
 231  4953.537
 232  4814.516
 233  5016.114
 234  5059.791
 235  5021.141
 236  5055.175
 237  4810.889
 238  4863.336
 239  4752.276
 240  4879.212
 241  5354.025
 242  5729.436
 243  5666.24
 244  5597.794
 245  6019.955
 246  6079.812
 247  5864.479
 248  6028.957
 249  6075.581
 250  5657.63
 251  6098.849
 252  6020.389
 253  5677.132
 254  5642.995
 255  5798.154
 256  5534.305
 257  5444.985
 258  5714.189
 259  5764.784
 260  5289.109
 261  5027.736
 262  5381.408
 263  5462.162
 264  5334.612
 265  5580.017
 266  5700.129
 267  5227.014
 268  4820.243
 269  4844.296
 270  4764.481
 271  5075.134
 272  5132.102
 273  5209.886
 274  5309.201
 275  5080.833
 276  5399.705
 277  5481.489
 278  5615.708
 279  5569.574
 280  5498.787
 281  5437.089
 282  5227.095
 283  5522.972
 284  5711.16
 285  5760.346
 286  5274.952
 287  5381.457
 288  5279.664
 289  5065.732
 290  5574.728
 291  5662.777
 292  5652.043
 293  5616.36
 294  5998.569
 295  6185.671
 296  6201.814
 297  6185.829
 298  6159.877
 299  6233.743
 300  6505.079
 301  7142.498
 302  7755.039
 303  8037.943
 304  8219.788
 305  7836.941
 306  6933.628
 307  6614.692
 308  6116.509
 309  6219.358
 310  6228.497
 311  6267.275
 312  6137.164
 313  5719.699
 314  5889.886
 315  5623.547
 316  5733.966
 317  5929.921
 318  5971.817
 319  5926.012
 320  6294.335
 321  6121.718
 322  6095.261
 323  5815.013
 324  5462.647
 325  5409.805
 326  5677.249
 327  5886.216
 328  5987.194
 329  5966.502
 330  5794.17
 331  5819.847
 332  5184.437
 333  4919.724
 334  4882.391
 335  4803.025
 336  4709.441
 337  4944.06
 338  4967.544
 339  5090.835
 340  5322.276
 341  5255.727
 342  5030.452
 343  5378.509
 344  5757.117
 345  5268.139
 346  4733.375
 347  5081.138
 348  5400.84
 349  5584.936
 350  5771.109
 351  5825.088
 352  5662.12
 353  5520.069
 354  5702.549
 355  5897.47
 356  5656.558
 357  5695.408
 358  5585.818
 359  5774.878
 360  5929.211
 361  5848.733
 362  5932.435
 363  6037.118
 364  6045.374
 365  5908.496
 366  5701.085
 367  6046.543
 368  5957.522
 369  6057.713
 370  6329.705
 371  6016.021
 372  6049.968
 373  6327.167
 374  6104.252
 375  5737.64
 376  5821.041
 377  5752.271
 378  6109.502
 379  6198.642
 380  6114.703
 381  5979.793
 382  6004.079
 383  5519.514
 384  5667.933
 385  6004.194
 386  6181.07
 387  6217.448
 388  5875.787
 389  5607.693
 390  6101.214
 391  5991.729
 392  6095.015
 393  5955.951
 394  6117.931
 395  5813.926
 396  5602.219
 397  6000.661
 398  5895.154
 399  5644.596
 400  5746.23
 401  5475.416
 402  5060.1
 403  5475.043
 404  5404.401
 405  5415.028
 406  5366.778
 407  4868.059
 408  4814.942
 409  5091.817
 410  5464.239
 411  5101.9
 412  5039.613
 413  4884.646
 414  5281.001
 415  5340.879
 416  5403.726
 417  5584.005
 418  5120.81
 419  5176.056
 420  5233.01
 421  5286.745
 422  5711.789
 423  5918.783
 424  5811.099
 425  5646.522
 426  5808.646
 427  5719.842
 428  5741.419
 429  6158.086
 430  5651.819
 431  5772.857
 432  5427.457
 433  5516.985
 434  5207.427
 435  5320.236
 436  5470.846
 437  5547.642
 438  5425.77
 439  5274.783
 440  5471.882
 441  5498.561
 442  5738.131
 443  5852.844
 444  5746.376
 445  5607.785
 446  5724.843
 447  5862.681
 448  6189.006
 449  6038.74
 450  6210.159
 451  6196.249
 452  6304.353
 453  6122.992
 454  5972.293
 455  5996.746
 456  6087.129
 457  6338.452
 458  6616.292
 459  6270.072
 460  6340.644
 461  6088.188
 462  5899.214
 463  5695.339
 464  5828.464
 465  6392.015
 466  6545.338
 467  6152.399
 468  6105.999
 469  5839.257
 470  5563.125
 471  5711.859
 472  5568.865
 473  5535.57
 474  5157.2
 475  5311.887
 476  5598.881
 477  5206.432
 478  5001.538
 479  5056.318
 480  5233.645
 481  5240.983
 482  5180.852
 483  5466.345
 484  5142.052
 485  4778.009
 486  4877.516
 487  5083.635
 488  5176.828
 489  5199.529
 490  5371.271
 491  5396.207
 492  5421.86
 493  5041.01
 494  5142.275
 495  5306.831
 496  5590.755
 497  5547.137
 498  5625.892
 499  5522.156
 500  5743.559
 501  5860.487
 502  5720.868
 503  5619.993
 504  5659.387
 505  5723.424
 506  5590.097
 507  5448.024
 508  5568.401
 509  5558.444
 510  5566.624
 511  5609.339
