# Input file       =  1206343968.106489_cleaned.dat
# Candidate        =  PSR_0332+5434
# Telescope        =  AR
# Epoch_topo       =  58206.314665584359
# Epoch_bary       =  N/A
# T_sample         =  0.002
# Data Folded      =  7208960
# Data Avg         =  0.103192273554746
# Data StdDev      =  1.00019266778634 
# Profile Bins     =  512
# Profile Avg      =  1452.93876632125 
# Profile StdDev   =  118.68203759426  
# Reduced chi-sqr  =  1.813
# Prob(Noise)      <  1.88e-26   (~10.6 sigma)
# P_topo (ms)      =  714.571173833853  +/- 0.000124
# P'_topo (s/s)    =  -0                +/- 6.66e-11
# P''_topo (s/s^2) =  0                 +/- 2.99e-14
# P_bary (ms)      =  N/A
# P'_bary (s/s)    =  N/A
# P''_bary (s/s^2) =  N/A
# P_orb (s)        =  N/A
# asin(i)/c (s)    =  N/A
# eccentricity     =  N/A
# w (rad)          =  N/A
# T_peri           =  N/A
######################################################
   0  1498.494
   1  1481.824
   2  1513.643
   3  1491.683
   4  1435.759
   5  1416.34
   6  1511.241
   7  1517.51
   8  1588.418
   9  1534.759
  10  1474.843
  11  1496.383
  12  1501.925
  13  1527.684
  14  1495.277
  15  1571.088
  16  1551.997
  17  1619.616
  18  1538.607
  19  1464.554
  20  1441.287
  21  1462.525
  22  1430.211
  23  1382.35
  24  1430.095
  25  1492.491
  26  1423.978
  27  1376.501
  28  1469.946
  29  1509.237
  30  1507.989
  31  1511.938
  32  1613.247
  33  1566.706
  34  1526.495
  35  1492.023
  36  1335.087
  37  1415.204
  38  1331.525
  39  1337.839
  40  1410.773
  41  1498.277
  42  1405.816
  43  1386.708
  44  1498.764
  45  1492.292
  46  1451.207
  47  1499.087
  48  1495.554
  49  1555.795
  50  1505.28
  51  1459.241
  52  1346.4
  53  1255.542
  54  1358.78
  55  1420.806
  56  1381.219
  57  1374.929
  58  1322.752
  59  1317.914
  60  1357.294
  61  1397.554
  62  1408.312
  63  1342.948
  64  1375.839
  65  1443.267
  66  1409.828
  67  1388.438
  68  1342.044
  69  1344.494
  70  1397.778
  71  1366.493
  72  1382.785
  73  1389.701
  74  1414.647
  75  1435.841
  76  1402.632
  77  1292.541
  78  1450.682
  79  1495.35
  80  1514.147
  81  1546.438
  82  1498.371
  83  1489.067
  84  1480.484
  85  1418.292
  86  1443.106
  87  1590.184
  88  1851.655
  89  2049.708
  90  2165.715
  91  2135.609
  92  1873.072
  93  1692.861
  94  1556.097
  95  1483.533
  96  1500.189
  97  1508.451
  98  1525.251
  99  1561.412
 100  1359.391
 101  1372.255
 102  1343.287
 103  1395.661
 104  1349.173
 105  1256.078
 106  1380.836
 107  1324.759
 108  1341.699
 109  1296.457
 110  1402.804
 111  1391.729
 112  1370.099
 113  1370.289
 114  1462.115
 115  1398.246
 116  1350.006
 117  1342.013
 118  1281.716
 119  1282.927
 120  1262.083
 121  1303.619
 122  1219.365
 123  1353.465
 124  1333.964
 125  1200.536
 126  1254.595
 127  1345.245
 128  1468.182
 129  1388.497
 130  1354.239
 131  1381.722
 132  1352.922
 133  1239.215
 134  1290.671
 135  1287.845
 136  1290.864
 137  1215.081
 138  1304.546
 139  1335.537
 140  1271.091
 141  1235.95
 142  1201.813
 143  1301.861
 144  1427.525
 145  1374.897
 146  1317.604
 147  1362.192
 148  1430.317
 149  1367.7
 150  1303.295
 151  1250.397
 152  1375.862
 153  1422.918
 154  1311.885
 155  1207.586
 156  1300.196
 157  1389.822
 158  1359.863
 159  1371.886
 160  1406.149
 161  1433.159
 162  1463.028
 163  1453.362
 164  1443.815
 165  1502.016
 166  1331.524
 167  1252.734
 168  1316.53
 169  1281.284
 170  1271.957
 171  1240.876
 172  1265.028
 173  1267.748
 174  1374.994
 175  1360.893
 176  1385.638
 177  1475.571
 178  1519.295
 179  1478.905
 180  1507.294
 181  1567.292
 182  1549.191
 183  1387.728
 184  1362.459
 185  1516.063
 186  1465.805
 187  1443.158
 188  1483.897
 189  1535.24
 190  1502.409
 191  1540.918
 192  1591.241
 193  1709.242
 194  1604.496
 195  1602.495
 196  1584.072
 197  1556.151
 198  1589.471
 199  1579.109
 200  1555.51
 201  1500.399
 202  1546.577
 203  1537.638
 204  1551.89
 205  1463.084
 206  1413.463
 207  1539.422
 208  1440.236
 209  1454.018
 210  1534.81
 211  1604.317
 212  1615.937
 213  1642.799
 214  1560.22
 215  1487.964
 216  1471.467
 217  1473.013
 218  1566.159
 219  1502.002
 220  1491.253
 221  1440.33
 222  1414.492
 223  1551.629
 224  1549.374
 225  1430.96
 226  1391.317
 227  1487.12
 228  1510.421
 229  1532.599
 230  1484.247
 231  1510.02
 232  1490.391
 233  1412.766
 234  1342.097
 235  1357.564
 236  1373.84
 237  1430.233
 238  1410.186
 239  1390.632
 240  1329.004
 241  1276.72
 242  1418.183
 243  1458.584
 244  1309.762
 245  1403.674
 246  1396.149
 247  1393.203
 248  1445.984
 249  1396.251
 250  1379.669
 251  1354.558
 252  1329.682
 253  1335.446
 254  1356.619
 255  1363.498
 256  1433.157
 257  1302.668
 258  1247.512
 259  1179.599
 260  1416.333
 261  1487.102
 262  1410.077
 263  1459.652
 264  1592.819
 265  1467.272
 266  1339.79
 267  1335.626
 268  1315.151
 269  1402.036
 270  1279.508
 271  1211.982
 272  1409.668
 273  1377.873
 274  1306.356
 275  1305.216
 276  1355.104
 277  1370.323
 278  1397.717
 279  1446.478
 280  1459.715
 281  1400.597
 282  1326.316
 283  1376.794
 284  1408.784
 285  1303.877
 286  1341.634
 287  1380.582
 288  1358.425
 289  1482.672
 290  1449.964
 291  1436.855
 292  1446.124
 293  1482.266
 294  1410.704
 295  1384.011
 296  1442.239
 297  1465.79
 298  1526.678
 299  1524.164
 300  1458.872
 301  1503.019
 302  1552.684
 303  1518.911
 304  1498.938
 305  1449.243
 306  1354.704
 307  1399.402
 308  1449.468
 309  1482.948
 310  1500.757
 311  1488.172
 312  1528.935
 313  1478.322
 314  1458.151
 315  1459.618
 316  1347.376
 317  1350.836
 318  1404.693
 319  1421.205
 320  1426.93
 321  1417.089
 322  1403.586
 323  1475.402
 324  1474.659
 325  1445.378
 326  1496.183
 327  1606.601
 328  1634.009
 329  1557.608
 330  1621.653
 331  1596.794
 332  1506.863
 333  1489.669
 334  1470.01
 335  1550.577
 336  1509.529
 337  1419.388
 338  1426.991
 339  1501.083
 340  1425.904
 341  1465.338
 342  1560.336
 343  1592.17
 344  1538.036
 345  1515.504
 346  1523.387
 347  1530.561
 348  1514.636
 349  1603.736
 350  1558.336
 351  1455.522
 352  1471.88
 353  1389.107
 354  1480.47
 355  1606.395
 356  1553.201
 357  1491.684
 358  1558.275
 359  1630.663
 360  1688.034
 361  1635.048
 362  1637.521
 363  1702.678
 364  1604.641
 365  1557.545
 366  1506.613
 367  1530.025
 368  1499.571
 369  1487.457
 370  1459.487
 371  1629.842
 372  1600.494
 373  1452.551
 374  1430.261
 375  1532.828
 376  1591.028
 377  1622.542
 378  1609.948
 379  1583.741
 380  1427.159
 381  1425.604
 382  1505.292
 383  1603.538
 384  1630.966
 385  1618.214
 386  1621.048
 387  1622.874
 388  1676.402
 389  1552.471
 390  1505.013
 391  1528.233
 392  1615.862
 393  1569.761
 394  1597.38
 395  1615.333
 396  1607.685
 397  1617.128
 398  1515.383
 399  1509.792
 400  1494.084
 401  1577.923
 402  1592.939
 403  1520.256
 404  1575.127
 405  1557.396
 406  1553.287
 407  1484.528
 408  1477.077
 409  1511.447
 410  1513.055
 411  1566.253
 412  1657.165
 413  1621.501
 414  1559.82
 415  1533.925
 416  1485.159
 417  1545.471
 418  1415.802
 419  1438.526
 420  1488.751
 421  1474.146
 422  1373.037
 423  1332.427
 424  1472.642
 425  1547.419
 426  1461.918
 427  1578.488
 428  1605.184
 429  1513.833
 430  1419.35
 431  1399.406
 432  1406.933
 433  1496.269
 434  1420.289
 435  1318.904
 436  1301.034
 437  1322.393
 438  1318.532
 439  1298.341
 440  1281.013
 441  1352.579
 442  1463.015
 443  1435.894
 444  1435.91
 445  1499.999
 446  1517.611
 447  1448.049
 448  1402.536
 449  1238.943
 450  1264.211
 451  1348.457
 452  1256.255
 453  1258.525
 454  1377.675
 455  1358.227
 456  1360.827
 457  1366.845
 458  1483.034
 459  1442.093
 460  1341.081
 461  1388.883
 462  1413.334
 463  1419.673
 464  1412.965
 465  1357.852
 466  1309.682
 467  1465.285
 468  1506.787
 469  1385.797
 470  1494.097
 471  1518.502
 472  1489.937
 473  1390.549
 474  1421.048
 475  1536.826
 476  1582.509
 477  1555.264
 478  1562.322
 479  1549.434
 480  1510.72
 481  1359.736
 482  1310.033
 483  1431.245
 484  1374.948
 485  1358.903
 486  1362.207
 487  1330.303
 488  1310.543
 489  1328.812
 490  1411.815
 491  1502.075
 492  1551.21
 493  1572.712
 494  1517.226
 495  1586.472
 496  1522.03
 497  1446.516
 498  1452.541
 499  1425.943
 500  1385.644
 501  1412.18
 502  1463.239
 503  1506.453
 504  1467.77
 505  1444.291
 506  1494.354
 507  1602.192
 508  1631.073
 509  1577.583
 510  1443.163
 511  1403.976
