# Input file       =  1206358626.111749_cleaned.dat
# Candidate        =  PSR_0332+5434
# Telescope        =  AR
# Epoch_topo       =  58206.484318423019
# Epoch_bary       =  N/A
# T_sample         =  0.002
# Data Folded      =  7340032
# Data Avg         =  0.417585158808963
# Data StdDev      =  6.10138587247983 
# Profile Bins     =  512
# Profile Avg      =  5986.40587083544 
# Profile StdDev   =  730.537456618314 
# Reduced chi-sqr  =  0.713
# Prob(Noise)      <  1   (~0.0 sigma)
# P_topo (ms)      =  714.571096840917  +/- 0.000522
# P'_topo (s/s)    =  -0                +/- 2.75e-10
# P''_topo (s/s^2) =  0                 +/- 1.22e-13
# P_bary (ms)      =  N/A
# P'_bary (s/s)    =  N/A
# P''_bary (s/s^2) =  N/A
# P_orb (s)        =  N/A
# asin(i)/c (s)    =  N/A
# eccentricity     =  N/A
# w (rad)          =  N/A
# T_peri           =  N/A
######################################################
   0  5662.813
   1  5515.196
   2  5781.483
   3  6071.113
   4  5814.887
   5  5871.273
   6  5840.664
   7  6231.853
   8  6051.385
   9  6014.3
  10  6217.824
  11  6064.639
  12  5816.788
  13  6096.646
  14  6367.693
  15  6336.417
  16  6398.957
  17  6366.85
  18  6287.277
  19  6335.23
  20  6295.395
  21  6449.066
  22  6274.816
  23  6367.836
  24  6527.987
  25  6506.059
  26  6551.384
  27  6560.965
  28  6577.098
  29  5936.439
  30  5827.139
  31  6187.56
  32  6372.042
  33  5959.029
  34  6110.604
  35  6288.917
  36  6216.832
  37  6699.823
  38  6565.656
  39  6358.186
  40  5592.668
  41  5528.783
  42  5785.38
  43  5779.501
  44  6067.034
  45  6402.718
  46  6384.684
  47  5909.331
  48  5989.39
  49  5836.73
  50  5864.292
  51  5767.09
  52  6133.145
  53  6360.381
  54  6208.773
  55  5827.812
  56  5881.654
  57  6014.393
  58  6055.66
  59  5894.128
  60  5719.405
  61  5689.703
  62  5946.656
  63  5736.236
  64  5398.14
  65  5749.397
  66  5929.683
  67  6008.876
  68  6076.667
  69  6362.633
  70  6095.256
  71  5992.192
  72  6239.757
  73  6028.315
  74  5701.123
  75  5545.728
  76  5519.825
  77  5298.812
  78  5202.003
  79  5749.829
  80  5772.53
  81  5792.588
  82  5395.362
  83  5016.973
  84  5279.481
  85  5830.961
  86  5845.525
  87  5936.662
  88  5797.312
  89  5658.696
  90  5733.526
  91  5673.561
  92  5940.776
  93  6293.94
  94  5791.024
  95  5407.596
  96  5545.311
  97  5412.917
  98  5345.964
  99  5560.425
 100  5740.232
 101  5600.606
 102  5741.412
 103  5755.517
 104  5932.812
 105  6088.824
 106  6064.31
 107  5771.712
 108  5699.24
 109  6034.323
 110  6282.981
 111  6286.488
 112  6251.843
 113  6417.54
 114  6233.7
 115  5955.025
 116  5966.452
 117  5817.671
 118  5861.903
 119  5865.839
 120  5884.819
 121  5477.911
 122  5509.893
 123  5686.811
 124  5909.574
 125  5803.452
 126  5796.26
 127  5687.475
 128  6025.331
 129  6095.012
 130  5950
 131  5941.664
 132  5791.803
 133  5431.541
 134  5411.681
 135  5507.464
 136  5707.207
 137  5713.357
 138  6088.844
 139  6103.219
 140  6327.507
 141  6448.458
 142  6224.633
 143  6302.542
 144  6209.264
 145  6342.174
 146  6314.265
 147  6698.895
 148  6344.114
 149  6004.683
 150  5564.937
 151  5573.234
 152  5729.333
 153  5795.984
 154  5776.748
 155  5953.646
 156  5881.601
 157  5865.222
 158  5482.873
 159  5524.231
 160  5217.475
 161  5058.589
 162  5525.96
 163  6016.76
 164  5716.655
 165  5703.572
 166  5664.476
 167  5436.285
 168  5678.298
 169  5455.462
 170  5515.261
 171  5639.429
 172  5919.534
 173  5968.226
 174  5923.504
 175  5946.968
 176  5602.81
 177  5657.77
 178  5727.044
 179  5756.818
 180  5900.033
 181  5962.985
 182  5868.351
 183  5572.767
 184  5581.746
 185  5968.906
 186  5832.4
 187  6005.158
 188  6153.042
 189  5737.798
 190  5413.873
 191  5794.171
 192  6151.424
 193  6439.59
 194  6160.252
 195  6553.73
 196  6345.206
 197  6065.576
 198  5675.274
 199  5766.801
 200  6030.213
 201  6355.973
 202  6363.511
 203  6655.072
 204  6840.892
 205  6624.405
 206  6460.932
 207  6403.157
 208  6284.547
 209  6158.242
 210  6229.885
 211  6328.846
 212  6637.461
 213  6355.325
 214  6387.196
 215  6755.479
 216  7034.614
 217  6627.073
 218  6228.903
 219  6551.872
 220  6792.745
 221  6899.33
 222  6941.663
 223  7062.369
 224  7115.042
 225  7271.559
 226  7251.984
 227  7243.734
 228  7140.155
 229  6704.739
 230  6735.351
 231  6958.291
 232  6854.665
 233  6884.368
 234  7206.492
 235  7044.361
 236  6878.562
 237  6556.575
 238  6263.696
 239  5995.674
 240  5974.836
 241  6207.419
 242  6333.583
 243  6226.554
 244  6512.75
 245  6764.259
 246  6732.504
 247  6250.108
 248  6145.048
 249  6134.82
 250  5520.541
 251  5824.333
 252  6135.798
 253  5980.899
 254  5996.275
 255  6372.86
 256  6151.841
 257  5922.671
 258  6104.736
 259  6352.398
 260  6273.121
 261  6094.875
 262  5717.022
 263  5748.04
 264  5856.186
 265  5354.419
 266  5221.558
 267  5630.469
 268  5989.477
 269  5818.121
 270  5566.991
 271  5750.482
 272  5551.614
 273  6044.245
 274  5809.565
 275  5566.233
 276  5513.007
 277  5705.54
 278  5345.161
 279  5447.059
 280  5486.005
 281  5235.304
 282  5224.378
 283  5499.678
 284  5855.786
 285  5443.054
 286  5468.399
 287  5189.843
 288  5345.496
 289  5590.244
 290  5710.04
 291  5339.74
 292  5618.281
 293  5713.316
 294  5244.483
 295  5121.064
 296  5449.15
 297  5623.48
 298  5992.594
 299  6155.16
 300  6869.459
 301  7397.045
 302  7743.826
 303  7828.018
 304  7397.512
 305  7235.942
 306  6824.05
 307  6323.926
 308  5780.118
 309  5586.466
 310  5758.612
 311  5585.3
 312  5600.798
 313  5930.448
 314  5950.854
 315  5906.823
 316  5951.007
 317  6110.472
 318  6005.041
 319  6081.662
 320  6239.229
 321  6401.469
 322  6178.799
 323  6152.586
 324  5912.729
 325  5621.619
 326  5575.941
 327  5370.735
 328  5471.374
 329  6316.3
 330  6273.889
 331  6166.57
 332  6240.531
 333  6377.954
 334  6256.785
 335  6345.023
 336  6271.501
 337  6378.842
 338  6280.445
 339  5771.108
 340  5936.466
 341  5707.279
 342  5932.53
 343  5853.165
 344  5562.683
 345  5916.087
 346  5675.531
 347  5574.607
 348  5899.501
 349  6051.15
 350  6090.736
 351  5838.11
 352  5843.242
 353  5666.609
 354  5753.163
 355  5728.281
 356  5249.121
 357  5213.961
 358  4951.922
 359  5175.669
 360  5089.411
 361  5460.299
 362  5687.634
 363  5526.927
 364  5724.647
 365  5512.122
 366  5289.112
 367  5542.673
 368  5574.893
 369  5407.081
 370  5521.092
 371  5540.636
 372  5672.708
 373  5259.764
 374  5229.108
 375  5111.564
 376  5403.529
 377  6122.698
 378  5877.156
 379  5813.652
 380  5977.834
 381  6193.509
 382  5998.057
 383  6011.814
 384  6032.526
 385  5607.306
 386  5870.346
 387  6274.535
 388  6099.128
 389  6449.239
 390  6222.882
 391  6106.493
 392  6508.767
 393  6468.905
 394  6083.983
 395  6431.419
 396  6758.291
 397  6696.532
 398  6332.647
 399  6683.019
 400  7041.033
 401  6645.175
 402  6408.739
 403  6206.591
 404  6294.099
 405  6352.411
 406  6206.409
 407  6301.069
 408  6670.051
 409  6538.207
 410  6461.192
 411  6512.171
 412  6636.564
 413  6298.246
 414  6271.482
 415  5913.231
 416  6016.234
 417  6120.778
 418  5759.548
 419  5781.595
 420  5616.429
 421  6121.778
 422  5780.255
 423  5305.001
 424  5390.266
 425  5497.843
 426  5722.388
 427  5811.205
 428  6067.666
 429  6500.178
 430  6246.954
 431  5909.015
 432  5931.286
 433  6395.645
 434  6320.458
 435  6285.018
 436  5972.779
 437  6260.616
 438  6474.389
 439  6244.123
 440  6219.078
 441  6359.929
 442  6422.021
 443  6304.564
 444  6575.349
 445  6482.98
 446  6184.086
 447  6327.577
 448  6257.325
 449  6497.849
 450  6576.323
 451  6361.455
 452  6149.126
 453  5757.958
 454  5923.646
 455  6280.811
 456  6653.856
 457  6330.83
 458  6083.519
 459  6242.834
 460  5970.392
 461  5795.242
 462  5840.99
 463  6380.407
 464  6115.579
 465  5907.416
 466  5851.548
 467  5597.602
 468  5566.686
 469  5733.917
 470  5764.163
 471  6029.235
 472  6195.643
 473  5996.245
 474  5880.757
 475  5812.282
 476  5636.22
 477  5528.318
 478  5677.624
 479  5623.116
 480  5481.289
 481  5369.491
 482  5453.801
 483  5529.899
 484  5241.899
 485  5811.374
 486  5663.348
 487  5418.105
 488  5689.684
 489  5431.862
 490  5614.395
 491  5759.132
 492  5747.751
 493  5795.823
 494  5450.081
 495  5610.045
 496  5324.175
 497  5644.147
 498  5706.308
 499  5614.185
 500  5731.383
 501  5695.891
 502  5689.898
 503  5847.723
 504  5582.995
 505  5606.422
 506  5688.583
 507  5710.176
 508  5572.242
 509  5695.627
 510  5562.042
 511  5367.891
