# Input file       =  1206358626.111749_cleaned.dat
# Candidate        =  PSR_0332+5434
# Telescope        =  AR
# Epoch_topo       =  58206.484318423019
# Epoch_bary       =  N/A
# T_sample         =  0.002
# Data Folded      =  7340032
# Data Avg         =  0.417585158808963
# Data StdDev      =  6.10138587247983 
# Profile Bins     =  512
# Profile Avg      =  5986.40587099436 
# Profile StdDev   =  730.537456618314 
# Reduced chi-sqr  =  0.715
# Prob(Noise)      <  1   (~0.0 sigma)
# P_topo (ms)      =  714.571096941393  +/- 0.000522
# P'_topo (s/s)    =  -0                +/- 2.75e-10
# P''_topo (s/s^2) =  0                 +/- 1.22e-13
# P_bary (ms)      =  N/A
# P'_bary (s/s)    =  N/A
# P''_bary (s/s^2) =  N/A
# P_orb (s)        =  N/A
# asin(i)/c (s)    =  N/A
# eccentricity     =  N/A
# w (rad)          =  N/A
# T_peri           =  N/A
######################################################
   0  6359.938
   1  6647.673
   2  6860.782
   3  6878.41
   4  6981.275
   5  7141.646
   6  7171.69
   7  7330.083
   8  7180.829
   9  7265.922
  10  6916.822
  11  6674.639
  12  6849.5
  13  6914.524
  14  6849.695
  15  7011.43
  16  7226.97
  17  6950.175
  18  6757.519
  19  6386.802
  20  6223.954
  21  5913.628
  22  6068.269
  23  6258.924
  24  6320.528
  25  6286.738
  26  6646.151
  27  6782.739
  28  6577.427
  29  6090.25
  30  6257.032
  31  5822.184
  32  5564.55
  33  6046.608
  34  6047.955
  35  5996.087
  36  6121.15
  37  6384.477
  38  6004.206
  39  5959.674
  40  6246.808
  41  6320.548
  42  6224.85
  43  5900.552
  44  5673.343
  45  5874.931
  46  5722.196
  47  5135.607
  48  5388.566
  49  5770.258
  50  6064.907
  51  5610.694
  52  5687.37
  53  5657.163
  54  5662.188
  55  6141.611
  56  5588.252
  57  5557.49
  58  5555.744
  59  5604.687
  60  5323.475
  61  5477.754
  62  5484.938
  63  5123.28
  64  5354.1
  65  5640.768
  66  5789.091
  67  5349.869
  68  5387.378
  69  5177.197
  70  5476.673
  71  5716.388
  72  5502.794
  73  5404.284
  74  5719.299
  75  5554.63
  76  5138.443
  77  5272.745
  78  5482.283
  79  5795.559
  80  6049.585
  81  6417.087
  82  7107.771
  83  7567.058
  84  7867.546
  85  7633.929
  86  7352.234
  87  7056.611
  88  6652.718
  89  6079.181
  90  5646.428
  91  5685.023
  92  5652.516
  93  5533.34
  94  5716.824
  95  6025.65
  96  5886.979
  97  5957.908
  98  5959.116
  99  6133.969
 100  5974.454
 101  6187.02
 102  6324.358
 103  6307.51
 104  6177.012
 105  6072.25
 106  5793.766
 107  5501.41
 108  5602.029
 109  5265.925
 110  5855.539
 111  6371.808
 112  6213.759
 113  6165.019
 114  6300.74
 115  6394.843
 116  6182.218
 117  6437.558
 118  6192.582
 119  6482.847
 120  6043.632
 121  5739.756
 122  5895.353
 123  5694.989
 124  6085.279
 125  5649.206
 126  5728.643
 127  5828.922
 128  5599.516
 129  5696.062
 130  5971.808
 131  6082.804
 132  5988.018
 133  5821.4
 134  5820.487
 135  5605.958
 136  5902.168
 137  5411.105
 138  5312.538
 139  5038.78
 140  5081.329
 141  5102.759
 142  5189.67
 143  5618.832
 144  5603.966
 145  5612.566
 146  5688.919
 147  5431.802
 148  5253.962
 149  5656.54
 150  5473.521
 151  5460.511
 152  5517.404
 153  5606.919
 154  5524.831
 155  5176.089
 156  5267.424
 157  5051.237
 158  5798.596
 159  6089.553
 160  5815.867
 161  5865.628
 162  6078.61
 163  6169.25
 164  5988.468
 165  6037.681
 166  5868.718
 167  5566.952
 168  6185.844
 169  6173.891
 170  6229.229
 171  6408.13
 172  6066.903
 173  6268.437
 174  6560.504
 175  6341.656
 176  6108.239
 177  6636.247
 178  6768.505
 179  6524.57
 180  6371.421
 181  6951.516
 182  6912.108
 183  6493.703
 184  6354.74
 185  6183.649
 186  6357.592
 187  6248.193
 188  6184.655
 189  6501.287
 190  6669.371
 191  6500.603
 192  6479.16
 193  6623.303
 194  6426.299
 195  6303.477
 196  6157.211
 197  5894.642
 198  6118.382
 199  5983.136
 200  5738.491
 201  5679.35
 202  5833.107
 203  6109.79
 204  5461.925
 205  5350.462
 206  5392.435
 207  5606.859
 208  5755.93
 209  5893.518
 210  6258.344
 211  6477.782
 212  6021.177
 213  5888.845
 214  6142.949
 215  6435.254
 216  6291.114
 217  6142.835
 218  5999.204
 219  6476.849
 220  6356.143
 221  6210.876
 222  6252.007
 223  6453.459
 224  6314.416
 225  6429.444
 226  6665.581
 227  6256.61
 228  6226.312
 229  6303.401
 230  6328.086
 231  6583.622
 232  6448.287
 233  6324.979
 234  5974.056
 235  5788.043
 236  6000.402
 237  6560.579
 238  6511.651
 239  6162.994
 240  6189.741
 241  6147.408
 242  5952.564
 243  5670.554
 244  6163.125
 245  6272.645
 246  6005.952
 247  5878.782
 248  5741.561
 249  5585.5
 250  5605.805
 251  5832.111
 252  5758.23
 253  6154.415
 254  6160.237
 255  5875.39
 256  5910.586
 257  5716.594
 258  5591.251
 259  5526.582
 260  5780.667
 261  5463.29
 262  5511.165
 263  5274.415
 264  5622.605
 265  5353.261
 266  5438.151
 267  5869.924
 268  5420.886
 269  5615.966
 270  5565.951
 271  5502.779
 272  5700.696
 273  5725.937
 274  5800.791
 275  5609.823
 276  5544.851
 277  5480.5
 278  5439.807
 279  5707.445
 280  5647.027
 281  5640.324
 282  5740.907
 283  5670.824
 284  5738.193
 285  5843.834
 286  5492.542
 287  5706.393
 288  5611.198
 289  5705.947
 290  5569.757
 291  5763.668
 292  5421.798
 293  5496.682
 294  5631.079
 295  5479.738
 296  6050.707
 297  5883
 298  5895.287
 299  5794.188
 300  6031.52
 301  6198.992
 302  5959.316
 303  6120.968
 304  6240.835
 305  5889.798
 306  5868.395
 307  6241.709
 308  6394.917
 309  6309.138
 310  6491.44
 311  6248.573
 312  6358.135
 313  6263.353
 314  6374.115
 315  6437.543
 316  6236.12
 317  6497.439
 318  6470.055
 319  6550.082
 320  6553.114
 321  6655.255
 322  6260.317
 323  5868.487
 324  5893.192
 325  6400.754
 326  6180.473
 327  5920.159
 328  6276.175
 329  6179.8
 330  6423.649
 331  6696.723
 332  6569.761
 333  5989.781
 334  5465.626
 335  5670.709
 336  5767.38
 337  5883.094
 338  6250.775
 339  6464.136
 340  6116.579
 341  5914.384
 342  5969.386
 343  5848.627
 344  5810.676
 345  5845.3
 346  6313.839
 347  6314.381
 348  6046.679
 349  5804.769
 350  5942.059
 351  6050.355
 352  6017.476
 353  5820.06
 354  5646.116
 355  5822.585
 356  5935.606
 357  5502.123
 358  5508.082
 359  5865.139
 360  5955.541
 361  6040.106
 362  6186.697
 363  6349.667
 364  5936.509
 365  6138.101
 366  6232.008
 367  5818.671
 368  5642.569
 369  5529.99
 370  5470.624
 371  5161.316
 372  5423.034
 373  5853.528
 374  5711.335
 375  5721.479
 376  5150.604
 377  5103.265
 378  5523.366
 379  5834.05
 380  5955.248
 381  5814.599
 382  5800.475
 383  5638.856
 384  5719.947
 385  5687.792
 386  6173.945
 387  6211.019
 388  5532.081
 389  5482.243
 390  5503.918
 391  5364.012
 392  5342.816
 393  5744.226
 394  5679.217
 395  5626.599
 396  5710.229
 397  5823.632
 398  6081.671
 399  6086.412
 400  5916.236
 401  5702.715
 402  5819.379
 403  6198.21
 404  6282.06
 405  6244.406
 406  6318.958
 407  6387.281
 408  6108.964
 409  5934.822
 410  5911.022
 411  5822.202
 412  5888.191
 413  5851.209
 414  5776.432
 415  5370.631
 416  5629.052
 417  5754.283
 418  5896.277
 419  5817.376
 420  5700.921
 421  5846.954
 422  6114.472
 423  6026.844
 424  5927.239
 425  5918.816
 426  5613.187
 427  5399.831
 428  5422.674
 429  5648.823
 430  5572.209
 431  5972.106
 432  6125.149
 433  6151.251
 434  6411.26
 435  6381.162
 436  6232.739
 437  6225.582
 438  6336.167
 439  6283.081
 440  6471.804
 441  6630.323
 442  6173.396
 443  5844.649
 444  5469.017
 445  5637.939
 446  5805.26
 447  5771.734
 448  5800.571
 449  6004.725
 450  5864.698
 451  5720.677
 452  5448.571
 453  5512.095
 454  5031.441
 455  5247.965
 456  5719.544
 457  5976.056
 458  5601.211
 459  5783.456
 460  5541.868
 461  5526.393
 462  5624.458
 463  5406.196
 464  5576.616
 465  5708.608
 466  6044.206
 467  5923.681
 468  5983.156
 469  5789.986
 470  5607.651
 471  5663.033
 472  5740.044
 473  5802.578
 474  5944.767
 475  5912.261
 476  5843.792
 477  5410.468
 478  5820.93
 479  5864.309
 480  5904.182
 481  6135.424
 482  6038.858
 483  5563.354
 484  5482.531
 485  5960.952
 486  6286.333
 487  6335.763
 488  6266.428
 489  6602.288
 490  6172.486
 491  5903.854
 492  5632.185
 493  5870.237
 494  6248.913
 495  6306.744
 496  6466.266
 497  6750.545
 498  6829.333
 499  6519.981
 500  6444.93
 501  6374.665
 502  6212.667
 503  6150.521
 504  6261.344
 505  6488.251
 506  6631.224
 507  6246.868
 508  6498.601
 509  6938.683
 510  6902.049
 511  6385.092
