# Input file       =  1206430175.134664_cleaned.dat
# Candidate        =  PSR_0332+5434
# Telescope        =  AR
# Epoch_topo       =  58207.312432114166
# Epoch_bary       =  N/A
# T_sample         =  0.002
# Data Folded      =  7208960
# Data Avg         =  0.0909536774301084
# Data StdDev      =  1.00009693123743 
# Profile Bins     =  512
# Profile Avg      =  1280.6331016855  
# Profile StdDev   =  118.670677574272 
# Reduced chi-sqr  =  2.679
# Prob(Noise)      <  1.76e-79   (~18.8 sigma)
# P_topo (ms)      =  714.570614445712  +/- 0.000346
# P'_topo (s/s)    =  -0                +/- 1.86e-10
# P''_topo (s/s^2) =  0                 +/- 8.37e-14
# P_bary (ms)      =  N/A
# P'_bary (s/s)    =  N/A
# P''_bary (s/s^2) =  N/A
# P_orb (s)        =  N/A
# asin(i)/c (s)    =  N/A
# eccentricity     =  N/A
# w (rad)          =  N/A
# T_peri           =  N/A
######################################################
   0  2293.101
   1  2070.912
   2  1751.419
   3  1566.001
   4  1435.712
   5  1376.146
   6  1424.961
   7  1512.57
   8  1443.118
   9  1406.969
  10  1487.77
  11  1484.715
  12  1481.3
  13  1460.394
  14  1460.117
  15  1474.141
  16  1456.634
  17  1271.183
  18  1235.636
  19  1290.897
  20  1296.505
  21  1351.255
  22  1401.754
  23  1418.035
  24  1369.479
  25  1396.85
  26  1328.223
  27  1305.784
  28  1360.477
  29  1355.164
  30  1192.34
  31  1231.155
  32  1313.051
  33  1290.693
  34  1147.307
  35  1140.877
  36  1312.957
  37  1265.422
  38  1365.162
  39  1310.271
  40  1330.357
  41  1280.17
  42  1314.519
  43  1278.768
  44  1320.069
  45  1299.38
  46  1155.877
  47  1180.095
  48  1250.771
  49  1338.364
  50  1255.753
  51  1243.597
  52  1229.49
  53  1318.421
  54  1289.397
  55  1344.583
  56  1342.215
  57  1211.346
  58  1279.427
  59  1284.043
  60  1292.723
  61  1246.969
  62  1269.693
  63  1248.89
  64  1174.78
  65  1208.83
  66  1262.544
  67  1188.315
  68  1264.738
  69  1333.632
  70  1369.668
  71  1311.135
  72  1287.411
  73  1384.659
  74  1310.072
  75  1367.667
  76  1352.779
  77  1131.45
  78  1160.79
  79  1167.396
  80  1129.169
  81  1054.648
  82  1144.989
  83  1047.866
  84  1062.245
  85  1245.757
  86  1340.786
  87  1194.816
  88  1191.301
  89  1202.86
  90  1128.107
  91  1189.074
  92  1192.551
  93  1151.643
  94  1233.381
  95  1332.162
  96  1294.44
  97  1161.418
  98  1206.916
  99  1192.22
 100  1153.552
 101  1229.656
 102  1183.107
 103  1327.937
 104  1244.68
 105  1205.44
 106  1268.172
 107  1199.962
 108  1260.202
 109  1340.673
 110  1167.754
 111  1182.723
 112  1178.501
 113  1093.246
 114  1043.162
 115  975.7352
 116  1054.242
 117  1076.248
 118  1116.783
 119  1071.338
 120  1015.949
 121  1085.219
 122  1276.356
 123  1210.876
 124  1171.918
 125  1167.23
 126  1169.513
 127  1229.167
 128  1149.231
 129  983.8491
 130  1143.432
 131  1188.362
 132  1195.904
 133  1147.768
 134  1087.828
 135  1161.359
 136  1159.175
 137  1136.833
 138  1136.325
 139  1143.506
 140  1277.496
 141  1292.026
 142  1224.742
 143  1117.821
 144  1113.693
 145  1189.73
 146  1127.281
 147  1070.887
 148  1178.207
 149  1182.708
 150  1095.84
 151  1150.655
 152  1238.995
 153  1179.682
 154  1170.369
 155  1209.498
 156  1235.235
 157  1193.252
 158  1204.478
 159  1199.844
 160  1104.782
 161  1067.594
 162  1066.549
 163  1067.43
 164  1044.142
 165  1104.755
 166  1074.517
 167  1213.185
 168  1267.474
 169  1174.441
 170  1195.171
 171  1231.899
 172  1234.617
 173  1248.454
 174  1235.369
 175  1218.919
 176  1188.592
 177  1204.906
 178  1204.043
 179  1234.278
 180  1163.961
 181  1153.829
 182  1114.055
 183  1078.106
 184  1042.948
 185  1069.479
 186  1078.994
 187  1161.649
 188  1296.594
 189  1244.944
 190  1124.697
 191  1112.739
 192  1140.843
 193  1174.992
 194  1143.597
 195  1181.088
 196  1159.168
 197  1120.884
 198  1097.052
 199  1149.138
 200  1153.833
 201  1194.676
 202  1110.374
 203  1200.814
 204  1288.576
 205  1197.417
 206  1212.493
 207  1220.175
 208  1236.715
 209  1172.839
 210  1172.389
 211  1291.392
 212  1204.954
 213  1203.035
 214  1218.45
 215  1154.852
 216  1175.857
 217  1266.271
 218  1201.994
 219  1171.874
 220  1250.175
 221  1231.242
 222  1244.962
 223  1232.699
 224  1202.837
 225  1187.118
 226  1331.974
 227  1285.643
 228  1194.171
 229  1297.206
 230  1338.111
 231  1279.294
 232  1287.595
 233  1289.727
 234  1280.586
 235  1241.308
 236  1352.876
 237  1384.257
 238  1245.213
 239  1349.455
 240  1261.116
 241  1178.481
 242  1271.876
 243  1284.769
 244  1083.344
 245  1002.088
 246  1097.111
 247  1147.583
 248  1135.413
 249  1144.716
 250  1177.587
 251  1230.097
 252  1268.024
 253  1224.774
 254  1199.456
 255  1246.253
 256  1194.147
 257  1150.476
 258  1011.319
 259  1079.005
 260  1224.036
 261  1369.199
 262  1335.33
 263  1176.401
 264  1220.95
 265  1114.276
 266  1065.213
 267  1155.745
 268  1181.719
 269  1121.341
 270  1197.174
 271  1283.213
 272  1344.034
 273  1403.975
 274  1323.661
 275  1252.434
 276  1300.923
 277  1284.524
 278  1223.045
 279  1270.546
 280  1289.452
 281  1213.236
 282  1195.557
 283  1290.516
 284  1301.038
 285  1255.646
 286  1329.824
 287  1369.364
 288  1411.448
 289  1337.517
 290  1355.564
 291  1379.395
 292  1244.522
 293  1236.608
 294  1285.362
 295  1240.402
 296  1275.104
 297  1280.304
 298  1204.6
 299  1236.18
 300  1303.236
 301  1290.683
 302  1299.362
 303  1404.653
 304  1335.505
 305  1266.238
 306  1307.411
 307  1303.38
 308  1305.981
 309  1292.34
 310  1161.125
 311  1077.347
 312  1154.5
 313  1192.207
 314  1266.801
 315  1219.465
 316  1185.89
 317  1292.811
 318  1295.969
 319  1230.305
 320  1200.554
 321  1227.994
 322  1314.426
 323  1231.165
 324  1229.692
 325  1305.246
 326  1280.136
 327  1163.891
 328  1163.872
 329  1246.547
 330  1193.737
 331  1242.756
 332  1288.793
 333  1291.731
 334  1231.305
 335  1210.798
 336  1229.123
 337  1262.622
 338  1314.126
 339  1255.282
 340  1313.927
 341  1193.881
 342  1217.484
 343  1126.085
 344  1123.58
 345  1217.529
 346  1258.569
 347  1317.079
 348  1253.274
 349  1176.539
 350  1200.602
 351  1334.833
 352  1223.601
 353  1273.639
 354  1387.325
 355  1319.871
 356  1321.859
 357  1263.197
 358  1320.621
 359  1332.644
 360  1152.52
 361  1212.98
 362  1239.778
 363  1231.264
 364  1198.104
 365  1240.671
 366  1256.506
 367  1291.816
 368  1284.673
 369  1278.085
 370  1410.029
 371  1336.634
 372  1396.748
 373  1334.8
 374  1337.936
 375  1267.798
 376  1272.956
 377  1218.965
 378  1190.817
 379  1233.6
 380  1316.308
 381  1264.096
 382  1329.707
 383  1273.172
 384  1374.527
 385  1490.978
 386  1408.801
 387  1395.101
 388  1429.967
 389  1320.233
 390  1272.711
 391  1326.668
 392  1361.808
 393  1274.986
 394  1256.033
 395  1243.32
 396  1313.681
 397  1358.654
 398  1386.339
 399  1288.705
 400  1376.081
 401  1349.567
 402  1298.564
 403  1346.643
 404  1359.221
 405  1303.848
 406  1300.425
 407  1495.775
 408  1367.021
 409  1244.301
 410  1264.775
 411  1445.397
 412  1389.415
 413  1362.9
 414  1304.823
 415  1329.727
 416  1384.252
 417  1357.002
 418  1345.035
 419  1401.497
 420  1408.467
 421  1382.19
 422  1318.531
 423  1443.218
 424  1368.896
 425  1410.555
 426  1348.326
 427  1251.258
 428  1348.301
 429  1326.899
 430  1301.219
 431  1265.683
 432  1424.538
 433  1411.996
 434  1325.506
 435  1418.901
 436  1410.346
 437  1430.825
 438  1325.947
 439  1372.263
 440  1336.9
 441  1390.24
 442  1376.934
 443  1344.775
 444  1406.983
 445  1401.858
 446  1413.053
 447  1374.265
 448  1403.427
 449  1344.772
 450  1340.821
 451  1407.328
 452  1405.736
 453  1451.866
 454  1467.456
 455  1380.75
 456  1328.839
 457  1429.242
 458  1437.147
 459  1389.335
 460  1334.308
 461  1336.605
 462  1390.671
 463  1310.476
 464  1305.739
 465  1346.03
 466  1335.163
 467  1349.476
 468  1349.485
 469  1387.437
 470  1451.778
 471  1521.88
 472  1455.151
 473  1395.611
 474  1285.051
 475  1311.372
 476  1280.885
 477  1279.717
 478  1267.924
 479  1307.248
 480  1406.654
 481  1317.713
 482  1354.337
 483  1323.853
 484  1346.375
 485  1482.059
 486  1577.719
 487  1512.581
 488  1422.026
 489  1392.228
 490  1479.207
 491  1499.132
 492  1527.653
 493  1534.629
 494  1468.916
 495  1459.21
 496  1415.245
 497  1415.57
 498  1352.976
 499  1304.316
 500  1330.457
 501  1460.324
 502  1495.241
 503  1461.118
 504  1605.564
 505  1558.262
 506  1488.401
 507  1548.462
 508  1615.084
 509  1828.442
 510  2125
 511  2292.646
