# Input file       =  1206444813.112411_cleaned.dat
# Candidate        =  PSR_0332+5434
# Telescope        =  AR
# Epoch_topo       =  58207.481853152902
# Epoch_bary       =  N/A
# T_sample         =  0.002
# Data Folded      =  7340032
# Data Avg         =  0.0961894290268192
# Data StdDev      =  1.00010987174241 
# Profile Bins     =  512
# Profile Avg      =  1378.89146241879 
# Profile StdDev   =  119.746191654097 
# Reduced chi-sqr  =  1.012
# Prob(Noise)      <  0.414   (~0.2 sigma)
# P_topo (ms)      =  714.570536219118  +/- 0.000776
# P'_topo (s/s)    =  -0                +/- 4.1e-10
# P''_topo (s/s^2) =  0                 +/- 1.81e-13
# P_bary (ms)      =  N/A
# P'_bary (s/s)    =  N/A
# P''_bary (s/s^2) =  N/A
# P_orb (s)        =  N/A
# asin(i)/c (s)    =  N/A
# eccentricity     =  N/A
# w (rad)          =  N/A
# T_peri           =  N/A
######################################################
   0  1988.33
   1  1913.444
   2  1634.397
   3  1418.899
   4  1436.898
   5  1414.454
   6  1416.882
   7  1495.792
   8  1504.534
   9  1483.382
  10  1481.767
  11  1466.88
  12  1435.409
  13  1504.031
  14  1576.423
  15  1642.406
  16  1509.484
  17  1446.818
  18  1398.57
  19  1441.862
  20  1466.195
  21  1457.392
  22  1446.213
  23  1450.906
  24  1424.085
  25  1392.272
  26  1340.179
  27  1325.361
  28  1324.384
  29  1427.361
  30  1413.81
  31  1417.713
  32  1424.034
  33  1418.938
  34  1512.805
  35  1467.177
  36  1395.991
  37  1406.243
  38  1414.357
  39  1350.49
  40  1424.967
  41  1339.204
  42  1412.311
  43  1462.647
  44  1434.853
  45  1337.261
  46  1354.334
  47  1313.769
  48  1342.088
  49  1382.66
  50  1446.829
  51  1426.27
  52  1399.867
  53  1432.06
  54  1422.782
  55  1371.079
  56  1449.884
  57  1416.01
  58  1392.227
  59  1381.434
  60  1421.484
  61  1346.442
  62  1365.98
  63  1277.521
  64  1372.947
  65  1426.249
  66  1370.432
  67  1430.965
  68  1411.015
  69  1331.781
  70  1332.353
  71  1318.362
  72  1357.104
  73  1256.046
  74  1373.544
  75  1395.138
  76  1336.652
  77  1348.122
  78  1351.14
  79  1349.833
  80  1297.541
  81  1365.639
  82  1314.742
  83  1249.682
  84  1319.332
  85  1249.703
  86  1215
  87  1263.93
  88  1336.069
  89  1370.859
  90  1363.078
  91  1371.699
  92  1407.418
  93  1405.33
  94  1341.311
  95  1267.518
  96  1283.838
  97  1330.64
  98  1377.033
  99  1392.185
 100  1216.24
 101  1207.625
 102  1385.321
 103  1417.502
 104  1360.057
 105  1338.828
 106  1385.411
 107  1346.472
 108  1369.559
 109  1439.806
 110  1472.536
 111  1538.589
 112  1491.878
 113  1487.8
 114  1501.73
 115  1503.951
 116  1395.489
 117  1416.77
 118  1463.992
 119  1474.268
 120  1392.329
 121  1373.292
 122  1447.919
 123  1498.003
 124  1437.834
 125  1483.871
 126  1456.829
 127  1417.206
 128  1371.549
 129  1339.727
 130  1409.776
 131  1442.387
 132  1516.372
 133  1559.927
 134  1548.635
 135  1482.912
 136  1510.041
 137  1495.469
 138  1433.558
 139  1461.894
 140  1326.789
 141  1362.781
 142  1494.535
 143  1472.761
 144  1370.339
 145  1387.774
 146  1413.318
 147  1410.168
 148  1398.653
 149  1438.174
 150  1364.358
 151  1359.051
 152  1403.426
 153  1466.988
 154  1490.19
 155  1458.125
 156  1449.418
 157  1469.074
 158  1448.16
 159  1452.533
 160  1467.218
 161  1510.636
 162  1477.037
 163  1440.391
 164  1448.774
 165  1425.168
 166  1384.701
 167  1412.161
 168  1493.69
 169  1435.329
 170  1414.137
 171  1415.393
 172  1379.884
 173  1335.77
 174  1370.257
 175  1384.314
 176  1387.657
 177  1362.596
 178  1394.148
 179  1382.678
 180  1400.875
 181  1309.49
 182  1327.853
 183  1395.746
 184  1438.908
 185  1394.809
 186  1382.053
 187  1355.652
 188  1351.42
 189  1382.356
 190  1430.409
 191  1390.024
 192  1343.258
 193  1395.549
 194  1482.466
 195  1420.413
 196  1425.617
 197  1405.394
 198  1415.013
 199  1444.944
 200  1414.923
 201  1444.319
 202  1439.222
 203  1405.337
 204  1406.292
 205  1372.11
 206  1349.348
 207  1362.646
 208  1353.505
 209  1373.945
 210  1397.222
 211  1341.443
 212  1276.657
 213  1352.794
 214  1308.986
 215  1392.877
 216  1338.445
 217  1388.114
 218  1295.884
 219  1198.319
 220  1230.281
 221  1273.766
 222  1338.758
 223  1238.451
 224  1213.279
 225  1308.088
 226  1320.226
 227  1288.359
 228  1308.585
 229  1293.817
 230  1332.271
 231  1338.189
 232  1299.415
 233  1416.703
 234  1365.159
 235  1413.688
 236  1467.407
 237  1379.047
 238  1277.377
 239  1311.873
 240  1379.588
 241  1384.799
 242  1346.648
 243  1372.611
 244  1397.499
 245  1298.929
 246  1277.58
 247  1240.703
 248  1309.615
 249  1325.678
 250  1320.021
 251  1342.72
 252  1406.545
 253  1394.421
 254  1412.097
 255  1337.307
 256  1358.387
 257  1359.147
 258  1384.439
 259  1311.188
 260  1363.225
 261  1402.586
 262  1348.045
 263  1354.4
 264  1305.735
 265  1274.842
 266  1356.489
 267  1355.353
 268  1314.092
 269  1330.863
 270  1361.788
 271  1303.675
 272  1277.652
 273  1319.079
 274  1303.706
 275  1248.003
 276  1319.046
 277  1403.999
 278  1400.523
 279  1374.988
 280  1392.132
 281  1365.393
 282  1264.746
 283  1245.096
 284  1261.359
 285  1271.133
 286  1299.859
 287  1314.917
 288  1331.713
 289  1347.557
 290  1266.25
 291  1290.472
 292  1275.822
 293  1299.603
 294  1286.64
 295  1382.05
 296  1375.726
 297  1282.808
 298  1269.442
 299  1297.329
 300  1312.885
 301  1312.609
 302  1413.126
 303  1442.336
 304  1383.424
 305  1393.232
 306  1411.649
 307  1390.613
 308  1320.437
 309  1331.451
 310  1289.611
 311  1212.579
 312  1275.017
 313  1274.119
 314  1232.988
 315  1290.196
 316  1375.198
 317  1357.488
 318  1380.014
 319  1385.282
 320  1321.95
 321  1343.082
 322  1403.613
 323  1414.127
 324  1404.187
 325  1389.48
 326  1411.015
 327  1341.373
 328  1258.893
 329  1270.782
 330  1289.933
 331  1366.346
 332  1390.516
 333  1354.28
 334  1320.342
 335  1330.112
 336  1271.814
 337  1275.06
 338  1367.216
 339  1387.608
 340  1408.256
 341  1391.818
 342  1439.395
 343  1439.937
 344  1394.121
 345  1343.095
 346  1415.15
 347  1345.192
 348  1368.202
 349  1388.925
 350  1354.284
 351  1413.584
 352  1393.307
 353  1393.572
 354  1380.421
 355  1386.809
 356  1486.929
 357  1408.41
 358  1369.8
 359  1418.543
 360  1328.794
 361  1358.282
 362  1359.505
 363  1343.605
 364  1296.524
 365  1200.929
 366  1160.816
 367  1213.317
 368  1279.274
 369  1255.545
 370  1226.383
 371  1268.743
 372  1346.342
 373  1309.929
 374  1261.188
 375  1350.36
 376  1394.817
 377  1297.258
 378  1347.067
 379  1340.554
 380  1269.388
 381  1265.442
 382  1299.777
 383  1374.804
 384  1375.036
 385  1398.113
 386  1338.435
 387  1234
 388  1228.546
 389  1305.511
 390  1253.467
 391  1363.129
 392  1330.163
 393  1230.146
 394  1173.695
 395  1226.926
 396  1287.29
 397  1293.34
 398  1287.836
 399  1288.335
 400  1411.787
 401  1310.358
 402  1325.945
 403  1389.061
 404  1345.963
 405  1314.103
 406  1313.935
 407  1310.373
 408  1311.906
 409  1248.343
 410  1293.74
 411  1348.262
 412  1387.115
 413  1409.419
 414  1399.36
 415  1417.04
 416  1358.991
 417  1431.855
 418  1435.441
 419  1350.901
 420  1374.772
 421  1366.287
 422  1309.947
 423  1292.474
 424  1385.217
 425  1406.113
 426  1449.706
 427  1452.068
 428  1382.62
 429  1342.953
 430  1394.282
 431  1342.533
 432  1337.155
 433  1419.99
 434  1447.747
 435  1465.205
 436  1422.663
 437  1405.465
 438  1376.751
 439  1388.327
 440  1338.768
 441  1348.912
 442  1372.966
 443  1412.783
 444  1488.347
 445  1427.444
 446  1353.724
 447  1373.569
 448  1425.487
 449  1343.588
 450  1353.3
 451  1410.493
 452  1437.029
 453  1402.123
 454  1398.71
 455  1460.657
 456  1456.769
 457  1407.272
 458  1454.049
 459  1419.984
 460  1381.758
 461  1416.014
 462  1415.272
 463  1438.037
 464  1393.677
 465  1396.139
 466  1416.961
 467  1353.461
 468  1423.086
 469  1345.777
 470  1307.642
 471  1257.631
 472  1281.065
 473  1383.832
 474  1343.031
 475  1250.046
 476  1306.638
 477  1357.351
 478  1396.664
 479  1380.125
 480  1367.423
 481  1437.734
 482  1448.646
 483  1398.531
 484  1327.116
 485  1354.849
 486  1388.896
 487  1434.933
 488  1402.751
 489  1400.01
 490  1411.368
 491  1397.61
 492  1382.36
 493  1326.381
 494  1337.384
 495  1399.049
 496  1425.751
 497  1388.807
 498  1316.263
 499  1359.599
 500  1455.694
 501  1452.26
 502  1453.551
 503  1378.384
 504  1442.958
 505  1527.423
 506  1466.703
 507  1459.566
 508  1591.457
 509  1753.303
 510  1875.294
 511  1931.572
