# Input file       =  1207823475.107672_cleaned.dat
# Candidate        =  PSR_0332+5434
# Telescope        =  AR
# Epoch_topo       =  58223.438589209167
# Epoch_bary       =  N/A
# T_sample         =  0.002
# Data Folded      =  7340032
# Data Avg         =  0.301760340717529
# Data StdDev      =  5.4362127401738  
# Profile Bins     =  1024
# Profile Avg      =  2163.00135445156 
# Profile StdDev   =  460.251743505308 
# Reduced chi-sqr  =  1.159
# Prob(Noise)      <  0.000285   (~3.4 sigma)
# P_topo (ms)      =  714.559832864403  +/- 0.000683
# P'_topo (s/s)    =  -0                +/- 3.6e-10
# P''_topo (s/s^2) =  0                 +/- 1.59e-13
# P_bary (ms)      =  N/A
# P'_bary (s/s)    =  N/A
# P''_bary (s/s^2) =  N/A
# P_orb (s)        =  N/A
# asin(i)/c (s)    =  N/A
# eccentricity     =  N/A
# w (rad)          =  N/A
# T_peri           =  N/A
######################################################
   0  2262.683
   1  2284.27
   2  2321.279
   3  2230.167
   4  2172.229
   5  2142.104
   6  2175.081
   7  2225.672
   8  2211.381
   9  2098.991
  10  2011.582
  11  2053.599
  12  2160.691
  13  2163.13
  14  2146.498
  15  2065.203
  16  2088.485
  17  2213.312
  18  2277.028
  19  2186.982
  20  2166.007
  21  2277.734
  22  2451.264
  23  2410.843
  24  2310.857
  25  2139.586
  26  2175.715
  27  2205.33
  28  2107.611
  29  2085.309
  30  2046.232
  31  2047.647
  32  2117.763
  33  2092.532
  34  2105.33
  35  2037.552
  36  1994.472
  37  2139.533
  38  2322.333
  39  2385.168
  40  2243.933
  41  2060.601
  42  2016.994
  43  2109.068
  44  2149.256
  45  2183.745
  46  2202.681
  47  2182.12
  48  2205.457
  49  2050.623
  50  2031.954
  51  1993.553
  52  2095.976
  53  2205.66
  54  2236.708
  55  2158.718
  56  2101.826
  57  2057.513
  58  1991.22
  59  2036.686
  60  2100.473
  61  2127.566
  62  1979.52
  63  1944.74
  64  1950.98
  65  2036.802
  66  2078.283
  67  2218.777
  68  2297.078
  69  2283.781
  70  2234.659
  71  2211.871
  72  2274.389
  73  2225.521
  74  2201.153
  75  2250.876
  76  2267.589
  77  2187.453
  78  2110.364
  79  2122.157
  80  2177.131
  81  2264.538
  82  2357.644
  83  2339.281
  84  2315.083
  85  2154.465
  86  2145.689
  87  2245.036
  88  2328.248
  89  2188.373
  90  2159.132
  91  2175.403
  92  2296.19
  93  2270.831
  94  2318.5
  95  2380.807
  96  2379.922
  97  2272.435
  98  2160.488
  99  2219.42
 100  2251.734
 101  2208.87
 102  2188.776
 103  2108.475
 104  2079.307
 105  2114.017
 106  2173.524
 107  2212.265
 108  2149.922
 109  2149.085
 110  2206.14
 111  2251.913
 112  2175.615
 113  2262.261
 114  2367.615
 115  2369.048
 116  2356.933
 117  2363.67
 118  2253.533
 119  2265.162
 120  2272.19
 121  2414.282
 122  2420.321
 123  2345.969
 124  2399.643
 125  2383.861
 126  2395.311
 127  2359.081
 128  2340.466
 129  2217.509
 130  2181.373
 131  2265.645
 132  2303.73
 133  2304.611
 134  2139.195
 135  2162.437
 136  2183.719
 137  2363.58
 138  2448.297
 139  2445.483
 140  2381.217
 141  2329.582
 142  2262.977
 143  2274.343
 144  2275.807
 145  2334.774
 146  2313.459
 147  2328.287
 148  2351.494
 149  2425.623
 150  2463.64
 151  2540.155
 152  2611.595
 153  2573.461
 154  2598.363
 155  2486.514
 156  2510.215
 157  2457.672
 158  2474.198
 159  2385.996
 160  2370.703
 161  2487.592
 162  2498.708
 163  2426.238
 164  2298.467
 165  2349.927
 166  2341.367
 167  2389.143
 168  2354.816
 169  2401.555
 170  2292.571
 171  2323.709
 172  2307.241
 173  2319.451
 174  2231.953
 175  2273.746
 176  2385.033
 177  2406.137
 178  2516.425
 179  2368.873
 180  2387.908
 181  2300.564
 182  2296.238
 183  2290.357
 184  2286.757
 185  2315.529
 186  2302.96
 187  2374.043
 188  2479.32
 189  2479.085
 190  2408.275
 191  2475.482
 192  2520.02
 193  2474.393
 194  2377.314
 195  2239.372
 196  2289.331
 197  2373.541
 198  2327.632
 199  2298.292
 200  2086.799
 201  2069.193
 202  2186.331
 203  2274.116
 204  2409.417
 205  2417.359
 206  2386.015
 207  2214.901
 208  2182.402
 209  2221.243
 210  2247.035
 211  2196.877
 212  2215.248
 213  2291.317
 214  2388.858
 215  2462.241
 216  2468.623
 217  2517.124
 218  2601.464
 219  2552.018
 220  2622.976
 221  2681.391
 222  2620.271
 223  2452.963
 224  2381.228
 225  2301.335
 226  2246.391
 227  2083.41
 228  2018.572
 229  2145.306
 230  2312.878
 231  2446.749
 232  2507.788
 233  2535.679
 234  2467.631
 235  2368.721
 236  2280.942
 237  2427.405
 238  2366.62
 239  2404.405
 240  2252.544
 241  2321.583
 242  2360.323
 243  2330.203
 244  2212.208
 245  2108.008
 246  2165.32
 247  2126.723
 248  2168.477
 249  2154.124
 250  2121.546
 251  2101.494
 252  2147.75
 253  2290.271
 254  2345.156
 255  2297.933
 256  2283.085
 257  2322.446
 258  2266.155
 259  2282.657
 260  2307.129
 261  2330.578
 262  2332.26
 263  2251.045
 264  2289.695
 265  2188.584
 266  2208.269
 267  2183.203
 268  2228.084
 269  2353.506
 270  2416.479
 271  2347.867
 272  2181.509
 273  2180.32
 274  2146.921
 275  2115.438
 276  2106.198
 277  2200.545
 278  2251.519
 279  2231.246
 280  2208.336
 281  2163.676
 282  2213.179
 283  2359.76
 284  2449.309
 285  2504.362
 286  2504.612
 287  2393.504
 288  2359.067
 289  2299.341
 290  2469.527
 291  2455.355
 292  2379.049
 293  2233.312
 294  2228.645
 295  2183.803
 296  2271.253
 297  2219.578
 298  2262.032
 299  2343.254
 300  2374.897
 301  2389.66
 302  2362.323
 303  2283.989
 304  2256.391
 305  2219.546
 306  2231.163
 307  2334.9
 308  2268.275
 309  2339.364
 310  2262.393
 311  2342.687
 312  2327.393
 313  2513.518
 314  2506.449
 315  2512.838
 316  2362.041
 317  2497.935
 318  2608.894
 319  2520.029
 320  2491.633
 321  2376.044
 322  2360.536
 323  2312.364
 324  2309.257
 325  2428.94
 326  2404.046
 327  2393.222
 328  2413.944
 329  2546.801
 330  2503.779
 331  2443.564
 332  2313.634
 333  2378.604
 334  2497.535
 335  2573.206
 336  2542.573
 337  2466.321
 338  2461.439
 339  2514.73
 340  2576.226
 341  2479.61
 342  2422.156
 343  2382.458
 344  2495.841
 345  2492.769
 346  2435.516
 347  2335.656
 348  2363.37
 349  2437.547
 350  2483.565
 351  2385.961
 352  2317.265
 353  2331.612
 354  2317.614
 355  2279.69
 356  2270.968
 357  2358.145
 358  2405.483
 359  2303.064
 360  2263.383
 361  2407.401
 362  2355.889
 363  2245.587
 364  2122.072
 365  2216.923
 366  2233.876
 367  2221.526
 368  2027.623
 369  1978.134
 370  1997.75
 371  2196.295
 372  2261.004
 373  2306.889
 374  2278.491
 375  2275.177
 376  2197.131
 377  2114.538
 378  2089.174
 379  2096.65
 380  2153.667
 381  2082.595
 382  2100.351
 383  2056.487
 384  2176.521
 385  2299.146
 386  2196.601
 387  2115.009
 388  1975.925
 389  2055.105
 390  2013.067
 391  2017.713
 392  2082.572
 393  2121.296
 394  2205.37
 395  2155.283
 396  2095.265
 397  2061.509
 398  2100.131
 399  2085.322
 400  2110.041
 401  2014.746
 402  1954.654
 403  1882.512
 404  1896.467
 405  2044.133
 406  2129.799
 407  2077.113
 408  1978.549
 409  2103.749
 410  2161.409
 411  2087.271
 412  2072.087
 413  2050.722
 414  2181.85
 415  2182.934
 416  2154.59
 417  2066.741
 418  2063.055
 419  1952.071
 420  1893.328
 421  1801.177
 422  1991.398
 423  2098.418
 424  2072.697
 425  2162.775
 426  2019.95
 427  1944.756
 428  1833.968
 429  1996.575
 430  2106.214
 431  2153.196
 432  2131.702
 433  2163.004
 434  2252.231
 435  2219.615
 436  2150.562
 437  2185.214
 438  2240.407
 439  2250.515
 440  2253.917
 441  2252.563
 442  2317.103
 443  2360.309
 444  2403.213
 445  2224.179
 446  2139.041
 447  2209.395
 448  2214.826
 449  2233.35
 450  2298.441
 451  2431.799
 452  2439.778
 453  2367.141
 454  2385.178
 455  2329.31
 456  2427.254
 457  2456.048
 458  2588.63
 459  2487.924
 460  2392.957
 461  2346.9
 462  2312.869
 463  2284.036
 464  2265.869
 465  2213.449
 466  2237.878
 467  2140.064
 468  2102.533
 469  2063.069
 470  2040.097
 471  2191.786
 472  2223.402
 473  2205.212
 474  2194.417
 475  2240.516
 476  2270.499
 477  2172.453
 478  2004.632
 479  1888.254
 480  1848
 481  1905.089
 482  1993.308
 483  2052.351
 484  2220.311
 485  2229.471
 486  2184.375
 487  2117.82
 488  2126.009
 489  2063.351
 490  2071.729
 491  2123.177
 492  2146.675
 493  2144.65
 494  2028.067
 495  1942.784
 496  1911.108
 497  1932.407
 498  1996.501
 499  2052.617
 500  2000.864
 501  2036.054
 502  1919.063
 503  1970.819
 504  1934.81
 505  2110.125
 506  2098.087
 507  2055.37
 508  2086.041
 509  2154.229
 510  2285.127
 511  2189.699
 512  2165.931
 513  2077.12
 514  2124.936
 515  2102.621
 516  2127.379
 517  2235.471
 518  2387.352
 519  2555.331
 520  2474.587
 521  2294.718
 522  2207.258
 523  2236.949
 524  2303.213
 525  2417.23
 526  2400.53
 527  2354.783
 528  2348.499
 529  2307.055
 530  2322.96
 531  2343.053
 532  2343.705
 533  2340.253
 534  2201.553
 535  2206.51
 536  2173.834
 537  2118.04
 538  2147.389
 539  2268.499
 540  2274.331
 541  2198.576
 542  2178.016
 543  2145.949
 544  2192.342
 545  2065.201
 546  2068.706
 547  1945.201
 548  2072.99
 549  2018.849
 550  2002.198
 551  1987.949
 552  2054.764
 553  2085.901
 554  2029.229
 555  2055.393
 556  2011.142
 557  2054.35
 558  2015.648
 559  2041.693
 560  2084.684
 561  2093.646
 562  2117.88
 563  2179.39
 564  2328.392
 565  2360.179
 566  2210.523
 567  2043.148
 568  2166.125
 569  2153.934
 570  2155.155
 571  1981.165
 572  2010.88
 573  1981.187
 574  2131.22
 575  2197.116
 576  2193.551
 577  2205.33
 578  2305.486
 579  2371.96
 580  2370.371
 581  2352.547
 582  2481.285
 583  2445.541
 584  2376.823
 585  2288.173
 586  2350.712
 587  2496.919
 588  2512.083
 589  2599.767
 590  2567.667
 591  2503.183
 592  2408.766
 593  2475.776
 594  2670.36
 595  2804.033
 596  2877.206
 597  3012.276
 598  3267.382
 599  3478.594
 600  3687.035
 601  3750.709
 602  3787.059
 603  3736.812
 604  3732.364
 605  3776.497
 606  3713.487
 607  3435.431
 608  3069.052
 609  2805.169
 610  2680.302
 611  2514.788
 612  2334.732
 613  2283.261
 614  2267.174
 615  2347.2
 616  2417.83
 617  2394.506
 618  2393.913
 619  2198.176
 620  2205.596
 621  2280.67
 622  2437.843
 623  2266.997
 624  2164.334
 625  2148.048
 626  2120.027
 627  2140.489
 628  2224.533
 629  2344.444
 630  2493.568
 631  2483.147
 632  2466.188
 633  2331.067
 634  2367.396
 635  2496.558
 636  2470.55
 637  2316.128
 638  2212.753
 639  2212.84
 640  2129.619
 641  2069.303
 642  2001.72
 643  2038.133
 644  2068.698
 645  2040.486
 646  2034.134
 647  2025.892
 648  2076.662
 649  2061.71
 650  1961.882
 651  1932.58
 652  2060.619
 653  2078.367
 654  1972.687
 655  1846.905
 656  1900.389
 657  1883.492
 658  1880.921
 659  1914.552
 660  2072.132
 661  2046.9
 662  1995.15
 663  2072.417
 664  2065.746
 665  2073.992
 666  2043.892
 667  1999.468
 668  2008.948
 669  1907.158
 670  1919.416
 671  1837.549
 672  1813.526
 673  1846.965
 674  1775.952
 675  1897.398
 676  1885.177
 677  1954.309
 678  2028.126
 679  2007.61
 680  1920.673
 681  1920.421
 682  1983.334
 683  1953.227
 684  1860.541
 685  1730.663
 686  1711.812
 687  1686.092
 688  1680.574
 689  1695.764
 690  1786.86
 691  1875.884
 692  1846.864
 693  1932.156
 694  1976.104
 695  2064.715
 696  2026.945
 697  2082.737
 698  2022.314
 699  1970.222
 700  1846.582
 701  1784.232
 702  1844.467
 703  1800.067
 704  1761.052
 705  1756.848
 706  1848.718
 707  1946.49
 708  1876.94
 709  1915.22
 710  1884.055
 711  2052.245
 712  2026.147
 713  1983.893
 714  1851.019
 715  1717.22
 716  1695.194
 717  1728.369
 718  1695.437
 719  1582.138
 720  1534.162
 721  1556.368
 722  1626.163
 723  1634.528
 724  1731.786
 725  1871.593
 726  1928.845
 727  1864.186
 728  1809.96
 729  1746.274
 730  1676.243
 731  1607.451
 732  1551.248
 733  1643.798
 734  1694.088
 735  1795.931
 736  1835.642
 737  1823.167
 738  1697.545
 739  1823.185
 740  1911.267
 741  1921.691
 742  1916.768
 743  1886.919
 744  1853.795
 745  1810.301
 746  1935.448
 747  2031.906
 748  1992.433
 749  1952.127
 750  1840.154
 751  1739.613
 752  1624.686
 753  1609.907
 754  1854.359
 755  2002.555
 756  2077.063
 757  2058.763
 758  1962.169
 759  1876.323
 760  1831.816
 761  1886.406
 762  1894.114
 763  1852.734
 764  1738.729
 765  1769.236
 766  1654.492
 767  1656.896
 768  1580.932
 769  1543.609
 770  1560.006
 771  1596.147
 772  1768.488
 773  1798.049
 774  1817.916
 775  1769.445
 776  1865.51
 777  1820.358
 778  1899.492
 779  1823.668
 780  1798.12
 781  1826.723
 782  1897.608
 783  2011.612
 784  2106.982
 785  2120.108
 786  2114.658
 787  2152.874
 788  2138.324
 789  2255.928
 790  2224.492
 791  2178.657
 792  2090.621
 793  2095.48
 794  2160.872
 795  2150.422
 796  2235.567
 797  2167.19
 798  2115.743
 799  2147.823
 800  2289.255
 801  2433.601
 802  2320.782
 803  2192.461
 804  2109.355
 805  2078.717
 806  2029.549
 807  2024.276
 808  2056.476
 809  2208.821
 810  2334.018
 811  2208.743
 812  2014.626
 813  1911.648
 814  1996.2
 815  1996.797
 816  2002.408
 817  1796.223
 818  1717.978
 819  1631.544
 820  1717.084
 821  1792.061
 822  2019.112
 823  2103.05
 824  1965.09
 825  1813.597
 826  1822.889
 827  1872.697
 828  1777
 829  1746.034
 830  1814.609
 831  1858.408
 832  1901.408
 833  1968.675
 834  2135.626
 835  2096.563
 836  2022.519
 837  1989.693
 838  2042.968
 839  1969.343
 840  1882.139
 841  1961.292
 842  1940.971
 843  1870.5
 844  1786.053
 845  1767.242
 846  1794.641
 847  1791.738
 848  1872.356
 849  1817.516
 850  1874.521
 851  1721.254
 852  1737.125
 853  1718.554
 854  1646.312
 855  1747.781
 856  1839.215
 857  1988.816
 858  1862.162
 859  1936.638
 860  1893.403
 861  1776.702
 862  1790.606
 863  1743.833
 864  1768.276
 865  1715.31
 866  1766.99
 867  1743.937
 868  1754.37
 869  1687.972
 870  1834.966
 871  1932.327
 872  1931.856
 873  1890.375
 874  1835.262
 875  1680.339
 876  1589.61
 877  1651.541
 878  1860.049
 879  1824.419
 880  1732.816
 881  1700.212
 882  1634.493
 883  1677.097
 884  1722.361
 885  1620.241
 886  1603.754
 887  1675.947
 888  1776.395
 889  1843.787
 890  1886.563
 891  1955.327
 892  1958.853
 893  1838.061
 894  1840.499
 895  1879.677
 896  1964.06
 897  1869.391
 898  1821.912
 899  1774.407
 900  1658.843
 901  1520.866
 902  1661.627
 903  1873.036
 904  1913.664
 905  1938.713
 906  1926.711
 907  2007.521
 908  2117.684
 909  2097.328
 910  2058.241
 911  1922.88
 912  1808.353
 913  1818.551
 914  1905.605
 915  1983.91
 916  2008.994
 917  2046.906
 918  2060.264
 919  2119.967
 920  2102.852
 921  2164.894
 922  2178.92
 923  2183.432
 924  2218.224
 925  2166.422
 926  2137.383
 927  2090.053
 928  2187.921
 929  2333.978
 930  2373.949
 931  2383.505
 932  2464.581
 933  2546.045
 934  2527.997
 935  2500.386
 936  2471.874
 937  2432.546
 938  2473.141
 939  2515.147
 940  2578.687
 941  2497.152
 942  2474.65
 943  2481.132
 944  2494.001
 945  2512.577
 946  2518.976
 947  2482.861
 948  2349.95
 949  2227.264
 950  2181.862
 951  2273.831
 952  2387.738
 953  2455.534
 954  2411.549
 955  2270.841
 956  2270.938
 957  2272.117
 958  2425.116
 959  2365.328
 960  2307.166
 961  2259.943
 962  2311.446
 963  2351.655
 964  2275.021
 965  2227.427
 966  2286.257
 967  2311.419
 968  2264.239
 969  2222.214
 970  2176.102
 971  2114.995
 972  2170.151
 973  2021.708
 974  1846.025
 975  1769.973
 976  1851.425
 977  1906.719
 978  1876.882
 979  1878.854
 980  1947.627
 981  1969.512
 982  2012.021
 983  2023.883
 984  2061.246
 985  2033.784
 986  2114.456
 987  2170.021
 988  2131.458
 989  1987.717
 990  1877.028
 991  1786.543
 992  1892.143
 993  2007.766
 994  2010.52
 995  1952.186
 996  1942.062
 997  2008.702
 998  1912.541
 999  1899.03
1000  2051.287
1001  2169.803
1002  2246.783
1003  2121.251
1004  2123.731
1005  2101.668
1006  2151.212
1007  2159.533
1008  2097.3
1009  2057.479
1010  2017.358
1011  2002.822
1012  2054.601
1013  2167.784
1014  2166.014
1015  2218.922
1016  2254.109
1017  2219.691
1018  2204.401
1019  2194.411
1020  2264.916
1021  2285.085
1022  2282.718
1023  2172.42
