# Input file       =  1207659017.11272_cleaned.dat
# Candidate        =  PSR_0332+5434
# Telescope        =  AR
# Epoch_topo       =  58221.535140193519
# Epoch_bary       =  N/A
# T_sample         =  0.002
# Data Folded      =  7340032
# Data Avg         =  0.499204602428239
# Data StdDev      =  7.01228419960355 
# Profile Bins     =  512
# Profile Avg      =  7156.71049623117 
# Profile StdDev   =  839.602079155354 
# Reduced chi-sqr  =  1.045
# Prob(Noise)      <  0.232   (~0.7 sigma)
# P_topo (ms)      =  714.561435174338  +/- 0.000622
# P'_topo (s/s)    =  -0                +/- 3.28e-10
# P''_topo (s/s^2) =  0                 +/- 1.45e-13
# P_bary (ms)      =  N/A
# P'_bary (s/s)    =  N/A
# P''_bary (s/s^2) =  N/A
# P_orb (s)        =  N/A
# asin(i)/c (s)    =  N/A
# eccentricity     =  N/A
# w (rad)          =  N/A
# T_peri           =  N/A
######################################################
   0  7466.946
   1  7550.682
   2  7323.112
   3  7046.384
   4  7160.607
   5  6985.121
   6  7355.44
   7  7463.604
   8  7499.795
   9  7463.323
  10  7111.877
  11  7411.957
  12  7590.149
  13  7331.484
  14  7027
  15  6854.716
  16  7077.386
  17  7231.874
  18  6940.307
  19  6913.988
  20  7026.165
  21  6910.575
  22  6490.423
  23  6411.645
  24  6727.932
  25  6896.964
  26  7297.861
  27  7315.235
  28  7311.273
  29  7548.023
  30  7046.567
  31  7115.978
  32  7442.601
  33  7553.427
  34  7722.314
  35  7442.102
  36  7462.11
  37  7392.472
  38  7380.872
  39  7271.155
  40  7146.794
  41  7184.949
  42  7175.05
  43  7004.837
  44  7203.759
  45  7023.169
  46  6335.341
  47  6230.37
  48  6959.548
  49  7232.642
  50  6813.543
  51  7005.216
  52  6865.593
  53  7058.011
  54  6847.313
  55  6820.369
  56  6899.064
  57  7020.829
  58  6811.424
  59  6774.589
  60  6692.484
  61  6504.139
  62  6636.645
  63  6299.393
  64  6410.472
  65  6649.313
  66  6491.604
  67  6445.928
  68  6552.439
  69  6500.261
  70  6157.213
  71  6207.319
  72  6550.459
  73  6486.31
  74  6133.946
  75  5988.159
  76  6161.542
  77  6727.907
  78  6736.727
  79  6525.264
  80  6645.837
  81  6421.246
  82  6139.437
  83  6442.138
  84  6555.587
  85  6685.458
  86  6526.809
  87  6474.39
  88  6512.831
  89  6278.75
  90  6073.098
  91  5957.276
  92  6200.115
  93  6421.914
  94  6514.426
  95  6688.508
  96  6512.171
  97  6796.038
  98  6872.177
  99  6678.598
 100  6591.569
 101  6554.028
 102  6789.163
 103  6914.389
 104  6773.088
 105  7208.412
 106  7098.65
 107  7072.687
 108  7057.685
 109  6905.273
 110  7047.974
 111  7130.113
 112  7215.387
 113  7738.744
 114  7681.823
 115  7251.005
 116  7022.463
 117  7230.8
 118  7139.023
 119  7053.541
 120  6866.492
 121  7072.993
 122  7095.535
 123  6941.961
 124  7212.075
 125  7203.898
 126  7036.967
 127  7169.262
 128  7123.772
 129  7248.407
 130  7291.969
 131  6920.902
 132  6656.324
 133  6535.727
 134  6831.784
 135  6843.536
 136  7578.334
 137  7557.853
 138  7389.755
 139  7322.7
 140  7457.718
 141  7572.592
 142  7885.179
 143  7924.186
 144  7801.065
 145  7638.286
 146  7873.191
 147  7681.564
 148  7822.435
 149  7819.725
 150  7746.705
 151  7708.259
 152  7860.535
 153  8182.489
 154  8403.267
 155  7995.451
 156  7832.952
 157  7638.723
 158  7666.436
 159  7802.956
 160  7985.125
 161  7732.356
 162  7902.573
 163  7861.105
 164  7942.279
 165  7649.081
 166  7607.841
 167  7342.772
 168  7394.92
 169  7897.62
 170  7869.7
 171  7490.256
 172  7782.96
 173  8013.004
 174  7872.083
 175  7912.869
 176  7980.394
 177  8387.302
 178  8225.49
 179  8247.751
 180  8556.315
 181  8397.776
 182  8494.359
 183  8345.564
 184  8645.699
 185  8319.407
 186  8005.528
 187  8564.367
 188  8456.439
 189  8338.812
 190  8439.423
 191  8479.423
 192  7997.733
 193  8283.924
 194  8457.23
 195  8013.536
 196  7874.091
 197  8182.857
 198  8286.494
 199  7850.547
 200  7443.25
 201  7690.745
 202  7629.031
 203  7382.099
 204  7472.854
 205  7703.947
 206  7435.869
 207  7928.188
 208  7832.127
 209  7696.961
 210  7802.67
 211  7925.845
 212  7836.602
 213  7893.083
 214  7728.53
 215  7941.746
 216  7701.875
 217  7828.848
 218  8238.959
 219  8113.618
 220  8320.157
 221  7816.814
 222  7843.402
 223  8201.484
 224  8237.221
 225  8192.503
 226  7891.976
 227  7930.11
 228  8239.471
 229  7953.326
 230  7742.729
 231  7935.462
 232  7896.127
 233  7514.827
 234  7898.656
 235  8255.385
 236  8282.789
 237  8231.72
 238  8216.961
 239  7990.806
 240  7998.105
 241  8115.654
 242  7938.033
 243  7904.915
 244  7770.746
 245  7785.544
 246  7667.588
 247  7662.726
 248  7706.816
 249  7579.388
 250  7566.761
 251  7751.573
 252  7874.982
 253  7808.285
 254  7912.71
 255  7808.982
 256  7621.918
 257  8275.188
 258  8301.978
 259  8188.299
 260  8657.146
 261  8489.656
 262  8274.698
 263  8121.112
 264  8147.013
 265  7978.556
 266  8121.41
 267  7733.387
 268  7667.774
 269  8050.429
 270  7998.847
 271  7626.737
 272  6959.513
 273  6603.139
 274  6794.473
 275  7010.98
 276  7218.794
 277  7134.937
 278  6669.09
 279  6372.596
 280  6392.047
 281  7013.29
 282  6811.583
 283  7029.216
 284  6709.725
 285  6764.66
 286  6532.524
 287  6087.316
 288  6279.799
 289  6237.11
 290  6190.88
 291  6402.755
 292  6477.923
 293  6595.122
 294  7014.242
 295  6867.013
 296  7065.88
 297  6829.485
 298  7079.659
 299  8229.835
 300  8735.24
 301  9251.717
 302  8952.052
 303  8448.755
 304  8046.032
 305  7330.389
 306  6782.601
 307  6800.785
 308  6722.899
 309  6878.933
 310  6698.969
 311  6375.428
 312  6266.303
 313  6627.76
 314  6549.282
 315  6968.845
 316  6890.645
 317  6971.955
 318  6677.796
 319  6247.121
 320  6342.975
 321  6559.87
 322  6676.948
 323  6534.523
 324  6732.94
 325  6729.49
 326  6522.513
 327  6637.822
 328  6759.282
 329  6879.421
 330  6603.524
 331  6834.319
 332  6991.362
 333  6633.188
 334  6465.215
 335  6707.169
 336  6891.712
 337  6708.103
 338  6705.329
 339  6792.497
 340  6432.556
 341  6576.055
 342  6561.488
 343  6746.878
 344  6762.337
 345  6470.234
 346  6400.22
 347  6417.134
 348  6697.954
 349  6556.666
 350  6586.942
 351  6504.466
 352  6200.055
 353  6082.126
 354  6240.863
 355  6213.184
 356  6180.597
 357  6350.176
 358  6451.066
 359  6272.6
 360  6401.694
 361  6118.17
 362  6475.883
 363  6296.52
 364  6296.713
 365  6366.308
 366  6500.67
 367  6793.048
 368  6915.901
 369  6573.442
 370  6631.743
 371  7251.312
 372  7057.181
 373  7213.133
 374  7040.766
 375  6706.366
 376  6724.446
 377  6898.88
 378  7118.705
 379  7184.72
 380  7146.867
 381  7068.204
 382  7048.354
 383  6645.887
 384  6700.674
 385  6909.45
 386  6530.766
 387  6781.069
 388  6456.775
 389  6677.32
 390  6929.789
 391  6796.978
 392  6935.282
 393  6748.184
 394  6991.813
 395  6927.059
 396  7056.455
 397  7132.224
 398  7634.3
 399  7587.564
 400  7163.073
 401  7490.932
 402  7397.793
 403  7193.786
 404  7138.35
 405  7125.795
 406  7371.785
 407  7526.742
 408  7600.38
 409  8048.09
 410  7567.584
 411  7359.796
 412  7889.612
 413  7814.851
 414  7484.117
 415  7709.641
 416  7423.224
 417  7180.24
 418  7164.275
 419  7114.411
 420  7306.337
 421  7472.148
 422  7363.013
 423  7145.936
 424  7046.712
 425  6867.292
 426  6886.059
 427  6942.567
 428  7396.731
 429  6951.725
 430  6509.653
 431  6229.518
 432  6383.396
 433  6755.144
 434  6874.563
 435  6765.385
 436  6509.284
 437  6499.796
 438  6957.478
 439  6886.423
 440  6789.278
 441  6896.715
 442  6517.191
 443  6245.737
 444  6762.105
 445  6988.539
 446  6765.435
 447  6736.43
 448  6658.099
 449  6813.2
 450  6623.269
 451  6539.756
 452  6940.028
 453  7085.487
 454  6988.978
 455  6723.89
 456  6581.042
 457  6445.546
 458  6550.685
 459  6488.171
 460  6303.851
 461  6223.997
 462  6345.783
 463  6361.36
 464  6258.547
 465  6713.306
 466  6942.928
 467  6376.621
 468  6130.44
 469  6132.299
 470  6457.73
 471  6435.243
 472  6531.605
 473  6710.621
 474  6755.365
 475  6527.676
 476  6630.159
 477  7100.189
 478  7430.25
 479  7486.781
 480  7266.449
 481  7004.723
 482  6511.3
 483  6497.741
 484  6683.531
 485  6669.588
 486  6866.827
 487  6807.507
 488  6986.983
 489  6994.319
 490  7093.439
 491  7025.123
 492  6581.306
 493  6803.718
 494  6985.062
 495  6971.757
 496  6950.419
 497  6822.881
 498  7098.365
 499  6807.48
 500  6835.202
 501  6982.195
 502  7253.858
 503  7075.167
 504  7244.402
 505  7266.157
 506  7025.819
 507  7322.171
 508  7461.312
 509  7348.833
 510  7469.812
 511  7794.152
