# Input file       =  1207823475.107672_cleaned.dat
# Candidate        =  PSR_0332+5434
# Telescope        =  AR
# Epoch_topo       =  58223.438589209167
# Epoch_bary       =  N/A
# T_sample         =  0.002
# Data Folded      =  7340032
# Data Avg         =  0.0534288824884277
# Data StdDev      =  0.999967982874081
# Profile Bins     =  512
# Profile Avg      =  765.949641464082 
# Profile StdDev   =  119.729202869064 
# Reduced chi-sqr  =  2.167
# Prob(Noise)      <  4.63e-46   (~14.2 sigma)
# P_topo (ms)      =  714.559831777813  +/- 0.000461
# P'_topo (s/s)    =  -0                +/- 2.43e-10
# P''_topo (s/s^2) =  0                 +/- 1.07e-13
# P_bary (ms)      =  N/A
# P'_bary (s/s)    =  N/A
# P''_bary (s/s^2) =  N/A
# P_orb (s)        =  N/A
# asin(i)/c (s)    =  N/A
# eccentricity     =  N/A
# w (rad)          =  N/A
# T_peri           =  N/A
######################################################
   0  1522.323
   1  1489.478
   2  1155.779
   3  945.7764
   4  784.2053
   5  734.9352
   6  763.7167
   7  762.5076
   8  708.4427
   9  785.1805
  10  707.2526
  11  729.1605
  12  794.4656
  13  872.3505
  14  829.6983
  15  781.7794
  16  823.287
  17  773.726
  18  765.0674
  19  706.4832
  20  719.4296
  21  709.8108
  22  736.0699
  23  666.1226
  24  691.9134
  25  629.8209
  26  636.7649
  27  656.3321
  28  701.5571
  29  683.9524
  30  710.5604
  31  682.6921
  32  646.8305
  33  615.26
  34  562.9782
  35  624.5334
  36  649.0596
  37  665.0234
  38  659.398
  39  685.6745
  40  583.986
  41  548.3896
  42  553.4885
  43  597.5631
  44  630.7528
  45  651.6337
  46  677.4415
  47  667.965
  48  614.7856
  49  592.2692
  50  563.0928
  51  593.3597
  52  598.5792
  53  606.6008
  54  655.8771
  55  572.9883
  56  517.1701
  57  529.2102
  58  484.7682
  59  509.7935
  60  566.6086
  61  613.004
  62  584.0745
  63  510.4428
  64  455.3247
  65  546.6273
  66  611.2544
  67  554.2892
  68  639.9415
  69  636.8551
  70  593.9442
  71  619.23
  72  638.0545
  73  532.9549
  74  464.0913
  75  622.2571
  76  740.5417
  77  658.7095
  78  578.9612
  79  605.3685
  80  585.2104
  81  536.3206
  82  475.9747
  83  463.4861
  84  513.1788
  85  547.7026
  86  557.154
  87  612.3774
  88  555.1562
  89  627.3163
  90  728.3058
  91  768.8657
  92  790.4193
  93  745.9722
  94  670.9241
  95  672.6644
  96  723.8759
  97  685.166
  98  745.489
  99  767.875
 100  713.4794
 101  649.5317
 102  705.8978
 103  788.6282
 104  674.5297
 105  670.1246
 106  634.5381
 107  548.1011
 108  575.6174
 109  720.1517
 110  698.8489
 111  638.9957
 112  600.8142
 113  639.5289
 114  693.31
 115  764.9584
 116  717.9558
 117  719.1728
 118  699.8609
 119  660.634
 120  614.3392
 121  613.9205
 122  653.2257
 123  591.3323
 124  585.9974
 125  573.8524
 126  655.7841
 127  655.5066
 128  621.3607
 129  597.2985
 130  616.1906
 131  599.1331
 132  602.2287
 133  607.7606
 134  688.0158
 135  614.6335
 136  559.1747
 137  671.9883
 138  660.6147
 139  574.8599
 140  572.2687
 141  556.3686
 142  652.4926
 143  702.7744
 144  715.3774
 145  673.0912
 146  718.8455
 147  643.1061
 148  587.2708
 149  623.5413
 150  694.7908
 151  685.1851
 152  778.3652
 153  753.6177
 154  660.2355
 155  675.6998
 156  745.3453
 157  778.2048
 158  792.4857
 159  829.6162
 160  808.1907
 161  721.6609
 162  750.9711
 163  863.9073
 164  916.9527
 165  939.2934
 166  867.9276
 167  895.6008
 168  932.7458
 169  939.5864
 170  915.383
 171  924.9705
 172  866.5678
 173  831.2134
 174  930.1153
 175  881.8681
 176  812.8893
 177  901.8404
 178  852.5776
 179  935.2932
 180  958.4824
 181  956.6124
 182  895.8326
 183  827.2932
 184  827.3383
 185  698.9904
 186  729.2701
 187  745.5812
 188  761.9048
 189  728.5924
 190  732.6307
 191  758.4292
 192  736.9622
 193  632.4147
 194  640.2408
 195  707.9299
 196  714.2285
 197  703.0805
 198  766.8817
 199  793.7736
 200  780.8566
 201  802.3005
 202  748.8452
 203  700.9276
 204  730.4429
 205  842.4418
 206  819.908
 207  796.2603
 208  863.5269
 209  841.2023
 210  825.0111
 211  827.627
 212  765.8844
 213  787.4913
 214  769.3937
 215  699.66
 216  773.3085
 217  716.9689
 218  714.0927
 219  768.4805
 220  739.9136
 221  869.8279
 222  824.5347
 223  781.6865
 224  773.4128
 225  716.1959
 226  730.2338
 227  781.834
 228  767.8184
 229  881.9811
 230  854.2218
 231  761.9493
 232  838.9331
 233  827.029
 234  795.9133
 235  724.1639
 236  746.6188
 237  819.7738
 238  772.9085
 239  720.9768
 240  735.3497
 241  703.6751
 242  702.8481
 243  774.5447
 244  887.1706
 245  830.6367
 246  843.2951
 247  840.7634
 248  837.1818
 249  763.632
 250  777.5433
 251  870.2853
 252  861.278
 253  807.8649
 254  852.5147
 255  795.0441
 256  844.5597
 257  886.0859
 258  906.2163
 259  803.288
 260  856.9967
 261  806.6629
 262  759.4843
 263  772.7089
 264  745.0261
 265  772.1358
 266  750.9569
 267  842.0248
 268  847.8024
 269  805.8363
 270  828.0935
 271  840.1898
 272  825.2936
 273  832.272
 274  827.7742
 275  777.8779
 276  838.0308
 277  723.0271
 278  759.0275
 279  878.5472
 280  849.1373
 281  810.9317
 282  792.0862
 283  831.8619
 284  837.2503
 285  888.49
 286  910.4678
 287  911.7267
 288  876.8772
 289  885.1003
 290  851.5742
 291  911.1946
 292  822.8382
 293  832.3456
 294  870.2464
 295  867.2768
 296  844.7966
 297  819.3201
 298  881.687
 299  901.0986
 300  860.4034
 301  848.3085
 302  869.4586
 303  883.8615
 304  931.4691
 305  890.0197
 306  912.9767
 307  876.6112
 308  851.6641
 309  850.6145
 310  752.0915
 311  819.2799
 312  902.7549
 313  888.2142
 314  831.8608
 315  848.6963
 316  865.0569
 317  880.9889
 318  940.4261
 319  953.0235
 320  978.3761
 321  989.4007
 322  872.3619
 323  806.5889
 324  730.2758
 325  892.0985
 326  939.4977
 327  926.4887
 328  883.7391
 329  932.2383
 330  878.8301
 331  917.1015
 332  858.9729
 333  837.135
 334  872.9285
 335  835.2867
 336  846.1238
 337  934.1221
 338  866.0669
 339  860.9882
 340  885.5571
 341  869.2149
 342  821.1129
 343  834.6088
 344  881.0583
 345  917.855
 346  831.1853
 347  800.6638
 348  814.5632
 349  847.7667
 350  802.04
 351  790.4479
 352  875.4303
 353  931.7258
 354  862.0895
 355  884.222
 356  860.3627
 357  812.143
 358  878.697
 359  855.504
 360  863.6614
 361  832.6198
 362  813.2344
 363  829.9686
 364  850.2236
 365  828.6479
 366  850.621
 367  880.0692
 368  838.2578
 369  891.0413
 370  841.0197
 371  835.7537
 372  811.0117
 373  856.6981
 374  894.378
 375  921.5402
 376  849.6312
 377  913.4911
 378  913.6413
 379  890.2195
 380  912.4384
 381  868.3897
 382  901.0096
 383  860.3661
 384  823.0128
 385  838.5715
 386  840.3199
 387  852.572
 388  826.0795
 389  850.4723
 390  802.2638
 391  815.9008
 392  742.2871
 393  813.0237
 394  695.0464
 395  662.6405
 396  761.3322
 397  781.1482
 398  739.3289
 399  724.8214
 400  705.1671
 401  686.0879
 402  780.5338
 403  773.6062
 404  695.2624
 405  693.4525
 406  747.7772
 407  785.921
 408  728.1902
 409  726.614
 410  701.8132
 411  625.0023
 412  642.6257
 413  718.426
 414  667.8109
 415  760.4983
 416  740.5995
 417  771.6966
 418  748.6945
 419  673.4839
 420  573.0026
 421  660.8871
 422  720.5639
 423  689.4253
 424  617.6539
 425  711.9413
 426  725.0928
 427  772.27
 428  706.6039
 429  742.9158
 430  746.2628
 431  778.3464
 432  826.6196
 433  709.9033
 434  675.5817
 435  724.4208
 436  767.2063
 437  727.6383
 438  767.7073
 439  827.0507
 440  744.6604
 441  739.505
 442  748.334
 443  754.5067
 444  692.3872
 445  707.9135
 446  748.4124
 447  732.5565
 448  812.4449
 449  752.2486
 450  668.9402
 451  750.6863
 452  834.2926
 453  823.6638
 454  800.4489
 455  808.4222
 456  829.8311
 457  726.8254
 458  686.7642
 459  741.9176
 460  745.0086
 461  714.4226
 462  697.9427
 463  763.3163
 464  770.0473
 465  809.674
 466  779.6585
 467  704.4101
 468  717.4116
 469  851.5272
 470  872.3893
 471  783.9799
 472  832.6535
 473  834.4374
 474  848.2622
 475  816.2407
 476  794.5363
 477  765.5864
 478  726.3506
 479  737.8575
 480  733.7275
 481  738.0144
 482  766.6311
 483  693.1977
 484  662.9209
 485  641.4853
 486  694.6118
 487  712.0206
 488  681.3542
 489  684.5253
 490  721.537
 491  767.8003
 492  866.3868
 493  798.7234
 494  789.6763
 495  780.1517
 496  656.8891
 497  699.0607
 498  728.5062
 499  777.3011
 500  798.0783
 501  832.1595
 502  751.8212
 503  801.0293
 504  886.7119
 505  879.5802
 506  786.8055
 507  910.7678
 508  1071.488
 509  1295.446
 510  1518.77
 511  1538.704
