# Input file       =  1207924562.108558_cleaned.dat
# Candidate        =  PSR_0332+5434
# Telescope        =  AR
# Epoch_topo       =  58224.608577645347
# Epoch_bary       =  N/A
# T_sample         =  0.002
# Data Folded      =  7340032
# Data Avg         =  0.0399177882761166
# Data StdDev      =  1.00006206753368 
# Profile Bins     =  512
# Profile Avg      =  572.290547128691 
# Profile StdDev   =  119.740467911034 
# Reduced chi-sqr  =  1.413
# Prob(Noise)      <  2.05e-09   (~5.9 sigma)
# P_topo (ms)      =  714.55926009322   +/- 0.000287
# P'_topo (s/s)    =  -0                +/- 1.52e-10
# P''_topo (s/s^2) =  0                 +/- 6.69e-14
# P_bary (ms)      =  N/A
# P'_bary (s/s)    =  N/A
# P''_bary (s/s^2) =  N/A
# P_orb (s)        =  N/A
# asin(i)/c (s)    =  N/A
# eccentricity     =  N/A
# w (rad)          =  N/A
# T_peri           =  N/A
######################################################
   0  524.728
   1  602.4671
   2  686.1335
   3  694.5761
   4  579.3199
   5  517.7108
   6  512.8032
   7  418.1645
   8  517.3004
   9  485.3642
  10  422.1518
  11  457.3839
  12  500.5983
  13  539.1569
  14  516.5834
  15  452.0088
  16  529.7725
  17  656.793
  18  713.2318
  19  597.8618
  20  487.5173
  21  523.9558
  22  612.1622
  23  552.8608
  24  501.1154
  25  553.0294
  26  550.0186
  27  507.3534
  28  490.7704
  29  560.9607
  30  598.6466
  31  517.9435
  32  626.5556
  33  563.9893
  34  561.7589
  35  510.83
  36  562.7251
  37  600.3043
  38  488.0991
  39  490.854
  40  580.6317
  41  586.0049
  42  509.1107
  43  522.6559
  44  594.0106
  45  525.9719
  46  595.3093
  47  517.6563
  48  565.494
  49  501.6419
  50  596.5268
  51  680.2233
  52  629.2004
  53  662.0687
  54  534.9482
  55  515.3511
  56  561.5138
  57  561.7345
  58  623.7642
  59  506.3995
  60  540.6661
  61  594.0885
  62  594.3875
  63  564.9132
  64  491.3122
  65  517.0085
  66  537.6138
  67  501.8309
  68  528.8937
  69  592.1532
  70  716.8223
  71  727.3973
  72  630.2534
  73  603.7466
  74  632.0631
  75  607.0446
  76  644.046
  77  584.4227
  78  643.3587
  79  556.1898
  80  529.3669
  81  672.8208
  82  670.7579
  83  711.9921
  84  658.8572
  85  579.6146
  86  673.264
  87  638.6445
  88  586.5015
  89  585.9744
  90  629.6456
  91  553.7696
  92  438.3239
  93  555.3669
  94  561.6129
  95  562.2424
  96  534.4136
  97  588.3828
  98  596.195
  99  566.5446
 100  645.2333
 101  633.9567
 102  601.1505
 103  546.5088
 104  585.3835
 105  593.1204
 106  581.0284
 107  493.9721
 108  642.3163
 109  723.8898
 110  712.7994
 111  682.132
 112  664.9732
 113  662.268
 114  614.1082
 115  798.468
 116  673.6458
 117  540.0822
 118  606.8382
 119  577.7961
 120  597.4346
 121  629.8409
 122  632.2958
 123  615.9305
 124  680.6137
 125  572.3327
 126  419.9511
 127  468.4396
 128  450.7845
 129  580.5046
 130  630.3353
 131  628.4441
 132  696.9683
 133  714.1882
 134  652.4683
 135  666.7877
 136  643.7521
 137  689.2075
 138  635.1268
 139  573.7816
 140  493.4004
 141  457.1612
 142  527.0963
 143  650.6722
 144  564.9291
 145  458.5047
 146  551.477
 147  658.3465
 148  600.4999
 149  647.4837
 150  623.9968
 151  544.2906
 152  582.8709
 153  613.3441
 154  679.6854
 155  551.5179
 156  540.7678
 157  522.1793
 158  570.1174
 159  564.146
 160  517.3644
 161  573.581
 162  564.7143
 163  546.1598
 164  536.0671
 165  611.5721
 166  624.5032
 167  675.3906
 168  661.5284
 169  594.7719
 170  585.4135
 171  551.2998
 172  462.3247
 173  526.8311
 174  554.8018
 175  477.8317
 176  549.2697
 177  560.2847
 178  535.9301
 179  525.7449
 180  598.4095
 181  702.1407
 182  599.2833
 183  570.3853
 184  506.444
 185  524.2594
 186  537.901
 187  451.5987
 188  485.6342
 189  594.6444
 190  560.0786
 191  557.5154
 192  648.8265
 193  573.8337
 194  505.9344
 195  576.9817
 196  681.2611
 197  654.6404
 198  596.9841
 199  584.9144
 200  583.2138
 201  587.0257
 202  569.4061
 203  464.2301
 204  516.3903
 205  511.2592
 206  479.6273
 207  465.11
 208  486.0434
 209  494.1297
 210  500.3489
 211  508.4141
 212  410.7584
 213  476.3805
 214  552.6387
 215  510.9651
 216  425.3358
 217  490.0279
 218  428.6053
 219  503.5076
 220  514.8608
 221  477.37
 222  400.6876
 223  396.7242
 224  420.5801
 225  525.2112
 226  559.4705
 227  461.446
 228  482.8047
 229  496.8144
 230  489.8442
 231  513.306
 232  656.0981
 233  644.4571
 234  452.3136
 235  409.4683
 236  494.2508
 237  440.3647
 238  468.627
 239  493.3846
 240  374.2813
 241  416.7497
 242  416.8302
 243  553.9471
 244  551.749
 245  552.5578
 246  611.9477
 247  553.2737
 248  454.5362
 249  600.6431
 250  560.5333
 251  556.7003
 252  542.7186
 253  546.5978
 254  572.1054
 255  446.0035
 256  458.4959
 257  607.0407
 258  587.2015
 259  538.1953
 260  445.943
 261  510.101
 262  509.5691
 263  465.3378
 264  451.8141
 265  535.9097
 266  481.7786
 267  474.4366
 268  440.1236
 269  385.6988
 270  426.4689
 271  445.2707
 272  457.2022
 273  504.6848
 274  573.6732
 275  608.0574
 276  551.6069
 277  517.4821
 278  497.1576
 279  415.316
 280  422.8876
 281  556.8329
 282  587.7177
 283  553.8328
 284  484.7326
 285  584.5557
 286  532.3986
 287  474.1294
 288  537.6682
 289  452.5832
 290  526.1934
 291  617.0868
 292  543.2897
 293  590.0831
 294  591.3387
 295  557.2625
 296  600.1458
 297  620.3585
 298  601.1105
 299  568.3154
 300  566.3846
 301  599.8326
 302  485.4124
 303  463.7317
 304  483.1724
 305  442.2986
 306  473.683
 307  378.1489
 308  386.1895
 309  514.0154
 310  621.8115
 311  528.7849
 312  487.7218
 313  525.5959
 314  533.7072
 315  584.8582
 316  575.5195
 317  562.3904
 318  460.8774
 319  546.5279
 320  601.8256
 321  626.6425
 322  479.8214
 323  511.3478
 324  544.4645
 325  667.1923
 326  774.6941
 327  799.6288
 328  920.9651
 329  1022.228
 330  1151.037
 331  1274.019
 332  1269.183
 333  1162.212
 334  927.4589
 335  879.9752
 336  768.8615
 337  657.1411
 338  606.9177
 339  700.3766
 340  579.6854
 341  561.332
 342  592.0241
 343  735.433
 344  633.257
 345  508.0576
 346  602.5122
 347  645.7081
 348  721.1334
 349  699.5928
 350  563.6976
 351  661.2538
 352  600.3599
 353  522.3774
 354  563.1668
 355  644.9825
 356  709.6803
 357  667.3096
 358  686.5689
 359  685.6375
 360  669.8315
 361  675.0737
 362  608.5992
 363  553.8689
 364  519.5812
 365  515.5636
 366  467.7029
 367  421.7867
 368  623.0892
 369  628.8441
 370  571.9411
 371  508.5281
 372  518.058
 373  460.1995
 374  513.5243
 375  520.3292
 376  620.5806
 377  511.9011
 378  615.7558
 379  688.3338
 380  568.5479
 381  508.5828
 382  417.3835
 383  401.8299
 384  400.1576
 385  496.8923
 386  469.6239
 387  536.3232
 388  558.2017
 389  630.819
 390  626.7704
 391  666.9382
 392  523.1049
 393  513.79
 394  536.3059
 395  523.5999
 396  442.0923
 397  458.1222
 398  504.7122
 399  457.4685
 400  426.5703
 401  481.4939
 402  662.6251
 403  604.0117
 404  565.7838
 405  466.656
 406  438.0691
 407  491.0116
 408  491.3594
 409  652.9489
 410  684.142
 411  574.0518
 412  537.7088
 413  580.6893
 414  573.4431
 415  576.1836
 416  690.2441
 417  633.716
 418  590.8466
 419  549.1154
 420  555.6279
 421  562.0463
 422  510.7715
 423  589.6268
 424  601.3306
 425  704.3185
 426  630.7498
 427  609.2764
 428  582.9231
 429  666.5945
 430  552.499
 431  666.4946
 432  774.0753
 433  694.2645
 434  683.1081
 435  709.5723
 436  621.8842
 437  527.6574
 438  723.8676
 439  734.8239
 440  693.0504
 441  671.804
 442  654.8005
 443  538.4303
 444  463.5926
 445  501.833
 446  567.1874
 447  548.5611
 448  582.1089
 449  563.285
 450  575.3374
 451  709.3633
 452  651.3495
 453  642.3409
 454  609.5442
 455  661.6519
 456  699.7158
 457  634.705
 458  677.5893
 459  627.0759
 460  544.3493
 461  576.5396
 462  695.9229
 463  702.4691
 464  629.4099
 465  673.3534
 466  590.8536
 467  424.8813
 468  477.8305
 469  578.4074
 470  527.8541
 471  483.5737
 472  386.6743
 473  355.2483
 474  520.4796
 475  588.7121
 476  628.9613
 477  458.9139
 478  545.8323
 479  585.8191
 480  529.0477
 481  486.1786
 482  631.7458
 483  619.8236
 484  613.9949
 485  626.084
 486  568.6566
 487  508.1082
 488  509.7728
 489  581.3073
 490  587.7498
 491  637.4935
 492  697.1847
 493  580.163
 494  588.105
 495  682.0383
 496  646.0419
 497  606.8011
 498  587.3981
 499  658.2819
 500  473.3112
 501  568.2034
 502  676.6058
 503  592.3851
 504  570.3704
 505  488.2661
 506  475.4579
 507  547.9816
 508  469.0564
 509  545.7765
 510  575.9502
 511  526.5923
