# Input file       =  1207909654.116253_cleaned.dat
# Candidate        =  PSR_0332+5434
# Telescope        =  AR
# Epoch_topo       =  58224.436031438112
# Epoch_bary       =  N/A
# T_sample         =  0.002
# Data Folded      =  7340032
# Data Avg         =  -0.0146789905213947
# Data StdDev      =  5.75294021018422 
# Profile Bins     =  1024
# Profile Avg      =  -105.566877168583
# Profile StdDev   =  487.067171314276 
# Reduced chi-sqr  =  1.042
# Prob(Noise)      <  0.168   (~1.0 sigma)
# P_topo (ms)      =  714.559058033924  +/- 0.000611
# P'_topo (s/s)    =  -0                +/- 3.23e-10
# P''_topo (s/s^2) =  0                 +/- 1.42e-13
# P_bary (ms)      =  N/A
# P'_bary (s/s)    =  N/A
# P''_bary (s/s^2) =  N/A
# P_orb (s)        =  N/A
# asin(i)/c (s)    =  N/A
# eccentricity     =  N/A
# w (rad)          =  N/A
# T_peri           =  N/A
######################################################
   0  -458.9434
   1  -497.2504
   2  -460.938
   3  -449.8474
   4  -459.7887
   5  -433.5894
   6  -437.1099
   7  -485.342
   8  -473.6667
   9  -428.5042
  10  -456.219
  11  -387.3673
  12  -398.5958
  13  -241.4797
  14  -97.85921
  15  -6.151204
  16  44.98271
  17  43.54318
  18  -61.41825
  19  -212.0418
  20  -260.7545
  21  -211.6656
  22  -184.0567
  23  -138.2762
  24  -179.075
  25  -183.4324
  26  -202.6593
  27  -139.567
  28  -127.9355
  29  -72.84304
  30  -56.6984
  31  36.11343
  32  55.65914
  33  90.74316
  34  92.99783
  35  27.74756
  36  -24.37514
  37  -209.1145
  38  -286.4136
  39  -233.0961
  40  -192.7322
  41  -175.2746
  42  -208.6983
  43  -132.3114
  44  -69.52991
  45  61.46402
  46  59.95882
  47  161.7081
  48  280.881
  49  338.9615
  50  371.331
  51  309.433
  52  181.3269
  53  19.45564
  54  -57.19274
  55  -118.6488
  56  -174.4317
  57  -192.7581
  58  -83.31511
  59  -14.24245
  60  64.9939
  61  -55.51868
  62  -41.27776
  63  -71.48521
  64  7.202775
  65  0.05789367
  66  -45.07878
  67  -100.7696
  68  -101.1784
  69  -57.443
  70  -146.3342
  71  -121.8067
  72  -59.576
  73  36.83858
  74  26.50645
  75  -231.4803
  76  -410.8733
  77  -393.7831
  78  -263.4857
  79  -189.6125
  80  -96.90247
  81  -18.52056
  82  -58.86051
  83  -243.9793
  84  -273.4082
  85  -124.6885
  86  -163.4531
  87  -253.2364
  88  -302.9236
  89  -273.8281
  90  -158.3143
  91  -128.3294
  92  11.1999
  93  -20.34633
  94  -10.25534
  95  -17.58241
  96  -44.62947
  97  -172.0014
  98  -91.8075
  99  -26.24825
 100  59.58845
 101  -2.223888
 102  1.469392
 103  -29.97985
 104  -42.981
 105  -44.73186
 106  -123.2292
 107  -143.7995
 108  -258.3159
 109  -197.355
 110  -4.083176
 111  95.79555
 112  25.16161
 113  10.59812
 114  100.3344
 115  205.0494
 116  127.9942
 117  57.41681
 118  31.86366
 119  -38.42115
 120  -117.1166
 121  -143.1655
 122  -203.1966
 123  -222.0807
 124  -233.9113
 125  -211.6102
 126  -94.48062
 127  -134.89
 128  -79.42976
 129  -71.55705
 130  -127.377
 131  -273.6951
 132  -341.4345
 133  -338.7812
 134  -236.6445
 135  -167.4134
 136  -160.234
 137  -168.3501
 138  -232.5802
 139  -161.7456
 140  -205.8524
 141  -192.652
 142  -159.0941
 143  -106.1603
 144  -184.0835
 145  -299.3059
 146  -344.0504
 147  -255.8599
 148  -205.5716
 149  -126.0455
 150  -116.8729
 151  -152.0928
 152  32.92691
 153  24.21291
 154  -60.57832
 155  -203.7343
 156  -236.0614
 157  -231.0264
 158  -273.6809
 159  -206.3032
 160  -260.8484
 161  -243.1905
 162  -157.8661
 163  -55.95979
 164  -62.69978
 165  -187.9345
 166  -254.9189
 167  -188.9444
 168  -58.57719
 169  79.85007
 170  18.49265
 171  -79.39175
 172  -202.4496
 173  -210.9685
 174  -298.2211
 175  -316.3892
 176  -188.1534
 177  -57.83531
 178  -69.1709
 179  -104.7901
 180  -145.8998
 181  -141.7589
 182  -32.88286
 183  61.71095
 184  151.0181
 185  202.8784
 186  151.3479
 187  146.1632
 188  76.2077
 189  67.44981
 190  244.1976
 191  373.9218
 192  345.6781
 193  187.2046
 194  158.5641
 195  365.369
 196  403.108
 197  361.1683
 198  380.8165
 199  406.1301
 200  286.5968
 201  127.4954
 202  167.5373
 203  152.05
 204  224.5561
 205  187.9591
 206  288.8311
 207  197.8436
 208  192.5696
 209  259.2299
 210  226.4235
 211  141.2098
 212  -11.30597
 213  -116.2997
 214  -99.87296
 215  -49.45918
 216  105.6018
 217  131.0231
 218  127.3467
 219  -19.81444
 220  -58.05136
 221  -12.37092
 222  88.28101
 223  267.657
 224  339.9623
 225  333.2467
 226  194.1424
 227  102.2517
 228  136.4691
 229  136.8775
 230  171.6039
 231  59.01855
 232  -54.92236
 233  -144.3654
 234  -122.1809
 235  -79.42085
 236  -95.3228
 237  -104.7339
 238  -137.2703
 239  -168.722
 240  -130.7494
 241  75.94093
 242  36.18286
 243  -69.63269
 244  -203.4671
 245  -65.69954
 246  41.97159
 247  84.81245
 248  125.0413
 249  75.06127
 250  28.98116
 251  -94.13366
 252  -111.1887
 253  -126.1649
 254  -21.80498
 255  19.37
 256  -50.58784
 257  -168.1676
 258  -255.2215
 259  -359.4197
 260  -279.3574
 261  -378.7114
 262  -297.4107
 263  -245.3092
 264  -133.8533
 265  -128.2183
 266  -99.04308
 267  -31.64841
 268  -127.9265
 269  -354.5801
 270  -486.1226
 271  -379.3675
 272  -323.9432
 273  -241.6529
 274  -269.3436
 275  -108.5081
 276  -154.8555
 277  -115.5708
 278  -189.2513
 279  -182.2694
 280  -158.8505
 281  -265.037
 282  -401.1787
 283  -457.1572
 284  -435.1378
 285  -329.87
 286  -353.0284
 287  -263.382
 288  -243.1998
 289  -185.9948
 290  -272.1853
 291  -331.7699
 292  -410.8944
 293  -527.6294
 294  -439.7722
 295  -345.855
 296  -269.5761
 297  -261.784
 298  -270.8038
 299  -330.4688
 300  -397.8351
 301  -461.3737
 302  -463.5107
 303  -516.9484
 304  -499.3769
 305  -521.6792
 306  -556.2682
 307  -551.2103
 308  -564.1925
 309  -691.2024
 310  -811.4612
 311  -881.0751
 312  -883.2272
 313  -846.2192
 314  -875.2943
 315  -845.174
 316  -802.5239
 317  -820.6241
 318  -784.5089
 319  -829.9741
 320  -785.939
 321  -762.8789
 322  -676.8069
 323  -620.7553
 324  -651.9051
 325  -576.8663
 326  -588.8811
 327  -573.1514
 328  -735.5011
 329  -840.123
 330  -815.0851
 331  -794.7742
 332  -730.545
 333  -646.6066
 334  -571.1541
 335  -604.5847
 336  -612.7749
 337  -643.1865
 338  -586.7249
 339  -563.3257
 340  -587.364
 341  -681.3182
 342  -731.8422
 343  -726.4955
 344  -657.5356
 345  -695.2083
 346  -767.7676
 347  -764.9494
 348  -687.4989
 349  -647.2146
 350  -792.8262
 351  -876.3512
 352  -827.6403
 353  -751.2507
 354  -711.1232
 355  -760.2869
 356  -766.6042
 357  -733.3108
 358  -742.9906
 359  -768.1284
 360  -806.8634
 361  -651.1843
 362  -605.8795
 363  -538.2892
 364  -718.3782
 365  -673.5168
 366  -681.567
 367  -653.2853
 368  -722.2085
 369  -598.3793
 370  -408.7834
 371  -173.8966
 372  -232.617
 373  -240.0548
 374  -263.015
 375  -153.5827
 376  -249.2843
 377  -332.3694
 378  -435.0232
 379  -455.2285
 380  -397.2626
 381  -283.5349
 382  -237.8705
 383  -262.1395
 384  -388.2829
 385  -339.4693
 386  -175.1511
 387  -106.0184
 388  -97.04272
 389  -201.6063
 390  -233.5719
 391  -265.043
 392  -265.4265
 393  -252.3235
 394  -223.1855
 395  -171.2817
 396  -224.0614
 397  -342.8374
 398  -367.2094
 399  -302.2159
 400  -419.5974
 401  -460.0535
 402  -512.8117
 403  -537.2339
 404  -559.0152
 405  -480.3258
 406  -321.2356
 407  -328.592
 408  -188.2845
 409  -96.13786
 410  -155.0999
 411  -288.3397
 412  -413.0596
 413  -318.1392
 414  -163.1458
 415  -62.02578
 416  -141.4886
 417  -171.7215
 418  -90.8149
 419  -16.44456
 420  -28.5048
 421  -172.1516
 422  -180.5302
 423  -245.0804
 424  -355.8486
 425  -266.0227
 426  -174.5261
 427  17.67657
 428  -114.9718
 429  -141.6326
 430  -62.94257
 431  -24.99975
 432  -34.6653
 433  -84.70354
 434  -15.6521
 435  29.92634
 436  -91.07478
 437  -83.81451
 438  -12.53146
 439  82.03609
 440  116.1764
 441  57.26931
 442  124.3832
 443  162.5873
 444  237.3695
 445  219.6189
 446  92.27038
 447  14.90423
 448  82.29795
 449  172.9087
 450  237.5473
 451  294.7258
 452  326.3495
 453  334.5216
 454  300.4539
 455  263.0729
 456  324.0694
 457  363.3559
 458  354.9743
 459  254.353
 460  120.5074
 461  169.537
 462  218.8371
 463  289.5939
 464  229.6988
 465  218.2739
 466  251.4255
 467  386.8283
 468  340.3229
 469  288.3575
 470  285.5506
 471  475.506
 472  553.5541
 473  472.4553
 474  332.6907
 475  237.1018
 476  289.3646
 477  394.1823
 478  373.5864
 479  319.4119
 480  236.5674
 481  162.3178
 482  45.23887
 483  -31.0633
 484  35.64625
 485  12.26448
 486  53.21465
 487  140.8406
 488  305.4778
 489  180.1813
 490  219.1952
 491  174.6274
 492  327.9823
 493  417.4309
 494  451.3793
 495  448.2831
 496  335.0558
 497  283.8293
 498  275.7005
 499  284.0592
 500  362.0193
 501  250.456
 502  275.592
 503  216.5645
 504  276.7187
 505  251.7171
 506  179.247
 507  123.2965
 508  52.145
 509  101.6552
 510  96.0359
 511  70.67255
 512  -61.91814
 513  -111.5583
 514  -88.02378
 515  -9.152484
 516  3.427523
 517  -31.56013
 518  -89.91465
 519  -180.9807
 520  -120.6679
 521  -12.74075
 522  77.32303
 523  188.6871
 524  147.0982
 525  68.9864
 526  -36.88142
 527  -155.5057
 528  -207.5466
 529  -165.8645
 530  -102.6365
 531  -81.44637
 532  -77.73006
 533  -96.71879
 534  -174.6563
 535  -159.585
 536  -27.8516
 537  53.84371
 538  134.4672
 539  129.6398
 540  165.7628
 541  4.818359
 542  -85.56857
 543  -119.3094
 544  -115.9637
 545  -247.6667
 546  -127.0348
 547  -18.99208
 548  -28.27224
 549  -11.03183
 550  -54.0906
 551  -121.1079
 552  -141.455
 553  -157.5817
 554  -150.6344
 555  -206.6648
 556  -215.702
 557  -191.2497
 558  -207.4064
 559  -140.1074
 560  -3.645047
 561  89.79686
 562  115.4614
 563  -80.86191
 564  -120.0862
 565  -200.5575
 566  -194.5926
 567  -151.3108
 568  -154.8955
 569  -236.2134
 570  -289.5014
 571  -228.6393
 572  -252.2662
 573  -151.6705
 574  9.469813
 575  80.98775
 576  76.46134
 577  12.24877
 578  -10.90274
 579  3.643449
 580  -37.84702
 581  -18.67269
 582  117.4968
 583  236.2287
 584  275.7917
 585  241.1002
 586  74.70348
 587  -82.78082
 588  -106.3713
 589  -22.85966
 590  -7.205723
 591  2.830486
 592  64.41844
 593  128.8011
 594  27.35139
 595  34.91425
 596  78.5198
 597  329.8354
 598  473.4299
 599  656.5223
 600  739.248
 601  731.5228
 602  680.7715
 603  836.2604
 604  825.6782
 605  702.6597
 606  535.6513
 607  444.9391
 608  428.5636
 609  346.7276
 610  241.7928
 611  115.6742
 612  63.35578
 613  74.60278
 614  -21.02047
 615  -9.821036
 616  46.65866
 617  105.883
 618  89.78844
 619  -85.011
 620  -96.32365
 621  -99.48927
 622  -68.00919
 623  -69.44392
 624  -43.54741
 625  -40.90908
 626  -3.859651
 627  84.00732
 628  79.52991
 629  163.495
 630  158.6065
 631  251.7563
 632  165.4828
 633  153.3179
 634  190.8173
 635  195.2847
 636  193.7654
 637  104.6452
 638  114.373
 639  193.008
 640  190.6827
 641  126.4011
 642  121.4777
 643  126.6752
 644  108.8657
 645  52.99474
 646  -120.6332
 647  -234.2717
 648  -282.6187
 649  -134.9063
 650  -110.9877
 651  -34.83458
 652  20.57942
 653  36.61377
 654  -13.77407
 655  -91.26847
 656  -125.3887
 657  -138.3838
 658  -139.4954
 659  -198.9307
 660  -201.0355
 661  -255.4622
 662  -253.581
 663  -137.3591
 664  -118.6205
 665  -156.4672
 666  -161.3913
 667  -13.46434
 668  -97.01167
 669  -209.129
 670  -375.088
 671  -393.3107
 672  -323.564
 673  -351.0725
 674  -388.0659
 675  -372.2868
 676  -258.3811
 677  -101.6271
 678  -92.24786
 679  -104.5462
 680  -216.757
 681  -295.749
 682  -334.1919
 683  -417.2748
 684  -290.7869
 685  -182.6864
 686  -119.9399
 687  -309.3743
 688  -298.0169
 689  -284.3025
 690  -189.6108
 691  -173.6434
 692  -146.2586
 693  -222.6008
 694  -268.2655
 695  -204.3896
 696  -123.7086
 697  25.94252
 698  44.65967
 699  16.11137
 700  -67.00452
 701  -127.9887
 702  -181.4823
 703  -281.4402
 704  -377.228
 705  -379.4449
 706  -298.5707
 707  -266.6361
 708  -289.7414
 709  -419.9291
 710  -413.2222
 711  -437.6989
 712  -414.3908
 713  -348.4018
 714  -155.602
 715  -25.80353
 716  -114.7207
 717  -309.2246
 718  -251.1286
 719  -208.5447
 720  -87.23645
 721  -125.8101
 722  -206.8872
 723  -229.1388
 724  -198.8986
 725  -41.31374
 726  -102.0115
 727  -118.6167
 728  -113.2941
 729  -155.8816
 730  -306.5905
 731  -372.9032
 732  -407.5921
 733  -389.2514
 734  -324.5884
 735  -299.8533
 736  -324.8445
 737  -390.2118
 738  -390.3925
 739  -444.9321
 740  -368.0733
 741  -315.0484
 742  -312.6797
 743  -382.3874
 744  -489.3489
 745  -461.9781
 746  -419.547
 747  -422.5917
 748  -409.0032
 749  -304.7861
 750  -289.9722
 751  -280.4888
 752  -288.0201
 753  -216.6571
 754  -251.1579
 755  -219.4681
 756  -261.0569
 757  -370.6462
 758  -464.5875
 759  -400.4155
 760  -365.2739
 761  -359.2848
 762  -258.042
 763  -139.5163
 764  -142.1501
 765  -160.107
 766  -135.2038
 767  -124.6986
 768  -89.98006
 769  -102.428
 770  -49.26262
 771  -44.58879
 772  -85.65671
 773  -41.2762
 774  -155.2597
 775  -267.6539
 776  -300.2808
 777  -185.8667
 778  -56.42461
 779  -43.50966
 780  65.09852
 781  138.1911
 782  168.6375
 783  149.4214
 784  179.5488
 785  234.5451
 786  242.8214
 787  157.2526
 788  -22.05938
 789  -70.25054
 790  -17.20266
 791  -16.62737
 792  10.36296
 793  68.43217
 794  124.5462
 795  67.87624
 796  -141.1676
 797  -102.7886
 798  -7.714102
 799  5.080774
 800  -15.33527
 801  25.9732
 802  6.048756
 803  24.18247
 804  -60.23062
 805  -31.91089
 806  -86.34406
 807  28.72422
 808  43.83564
 809  -67.70521
 810  -160.5476
 811  -59.90999
 812  -20.57936
 813  42.17453
 814  86.14008
 815  160.9648
 816  129.8326
 817  130.7226
 818  128.2429
 819  124.6919
 820  73.35592
 821  -56.54715
 822  -136.7608
 823  -221.1009
 824  -196.6902
 825  -61.93781
 826  51.91525
 827  -69.00735
 828  -97.32001
 829  -56.9577
 830  -21.32055
 831  -18.22179
 832  -4.976746
 833  -8.773767
 834  -31.85113
 835  -90.39867
 836  -108.4317
 837  -141.8236
 838  -157.8993
 839  -197.1088
 840  -177.8477
 841  -141.2861
 842  -36.94333
 843  33.94207
 844  122.1999
 845  194.379
 846  60.3749
 847  -58.38079
 848  -86.10285
 849  -1.009171
 850  -5.585477
 851  -50.74106
 852  -75.71306
 853  57.98154
 854  61.50325
 855  112.2947
 856  65.06285
 857  141.9623
 858  190.0466
 859  163.8991
 860  -28.12604
 861  -75.20382
 862  21.82735
 863  165.7301
 864  119.2825
 865  9.767417
 866  -4.025005
 867  107.1934
 868  119.973
 869  256.6992
 870  246.0721
 871  335.027
 872  212.955
 873  226.5776
 874  248.6622
 875  290.8625
 876  397.9132
 877  397.2606
 878  345.6459
 879  413.7748
 880  363.209
 881  309.3782
 882  197.1888
 883  106.6126
 884  179.6644
 885  289.4938
 886  316.2736
 887  288.3048
 888  197.1841
 889  52.45474
 890  95.61551
 891  164.1384
 892  265.924
 893  345.2339
 894  484.608
 895  521.4382
 896  428.5768
 897  293.6736
 898  257.0486
 899  212.4133
 900  208.0472
 901  296.3571
 902  198.6582
 903  126.0472
 904  70.04597
 905  78.15035
 906  97.01763
 907  219.5641
 908  350.1817
 909  357.5319
 910  214.8074
 911  94.52631
 912  25.55818
 913  168.7627
 914  124.8124
 915  183.9982
 916  175.2712
 917  241.9757
 918  241.6263
 919  173.438
 920  19.87145
 921  -100.4433
 922  -51.8818
 923  -91.45569
 924  -85.31356
 925  -81.58157
 926  38.28706
 927  42.22255
 928  -45.46416
 929  -138.6761
 930  -151.1954
 931  58.57261
 932  147.6899
 933  139.7702
 934  19.76439
 935  -7.743855
 936  29.07931
 937  -116.3043
 938  -9.750784
 939  34.40581
 940  132.4526
 941  85.78434
 942  185.6457
 943  257.2774
 944  180.8342
 945  -2.737484
 946  -25.92783
 947  -91.02029
 948  -22.62572
 949  -50.2276
 950  -2.370763
 951  -92.28359
 952  -9.229325
 953  -33.50908
 954  51.45025
 955  24.91497
 956  -96.28594
 957  -266.8766
 958  -211.8302
 959  -186.3619
 960  -159.9919
 961  -217.7485
 962  -265.9302
 963  -386.3272
 964  -367.2747
 965  -181.348
 966  -145.4724
 967  -186.769
 968  -141.0424
 969  -125.7831
 970  -127.1963
 971  -116.4573
 972  42.07199
 973  135.0989
 974  -0.3142873
 975  -131.6711
 976  -148.2909
 977  -176.6386
 978  -269.6852
 979  -275.545
 980  -240.7162
 981  -154.7152
 982  -184.9907
 983  -168.4579
 984  -147.4885
 985  -175.7143
 986  -234.9094
 987  -226.4477
 988  -111.6296
 989  -197.2677
 990  -354.9205
 991  -476.0317
 992  -489.8847
 993  -556.9348
 994  -532.0251
 995  -574.7882
 996  -497.068
 997  -539.9995
 998  -466.5037
 999  -485.779
1000  -522.5491
1001  -555.9414
1002  -557.4311
1003  -561.658
1004  -591.5902
1005  -598.1168
1006  -519.488
1007  -466.0265
1008  -370.5388
1009  -454.4498
1010  -455.6845
1011  -587.4361
1012  -604.9414
1013  -694.7805
1014  -591.795
1015  -520.6598
1016  -443.6264
1017  -384.9554
1018  -352.3152
1019  -368.4165
1020  -547.7674
1021  -536.4095
1022  -536.0197
1023  -399.3286
