# Input file       =  1207808803.09915_cleaned.dat
# Candidate        =  PSR_0332+5434
# Telescope        =  AR
# Epoch_topo       =  58223.268774295721
# Epoch_bary       =  N/A
# T_sample         =  0.002
# Data Folded      =  7208960
# Data Avg         =  0.0682793102658473
# Data StdDev      =  1.00012080931638 
# Profile Bins     =  512
# Profile Avg      =  961.35682472864  
# Profile StdDev   =  118.67351092744  
# Reduced chi-sqr  =  2.707
# Prob(Noise)      <  1.93e-81   (~19.1 sigma)
# P_topo (ms)      =  714.559944170068  +/- 0.00018
# P'_topo (s/s)    =  -0                +/- 9.68e-11
# P''_topo (s/s^2) =  0                 +/- 4.35e-14
# P_bary (ms)      =  N/A
# P'_bary (s/s)    =  N/A
# P''_bary (s/s^2) =  N/A
# P_orb (s)        =  N/A
# asin(i)/c (s)    =  N/A
# eccentricity     =  N/A
# w (rad)          =  N/A
# T_peri           =  N/A
######################################################
   0  1865.601
   1  1820.313
   2  1430.178
   3  1215.179
   4  1095.071
   5  927.1384
   6  1082.488
   7  1196.093
   8  1163.645
   9  1071.639
  10  999.3289
  11  994.9045
  12  918.5939
  13  917.1499
  14  984.1494
  15  941.2252
  16  992.4088
  17  951.4421
  18  993.7227
  19  939.1097
  20  941.7464
  21  932.157
  22  989.6951
  23  999.4225
  24  1001.905
  25  1011.388
  26  1033.723
  27  937.8559
  28  831.4471
  29  865.5312
  30  814.2279
  31  828.3975
  32  778.33
  33  797.7825
  34  754.9451
  35  870.6407
  36  858.8869
  37  804.3499
  38  750.3036
  39  1009.957
  40  1031.661
  41  942.2612
  42  963.9224
  43  972.3417
  44  845.5269
  45  884.8128
  46  843.6924
  47  741.6751
  48  727.7292
  49  829.9763
  50  921.4736
  51  858.0737
  52  928.7223
  53  813.227
  54  868.6057
  55  943.8798
  56  970.5391
  57  902.8977
  58  935.2662
  59  939.0887
  60  804.4309
  61  692.6771
  62  696.5035
  63  735.6976
  64  720.9677
  65  792.8589
  66  830.0219
  67  806.2595
  68  777.9913
  69  792.3507
  70  700.5236
  71  749.0257
  72  828.6418
  73  897.1579
  74  856.9686
  75  873.7709
  76  946.111
  77  867.8391
  78  872.2687
  79  837.6068
  80  826.0225
  81  866.2636
  82  911.42
  83  1002.005
  84  868.8226
  85  816.9765
  86  928.9059
  87  1034.845
  88  1071.011
  89  1113.457
  90  1150.788
  91  1143.577
  92  1080.074
  93  1018.204
  94  1011.263
  95  1012.15
  96  887.0276
  97  865.9542
  98  955.1302
  99  1114.578
 100  1004.432
 101  943.4207
 102  966.796
 103  867.3673
 104  860.5574
 105  927.9787
 106  1071.744
 107  1150.025
 108  1028.046
 109  1026.539
 110  1037.791
 111  974.0213
 112  936.0063
 113  868.7576
 114  962.1213
 115  960.0352
 116  886.3599
 117  974.4901
 118  891.5159
 119  1004.275
 120  1098.682
 121  1060.91
 122  1064.212
 123  1033.852
 124  1089.647
 125  1060.921
 126  1129.477
 127  1091.338
 128  921.1041
 129  1086.016
 130  1060.957
 131  1058.205
 132  1004.87
 133  959.0264
 134  947.5034
 135  943.2993
 136  1064.681
 137  1072.339
 138  923.9262
 139  963.2442
 140  1061.092
 141  933.3267
 142  936.8754
 143  869.6155
 144  782.2482
 145  867.6709
 146  967.0903
 147  949.0042
 148  920.5518
 149  889.4365
 150  946.9269
 151  792.414
 152  925.8119
 153  862.6058
 154  964.1246
 155  1040.328
 156  1011.634
 157  978.7516
 158  1010.617
 159  896.9113
 160  1000.596
 161  1008.316
 162  945.5045
 163  818.4344
 164  842.7447
 165  883.1501
 166  838.6838
 167  808.9726
 168  857.3936
 169  968.9144
 170  815.1703
 171  873.2916
 172  917.0651
 173  1015.801
 174  1068.345
 175  989.9144
 176  889.2496
 177  891.959
 178  903.9419
 179  943.9922
 180  936.9727
 181  939.0832
 182  1073.873
 183  976.8627
 184  882.9349
 185  878.8325
 186  869.3183
 187  848.6459
 188  968.5413
 189  948.9195
 190  906.9899
 191  945.5747
 192  1026.202
 193  970.2387
 194  854.563
 195  804.6483
 196  883.2491
 197  907.5716
 198  1003.439
 199  1007.332
 200  952.8469
 201  997.023
 202  918.8589
 203  917.7938
 204  1014.441
 205  1174.848
 206  1209.694
 207  1126.242
 208  1152.979
 209  1063.639
 210  1017.098
 211  1082.874
 212  1075.059
 213  1031.446
 214  1105.211
 215  1002.381
 216  982.1572
 217  1037.035
 218  928.2622
 219  975.6489
 220  1150.877
 221  1183.788
 222  1125.851
 223  1204.324
 224  1119.76
 225  1017.424
 226  1109.35
 227  1147.912
 228  1113.78
 229  1147.143
 230  1140.141
 231  1072.811
 232  1031.073
 233  1014.716
 234  1047.291
 235  1021.703
 236  1146.376
 237  1182.119
 238  1202.581
 239  1306.628
 240  1299.863
 241  1199.898
 242  1170.365
 243  1068.941
 244  1105.405
 245  1129.537
 246  1124.984
 247  1042.708
 248  1074.029
 249  1190.438
 250  1175.159
 251  1024.275
 252  989.155
 253  1071.916
 254  1090.606
 255  1195.055
 256  1200.994
 257  1167.758
 258  1132.08
 259  1094.597
 260  1101.839
 261  1080.214
 262  1049.373
 263  1038.737
 264  1017.733
 265  1165.548
 266  1202.571
 267  1107.464
 268  1100.418
 269  1151.451
 270  1099.381
 271  1081.41
 272  1173.029
 273  1096.292
 274  994.8573
 275  1060.369
 276  1073.81
 277  968.6948
 278  953.0332
 279  1119.465
 280  1077.576
 281  1011.273
 282  940.3674
 283  952.4339
 284  971.3905
 285  971.5032
 286  966.8265
 287  1031.553
 288  987.3146
 289  982.9634
 290  953.8476
 291  891.0333
 292  1003.04
 293  911.6857
 294  924.3358
 295  1048.829
 296  941.9625
 297  962.5481
 298  1014.661
 299  1041.144
 300  1038.97
 301  1026.063
 302  914.7852
 303  949.9732
 304  1000.152
 305  942.8739
 306  1096.969
 307  1057.9
 308  918.7161
 309  892.5609
 310  927.0552
 311  897.0204
 312  1052.488
 313  1033.815
 314  933.3036
 315  1032.776
 316  1038.155
 317  912.6822
 318  949.6956
 319  937.8361
 320  936.3836
 321  1007.343
 322  1052.36
 323  1038.838
 324  928.4216
 325  1037.181
 326  1078.862
 327  1026.673
 328  945.4918
 329  970.9604
 330  1087.215
 331  961.5229
 332  925.9373
 333  873.4469
 334  973.8782
 335  992.1371
 336  1093.98
 337  1123.666
 338  982.5243
 339  1020.077
 340  965.7088
 341  984.0928
 342  907.1581
 343  882.2982
 344  860.2401
 345  865.1273
 346  916.2639
 347  917.7753
 348  872.6846
 349  926.5562
 350  849.0115
 351  814.4351
 352  1046.36
 353  1008.66
 354  1025.669
 355  977.3742
 356  1002.411
 357  972.5325
 358  875.9813
 359  1013.136
 360  987.1749
 361  940.6261
 362  1012.749
 363  812.697
 364  735.1909
 365  791.4971
 366  882.9793
 367  913.2029
 368  964.2463
 369  935.6203
 370  954.3414
 371  985.8559
 372  984.3871
 373  975.6521
 374  1042.067
 375  981.0555
 376  825.7999
 377  905.8192
 378  876.9417
 379  1012.046
 380  882.7043
 381  782.5293
 382  874.8146
 383  850.2617
 384  1086.75
 385  1185.114
 386  1020.431
 387  947.4393
 388  903.8687
 389  1018.132
 390  1041.863
 391  947.707
 392  996.238
 393  891.7534
 394  923.0949
 395  884.4827
 396  812.8773
 397  945.3412
 398  946.5672
 399  898.8549
 400  971.1569
 401  1052.575
 402  1080.71
 403  1082.936
 404  1110.904
 405  997.6093
 406  1008.118
 407  1124.991
 408  1036.461
 409  945.4773
 410  991.2471
 411  1075.03
 412  969.5062
 413  1000.471
 414  924.1732
 415  1014.352
 416  915.2466
 417  908.0298
 418  978.9791
 419  1036.659
 420  1099.994
 421  1086.497
 422  1032.385
 423  941.7468
 424  931.6274
 425  977.1227
 426  855.372
 427  801.7118
 428  864.6327
 429  829.2679
 430  854.7047
 431  794.1714
 432  670.9125
 433  707.9556
 434  878.4039
 435  877.1545
 436  823.4952
 437  750.4459
 438  801.6546
 439  889.8842
 440  877.5391
 441  874.7072
 442  782.7842
 443  848.7996
 444  821.7997
 445  866.7946
 446  805.2272
 447  897.9832
 448  920.5956
 449  770.4823
 450  790.7476
 451  865.9787
 452  850.6931
 453  795.4675
 454  809.7652
 455  803.1274
 456  820.0235
 457  700.2293
 458  751.6975
 459  587.775
 460  668.0673
 461  695.7294
 462  751.2398
 463  644.4625
 464  760.8501
 465  846.412
 466  691.2301
 467  838.017
 468  887.1444
 469  857.7263
 470  871.0948
 471  813.9842
 472  765.3594
 473  816.96
 474  908.0737
 475  860.4381
 476  783.0934
 477  749.0595
 478  718.222
 479  751.9084
 480  826.4075
 481  805.1737
 482  711.54
 483  778.7174
 484  779.9232
 485  887.7686
 486  951.0517
 487  852.9931
 488  828.2568
 489  861.8304
 490  868.1541
 491  774.9547
 492  732.783
 493  785.7578
 494  938.1199
 495  824.3571
 496  784.1848
 497  869.562
 498  790.1323
 499  881.1753
 500  870.155
 501  957.7926
 502  1056.489
 503  1069.938
 504  1068.026
 505  937.0434
 506  906.9479
 507  1086.209
 508  1186.872
 509  1309.234
 510  1643.884
 511  1863.982
