# Input file       =  1207808803.09915_cleaned.dat
# Candidate        =  PSR_0332+5434
# Telescope        =  AR
# Epoch_topo       =  58223.268774295721
# Epoch_bary       =  N/A
# T_sample         =  0.002
# Data Folded      =  7208960
# Data Avg         =  0.0682793102658473
# Data StdDev      =  1.00012080931638 
# Profile Bins     =  512
# Profile Avg      =  961.356821982639 
# Profile StdDev   =  118.67351092744  
# Reduced chi-sqr  =  2.715
# Prob(Noise)      <  5.11e-82   (~19.1 sigma)
# P_topo (ms)      =  714.559945020102  +/- 0.000179
# P'_topo (s/s)    =  -0                +/- 9.61e-11
# P''_topo (s/s^2) =  0                 +/- 4.32e-14
# P_bary (ms)      =  N/A
# P'_bary (s/s)    =  N/A
# P''_bary (s/s^2) =  N/A
# P_orb (s)        =  N/A
# asin(i)/c (s)    =  N/A
# eccentricity     =  N/A
# w (rad)          =  N/A
# T_peri           =  N/A
######################################################
   0  897.847
   1  758.3654
   2  802.5541
   3  870.1168
   4  848.3796
   5  794.4521
   6  801.4905
   7  815.787
   8  798.9939
   9  704.8215
  10  736.2883
  11  575.2277
  12  690.6058
  13  697.8928
  14  750.2487
  15  627.9749
  16  803.7098
  17  816.7767
  18  694.3578
  19  867.8001
  20  875.3544
  21  867.6284
  22  859.4656
  23  803.7736
  24  769.5903
  25  833.5618
  26  908.3469
  27  850.8215
  28  772.5721
  29  745.7127
  30  715.9586
  31  760.4697
  32  835.7778
  33  789.177
  34  711.8104
  35  786.6656
  36  777.0789
  37  916.7668
  38  934.5087
  39  849.066
  40  834.0931
  41  864.6125
  42  858.9385
  43  760.8414
  44  734.0704
  45  807.5231
  46  945.6569
  47  798.4043
  48  800.7257
  49  871.7299
  50  772.9071
  51  903.3231
  52  861.1199
  53  984.1884
  54  1052.48
  55  1085.06
  56  1042.894
  57  925.08
  58  923.8739
  59  1114.746
  60  1200.411
  61  1351.155
  62  1693.55
  63  1871.494
  64  1874.217
  65  1778.705
  66  1361.94
  67  1204.493
  68  1067.165
  69  927.5814
  70  1109.094
  71  1195.221
  72  1153.607
  73  1054.927
  74  1004.04
  75  984.0086
  76  919.1696
  77  922.7976
  78  983.9847
  79  942.1623
  80  995.8245
  81  943.5184
  82  998.4246
  83  928.1323
  84  948.9664
  85  926.7322
  86  1002.688
  87  998.4528
  88  1000.273
  89  1021.027
  90  1025.127
  91  915.1376
  92  835.66
  93  853.1147
  94  822.0593
  95  813.1748
  96  785.9171
  97  784.4847
  98  769.8141
  99  873.9808
 100  857.3284
 101  787.3401
 102  775.2275
 103  1042.002
 104  1011.114
 105  942.9554
 106  970.6832
 107  956.0695
 108  833.3523
 109  900.8392
 110  821.5291
 111  733.8422
 112  734.6063
 113  848.7343
 114  917.317
 115  857.9741
 116  933.3171
 117  795.7341
 118  896.6875
 119  938.7663
 120  970.318
 121  897.9318
 122  949.6078
 123  924.2146
 124  781.4238
 125  682.5815
 126  699.4849
 127  741.1445
 128  722.0409
 129  807.1893
 130  827.9036
 131  799.056
 132  782.6722
 133  785.2042
 134  692.5872
 135  767.7247
 136  831.551
 137  908.6078
 138  839.2042
 139  895.6326
 140  933.2267
 141  872.8796
 142  860.5798
 143  838.7399
 144  827.4708
 145  874.045
 146  926.1317
 147  1006.664
 148  828.1602
 149  843.4174
 150  936.637
 151  1055.215
 152  1069.684
 153  1120.966
 154  1150.887
 155  1138.913
 156  1068.874
 157  1012.523
 158  1018.014
 159  997.8524
 160  873.6543
 161  872.3254
 162  980.78
 163  1110.778
 164  986.6566
 165  945.3399
 166  960.5533
 167  862.3328
 168  861.5281
 169  952.2775
 170  1085.373
 171  1145.31
 172  1014.167
 173  1038.909
 174  1023.139
 175  968.2599
 176  925.103
 177  870.9982
 178  977.0746
 179  942.1327
 180  899.9579
 181  971.546
 182  889.1492
 183  1035.405
 184  1088.378
 185  1065.014
 186  1049.324
 187  1052.782
 188  1085.476
 189  1064.714
 190  1131.363
 191  1066.154
 192  922.4344
 193  1109.132
 194  1047.977
 195  1058.122
 196  986.0347
 197  963.5342
 198  939.4303
 199  960.4974
 200  1077.346
 201  1063.138
 202  901.8466
 203  992.1042
 204  1048.652
 205  921.9631
 206  940.0756
 207  849.2144
 208  790.4341
 209  895.5154
 210  963.5219
 211  949.7333
 212  899.3444
 213  905.0426
 214  927.1729
 215  790.9783
 216  941.6738
 217  849.4499
 218  997.8927
 219  1029.408
 220  1009.947
 221  984.6097
 222  1001.172
 223  892.5362
 224  1012.807
 225  1007.742
 226  914.907
 227  826.1132
 228  833.3957
 229  896.3458
 230  824.631
 231  810.8095
 232  888.6891
 233  937.0758
 234  820.6902
 235  876.7578
 236  926.4167
 237  1035.331
 238  1069.669
 239  964.9243
 240  883.5933
 241  891.2693
 242  914.5598
 243  948.8446
 244  931.1971
 245  956.229
 246  1080.483
 247  949.8911
 248  883.4186
 249  874.9728
 250  862.9006
 251  853.8979
 252  992.0792
 253  924.7891
 254  914.2839
 255  955.1862
 256  1039.379
 257  947.2123
 258  833.4679
 259  812.1952
 260  886.7777
 261  924.1757
 262  1008.107
 263  1001.465
 264  962.8972
 265  986.2355
 266  916.5094
 267  917.7872
 268  1040.566
 269  1188.684
 270  1204.013
 271  1118.14
 272  1153.612
 273  1045.74
 274  1024.483
 275  1092.262
 276  1064.947
 277  1038.397
 278  1101.98
 279  987.8983
 280  993.9117
 281  1030.882
 282  909.3163
 283  1005.723
 284  1172.373
 285  1165.905
 286  1138.569
 287  1200.609
 288  1103.545
 289  1021.877
 290  1126.542
 291  1132.156
 292  1119.736
 293  1151.78
 294  1127.166
 295  1063.041
 296  1031.16
 297  1021.041
 298  1047.273
 299  1020.773
 300  1173.851
 301  1167.264
 302  1232.042
 303  1307.339
 304  1285.933
 305  1199.308
 306  1152.988
 307  1064.825
 308  1112.089
 309  1125.279
 310  1123.228
 311  1033.878
 312  1092.917
 313  1196.756
 314  1164.36
 315  999.1626
 316  1006.024
 317  1073.689
 318  1102.09
 319  1207.294
 320  1192.312
 321  1168.577
 322  1115.668
 323  1098.161
 324  1102.069
 325  1079.665
 326  1040.382
 327  1036.631
 328  1024.76
 329  1188.593
 330  1189.004
 331  1092.698
 332  1121.105
 333  1139.922
 334  1087.872
 335  1100.243
 336  1179.562
 337  1068.273
 338  998.1725
 339  1072.929
 340  1063.772
 341  946.176
 342  976.8033
 343  1127.243
 344  1063.32
 345  1005.867
 346  934.2342
 347  961.3214
 348  971.2787
 349  958.7892
 350  980.9505
 351  1027.491
 352  991.4102
 353  978.601
 354  941.8455
 355  899.2799
 356  999.9786
 357  900.983
 358  947.2101
 359  1050.853
 360  919.8979
 361  984.7126
 362  1011.642
 363  1053.271
 364  1039.592
 365  1008.31
 366  903.5446
 367  964.7928
 368  993.0801
 369  948.0362
 370  1118.485
 371  1026.087
 372  910.0321
 373  899.5406
 374  914.8721
 375  916.6777
 376  1062.681
 377  1030.119
 378  930.499
 379  1052.203
 380  1016.739
 381  904.292
 382  956.8104
 383  930.5189
 384  950.6002
 385  1005.519
 386  1066.473
 387  1013.925
 388  932.7982
 389  1058.371
 390  1072.226
 391  1017.558
 392  933.2039
 393  997.9683
 394  1078.372
 395  948.8497
 396  908.5834
 397  886.1051
 398  982.5562
 399  999.8622
 400  1115.44
 401  1100.264
 402  980.8987
 403  1019.29
 404  961.058
 405  980.4858
 406  901.8818
 407  868.7032
 408  869.1498
 409  864.1748
 410  928.7819
 411  906.3811
 412  881.4546
 413  922.5873
 414  827.1828
 415  849.5865
 416  1052.18
 417  1010.422
 418  1020.029
 419  972.9079
 420  1007.79
 421  947.6198
 422  894.2199
 423  1021.237
 424  973.1104
 425  950.5428
 426  1003.069
 427  779.1243
 428  736.2916
 429  806.8972
 430  886.7385
 431  930.3742
 432  957.6886
 433  941.4932
 434  959.3751
 435  986.5356
 436  977.8572
 437  988.099
 438  1045.968
 439  946.5997
 440  832.7866
 441  905.3967
 442  888.4619
 443  1018.654
 444  845.8455
 445  805.0623
 446  863.117
 447  874.918
 448  1122.311
 449  1170.92
 450  992.4552
 451  944.6769
 452  903.0814
 453  1043.28
 454  1019.207
 455  955.7395
 456  990.212
 457  884.1398
 458  934.5754
 459  863.5013
 460  825.7673
 461  955.1786
 462  935.5233
 463  893.1854
 464  990.5748
 465  1064.542
 466  1078.646
 467  1089.785
 468  1105.065
 469  985.1219
 470  1028.299
 471  1120.572
 472  1031.073
 473  923.4166
 474  1018.79
 475  1064.7
 476  971.0768
 477  985.8996
 478  933.0985
 479  1015.958
 480  891.8954
 481  923.9735
 482  986.0627
 483  1051.155
 484  1100.094
 485  1080.139
 486  1023.666
 487  927.4756
 488  944.2665
 489  968.6976
 490  837.5144
 491  799.367
 492  869.1808
 493  830.6383
 494  859.2081
 495  776.8111
 496  652.373
 497  729.5812
 498  898.1413
 499  879.0734
 500  802.6945
 501  747.9873
 502  814.6005
 503  894.9725
 504  882.2579
 505  859.3766
 506  784.2429
 507  845.4787
 508  840.1663
 509  855.7834
 510  806.2317
 511  914.9788
