# Input file       =  1207737281.096036_cleaned.dat
# Candidate        =  PSR_0332+5434
# Telescope        =  AR
# Epoch_topo       =  58222.440973333752
# Epoch_bary       =  N/A
# T_sample         =  0.002
# Data Folded      =  7340032
# Data Avg         =  0.0957938969305752
# Data StdDev      =  5.78373965198202 
# Profile Bins     =  1024
# Profile Avg      =  686.538562476189 
# Profile StdDev   =  489.674776546806 
# Reduced chi-sqr  =  2.852
# Prob(Noise)      <  2.33e-181   (~28.7 sigma)
# P_topo (ms)      =  714.560595724714  +/- 0.000268
# P'_topo (s/s)    =  -0                +/- 1.41e-10
# P''_topo (s/s^2) =  0                 +/- 6.23e-14
# P_bary (ms)      =  N/A
# P'_bary (s/s)    =  N/A
# P''_bary (s/s^2) =  N/A
# P_orb (s)        =  N/A
# asin(i)/c (s)    =  N/A
# eccentricity     =  N/A
# w (rad)          =  N/A
# T_peri           =  N/A
######################################################
   0  -148.1616
   1  -70.05932
   2  -42.47907
   3  -48.27163
   4  -134.8781
   5  -223.3468
   6  -243.1702
   7  -290.9401
   8  -218.0262
   9  -10.08496
  10  -50.3247
  11  -78.48734
  12  -119.3933
  13  -37.31413
  14  -46.93457
  15  -122.954
  16  -61.86601
  17  -108.505
  18  -30.21616
  19  -164.6559
  20  -94.31243
  21  -18.67969
  22  -82.74186
  23  -123.5292
  24  -117.649
  25  -66.08164
  26  -122.5503
  27  -96.77418
  28  18.81336
  29  229.1421
  30  225.9903
  31  241.222
  32  208.2138
  33  295.5561
  34  266.8893
  35  171.6355
  36  130.6681
  37  174.2131
  38  275.1736
  39  321.7815
  40  286.4215
  41  366.5468
  42  447.8469
  43  449.2842
  44  285.301
  45  261.6939
  46  379.1118
  47  583.7645
  48  727.3558
  49  721.7499
  50  635.6119
  51  636.6472
  52  625.1868
  53  546.3055
  54  465.6451
  55  448.2119
  56  585.222
  57  578.3846
  58  599.4066
  59  564.1134
  60  687.0648
  61  759.7482
  62  713.0807
  63  644.7665
  64  696.4865
  65  810.6917
  66  735.3552
  67  702.9938
  68  772.1594
  69  884.6473
  70  946.9784
  71  911.4044
  72  941.3114
  73  936.647
  74  928.7204
  75  873.1938
  76  936.3467
  77  978.0198
  78  989.2881
  79  1041.639
  80  863.1999
  81  844.1467
  82  929.6419
  83  1029.508
  84  870.4122
  85  755.4702
  86  718.0226
  87  757.6199
  88  789.6083
  89  850.5151
  90  823.5133
  91  693.8036
  92  682.2469
  93  730.42
  94  763.1813
  95  721.8096
  96  588.3719
  97  558.1352
  98  496.9277
  99  629.8939
 100  609.0539
 101  640.5767
 102  602.7782
 103  585.0517
 104  510.463
 105  408.0614
 106  279.5965
 107  341.6693
 108  338.7829
 109  426.3662
 110  397.406
 111  345.9838
 112  378.0567
 113  385.8536
 114  451.8442
 115  362.8128
 116  310.0594
 117  173.3772
 118  287.5615
 119  218.551
 120  268.9536
 121  201.1291
 122  334.7805
 123  312.888
 124  209.9201
 125  149.7086
 126  160.4666
 127  119.4859
 128  64.67912
 129  -6.194701
 130  -8.456313
 131  164.1939
 132  162.9125
 133  269.0592
 134  244.7006
 135  363.4229
 136  327.5053
 137  329.8048
 138  142.5072
 139  -9.457913
 140  -78.77475
 141  -18.61175
 142  95.5754
 143  67.94027
 144  124.1445
 145  51.32482
 146  72.53686
 147  56.13976
 148  23.15862
 149  49.96323
 150  23.94022
 151  96.30045
 152  67.47412
 153  -14.43543
 154  -80.84471
 155  24.56729
 156  14.819
 157  -91.80131
 158  -117.544
 159  -60.11493
 160  -124.274
 161  -197.1441
 162  -233.5614
 163  -147.5899
 164  -72.49821
 165  99.20226
 166  49.32257
 167  55.5886
 168  40.14919
 169  108.8742
 170  124.8732
 171  19.59119
 172  113.8758
 173  122.3195
 174  85.70486
 175  -52.58609
 176  -47.73463
 177  66.82646
 178  145.8962
 179  171.4333
 180  138.5546
 181  23.1306
 182  -84.49857
 183  -48.95164
 184  94.86489
 185  356.1848
 186  429.0757
 187  471.9134
 188  381.3324
 189  433.7333
 190  449.3946
 191  367.2336
 192  426.0941
 193  417.0324
 194  480.8557
 195  487.2339
 196  448.6025
 197  409.2259
 198  397.3086
 199  483.5713
 200  609.7315
 201  734.7142
 202  728.7498
 203  718.2445
 204  702.5827
 205  805.0789
 206  910.5195
 207  971.5231
 208  1005.569
 209  1038.977
 210  928.9305
 211  894.0732
 212  943.2386
 213  1098.977
 214  1069.647
 215  915.5366
 216  832.7274
 217  871.0028
 218  861.2911
 219  962.1866
 220  1007.943
 221  1118.634
 222  964.1584
 223  1013.417
 224  991.0689
 225  1109.75
 226  946.4079
 227  937.0508
 228  845.2765
 229  790.852
 230  730.2238
 231  719.1553
 232  635.4415
 233  535.5163
 234  656.972
 235  810.7882
 236  861.0273
 237  831.5782
 238  912.6136
 239  959.5188
 240  981.4919
 241  912.7099
 242  879.301
 243  696.3613
 244  646.0681
 245  594.2482
 246  678.0519
 247  646.5538
 248  701.0092
 249  824.4965
 250  944.4564
 251  1079.798
 252  1171.487
 253  1214.391
 254  1011.836
 255  798.8999
 256  716.3719
 257  738.1434
 258  725.8203
 259  698.435
 260  621.0991
 261  615.0892
 262  645.6198
 263  744.0485
 264  615.4405
 265  606.0926
 266  748.3371
 267  881.6901
 268  797.7141
 269  722.5444
 270  605.9166
 271  585.6703
 272  561.8196
 273  577.0156
 274  584.3495
 275  685.024
 276  763.7361
 277  788.1355
 278  695.916
 279  809.6436
 280  928.8577
 281  930.7525
 282  791.8422
 283  737.5939
 284  704.8409
 285  774.1529
 286  813.2831
 287  838.7839
 288  736.3615
 289  684.5809
 290  720.4998
 291  706.2471
 292  708.6706
 293  659.7837
 294  699.9509
 295  730.197
 296  671.429
 297  591.311
 298  598.9179
 299  672.742
 300  687.8856
 301  656.1329
 302  700.5124
 303  650.1396
 304  651.5976
 305  499.4351
 306  422.9984
 307  322.6376
 308  503.7172
 309  561.8116
 310  552.952
 311  395.594
 312  322.0404
 313  424.0628
 314  424.8546
 315  414.784
 316  398.1355
 317  400.6332
 318  367.9101
 319  377.0671
 320  341.8499
 321  328.2182
 322  426.6346
 323  511.2287
 324  576.6669
 325  618.6606
 326  512.0908
 327  509.0785
 328  513.4434
 329  601.2957
 330  653.5907
 331  702.6106
 332  749.8301
 333  694.41
 334  710.9839
 335  696.7705
 336  872.159
 337  898.4315
 338  916.5607
 339  782.0377
 340  707.9579
 341  795.3245
 342  859.3334
 343  958.4235
 344  1044.951
 345  1046.673
 346  1012.949
 347  1026.618
 348  1129.964
 349  1192.712
 350  1143.453
 351  1058.941
 352  1008.954
 353  979.8576
 354  1057.349
 355  1154.227
 356  1160.676
 357  1164.56
 358  1131.099
 359  1178.958
 360  1240.31
 361  1332.847
 362  1391.963
 363  1350.19
 364  1311.162
 365  1239.119
 366  1240.477
 367  1333.495
 368  1283.678
 369  1274.522
 370  1232.271
 371  1173.21
 372  1140.768
 373  1182.991
 374  1306.498
 375  1240.384
 376  1169.325
 377  1167.571
 378  1104.835
 379  1047.609
 380  941.0399
 381  1020.867
 382  995.1292
 383  1002.888
 384  808.6724
 385  680.6906
 386  703.9644
 387  846.0573
 388  928.3801
 389  947.515
 390  800.2489
 391  800.6305
 392  880.7519
 393  1023.461
 394  992.6278
 395  862.6232
 396  758.7581
 397  657.9072
 398  603.8036
 399  739.8901
 400  712.7368
 401  678.5833
 402  688.4905
 403  774.8461
 404  786.7396
 405  760.6298
 406  759.3532
 407  683.1859
 408  661.211
 409  604.3665
 410  485.4784
 411  402.0395
 412  400.4434
 413  359.1772
 414  261.1559
 415  131.2948
 416  338.8717
 417  468.658
 418  589.483
 419  594.7248
 420  589.5832
 421  596.6424
 422  437.0623
 423  397.0825
 424  443.0144
 425  549.7369
 426  477.9872
 427  348.8516
 428  232.0106
 429  145.1285
 430  139.7472
 431  107.4293
 432  143.0714
 433  154.4438
 434  261.6921
 435  265.9189
 436  204.6409
 437  166.3519
 438  282.2221
 439  367.791
 440  222.4926
 441  167.9893
 442  44.92741
 443  126.7816
 444  361.8958
 445  530.1419
 446  463.754
 447  480.214
 448  478.4172
 449  485.3557
 450  492.9015
 451  510.7089
 452  488.9379
 453  426.6687
 454  492.1431
 455  468.1704
 456  378.5674
 457  367.0951
 458  476.3709
 459  619.2393
 460  671.16
 461  683.3705
 462  660.8088
 463  627.9999
 464  576.756
 465  762.5953
 466  887.0395
 467  849.6735
 468  698.5599
 469  726.0139
 470  744.5142
 471  840.9946
 472  856.6285
 473  835.2562
 474  759.1765
 475  722.131
 476  805.67
 477  906.3209
 478  956.369
 479  970.5096
 480  986.0002
 481  1030.52
 482  1006.034
 483  908.825
 484  820.5983
 485  799.5164
 486  911.5153
 487  1004.82
 488  1057.152
 489  1064.805
 490  1027.879
 491  1031.047
 492  1045.571
 493  1190.985
 494  1252.495
 495  1254.465
 496  1318.346
 497  1254.487
 498  1203.293
 499  1130.496
 500  1204.859
 501  1098.737
 502  1071.224
 503  1058.57
 504  1238.922
 505  1301.571
 506  1399.381
 507  1333.735
 508  1276.415
 509  1322.474
 510  1336.442
 511  1285.504
 512  1273.018
 513  1250.995
 514  1177.358
 515  1289.052
 516  1442.344
 517  1445.597
 518  1420.421
 519  1372.931
 520  1406.341
 521  1394.209
 522  1270.339
 523  1145.895
 524  1123.453
 525  1101.772
 526  1111.556
 527  1042.082
 528  1040.456
 529  1123.042
 530  1020.551
 531  967.1046
 532  907.5978
 533  1009.848
 534  1049.64
 535  964.1898
 536  834.4756
 537  890.3986
 538  1002.525
 539  1064.589
 540  1065.855
 541  903.9957
 542  879.291
 543  849.84
 544  867.1805
 545  909.4789
 546  829.5354
 547  802.7419
 548  755.2902
 549  822.4103
 550  801.1034
 551  801.7884
 552  746.429
 553  778.8842
 554  672.5086
 555  653.1435
 556  550.2736
 557  660.0396
 558  771.9664
 559  943.1767
 560  1028.286
 561  1053.712
 562  1142.203
 563  1080.723
 564  985.9721
 565  965.1915
 566  1034.001
 567  1104.678
 568  1046.215
 569  1027.512
 570  966.0558
 571  990.5474
 572  992.969
 573  979.0062
 574  882.9897
 575  785.1526
 576  732.3684
 577  724.62
 578  857.2066
 579  935.1442
 580  969.2349
 581  868.4714
 582  888.5944
 583  832.9767
 584  867.4957
 585  893.1848
 586  1032.04
 587  1150.148
 588  1324.896
 589  1336.964
 590  1353.05
 591  1306.419
 592  1220.203
 593  1123.54
 594  1140.745
 595  1245.377
 596  1352.29
 597  1416.265
 598  1631.024
 599  1865.9
 600  2110.787
 601  2262.71
 602  2574.315
 603  2683.616
 604  2862.519
 605  2872.796
 606  2795.678
 607  2506.329
 608  2215.015
 609  1951.758
 610  1614.2
 611  1329.596
 612  1185.236
 613  1119.227
 614  1070.551
 615  1040.35
 616  1048.719
 617  1040.37
 618  1109.449
 619  1062.993
 620  967.65
 621  898.2753
 622  965.7793
 623  1062.001
 624  1037.38
 625  953.6514
 626  890.7953
 627  986.1443
 628  1029.054
 629  1140.851
 630  1114.836
 631  1116.392
 632  1142.765
 633  1233.284
 634  1118.505
 635  1104.983
 636  1139.051
 637  1188.382
 638  1157.04
 639  1144.333
 640  1147.192
 641  964.5651
 642  943.243
 643  1168.9
 644  1283.499
 645  1246.56
 646  1167.826
 647  1204.791
 648  1252.462
 649  1315.535
 650  1310.602
 651  1372.396
 652  1398.098
 653  1370.548
 654  1387.988
 655  1327.154
 656  1362.198
 657  1381.34
 658  1439.335
 659  1483.177
 660  1574.405
 661  1608.94
 662  1550.425
 663  1544.163
 664  1610.503
 665  1623.997
 666  1610.826
 667  1629.933
 668  1611.951
 669  1529.818
 670  1547.646
 671  1646.976
 672  1653.784
 673  1559.715
 674  1474.338
 675  1379.278
 676  1337.723
 677  1332.035
 678  1356.023
 679  1326.566
 680  1237.309
 681  1163.904
 682  1177.716
 683  1210.811
 684  1295.313
 685  1211.785
 686  1136.66
 687  964.4539
 688  990.1637
 689  1039.06
 690  1152.857
 691  1114.634
 692  1078.73
 693  1001.97
 694  892.0577
 695  912.5306
 696  916.5258
 697  995.6907
 698  956.2631
 699  972.7519
 700  870.6336
 701  849.1022
 702  730.6805
 703  773.5756
 704  793.4667
 705  801.1983
 706  717.1107
 707  647.8865
 708  482.8262
 709  549.7897
 710  628.5425
 711  713.9218
 712  695.1493
 713  694.7999
 714  627.3906
 715  620.6216
 716  658.9987
 717  725.0687
 718  784.0935
 719  853.0338
 720  737.5065
 721  646.107
 722  674.3445
 723  713.142
 724  684.7254
 725  627.6329
 726  621.5798
 727  658.2371
 728  668.9077
 729  685.5768
 730  577.7676
 731  360.4762
 732  308.661
 733  380.6526
 734  385.0686
 735  534.7067
 736  569.6086
 737  685.1825
 738  536.9364
 739  446.8314
 740  386.9518
 741  317.8731
 742  201.3739
 743  127.5023
 744  126.354
 745  244.0903
 746  271.0994
 747  323.7348
 748  425.2616
 749  466.2946
 750  421.5488
 751  359.4025
 752  430.8445
 753  381.8117
 754  357.2074
 755  348.4973
 756  550.0773
 757  740.9244
 758  807.7148
 759  687.2531
 760  661.9651
 761  603.8498
 762  506.731
 763  492.9437
 764  439.8819
 765  402.1414
 766  465.9299
 767  658.6835
 768  729.2502
 769  663.285
 770  587.9973
 771  596.5732
 772  651.5817
 773  612.7869
 774  595.3554
 775  652.3167
 776  688.0872
 777  769.5363
 778  852.5248
 779  888.7382
 780  882.5247
 781  793.3366
 782  707.5681
 783  740.5224
 784  729.6104
 785  884.5646
 786  952.608
 787  1108.926
 788  1056.054
 789  988.3892
 790  1017.007
 791  1025.43
 792  1014.459
 793  996.6843
 794  980.1038
 795  940.6439
 796  937.4163
 797  1131.908
 798  1208.783
 799  1263.012
 800  1292.019
 801  1325.639
 802  1311.8
 803  1356.521
 804  1382.121
 805  1439.756
 806  1449.622
 807  1422.491
 808  1342.11
 809  1240.342
 810  1078.107
 811  1140.118
 812  1205.745
 813  1230.717
 814  1187.341
 815  1244.675
 816  1282.118
 817  1254.464
 818  1177.463
 819  1239.816
 820  1189.387
 821  1168.636
 822  1094.422
 823  966.4543
 824  859.9715
 825  977.5519
 826  1090.241
 827  1142.133
 828  912.1193
 829  827.2867
 830  881.8438
 831  1044.341
 832  1059.192
 833  1074.701
 834  1085.489
 835  1082.771
 836  1029.576
 837  1016.951
 838  1048.786
 839  1020.21
 840  960.8746
 841  951.7008
 842  1007.66
 843  1049.563
 844  1046.511
 845  1019.398
 846  1005.99
 847  862.1464
 848  865.5541
 849  931.5303
 850  1010.525
 851  990.463
 852  853.8938
 853  733.8516
 854  737.23
 855  780.7264
 856  700.6345
 857  740.9973
 858  735.5071
 859  781.9589
 860  697.3196
 861  558.0217
 862  528.3507
 863  665.6716
 864  594.1701
 865  554.0354
 866  521.4583
 867  656.4387
 868  665.6382
 869  579.0876
 870  585.7598
 871  490.3356
 872  478.9956
 873  329.3732
 874  387.4571
 875  281.0379
 876  338.6751
 877  365.1196
 878  458.3664
 879  358.9231
 880  328.4865
 881  334.4824
 882  461.0678
 883  372.1114
 884  365.0085
 885  201.1705
 886  119.0217
 887  153.9801
 888  263.5573
 889  180.5033
 890  80.03369
 891  108.1066
 892  249.6542
 893  262.5612
 894  258.1889
 895  269.5304
 896  218.2437
 897  87.46256
 898  61.69954
 899  83.4746
 900  152.7547
 901  177.0386
 902  271.3093
 903  317.92
 904  342.2226
 905  486.6007
 906  641.9943
 907  711.8182
 908  591.3123
 909  425.5669
 910  341.0081
 911  290.9373
 912  338.7812
 913  318.2784
 914  349.5079
 915  329.6849
 916  368.0559
 917  402.5452
 918  456.7906
 919  497.7515
 920  509.0448
 921  510.9254
 922  444.9949
 923  486.4836
 924  511.2042
 925  723.4467
 926  663.2344
 927  513.5761
 928  561.4995
 929  544.076
 930  621.2122
 931  655.075
 932  666.3542
 933  635.0312
 934  530.0536
 935  441.0359
 936  512.5211
 937  512.4242
 938  604.5235
 939  566.4257
 940  636.9899
 941  654.5192
 942  649.9283
 943  631.0772
 944  579.4395
 945  384.0114
 946  362.1044
 947  432.8549
 948  514.8187
 949  505.1015
 950  450.5468
 951  510.3762
 952  436.9635
 953  371.5534
 954  383.8912
 955  472.6162
 956  509.3741
 957  419.2539
 958  368.4737
 959  366.0111
 960  346.6715
 961  202.3311
 962  200.7321
 963  164.7799
 964  225.388
 965  232.1185
 966  214.7615
 967  145.8216
 968  114.8397
 969  162.2771
 970  245.3041
 971  318.5673
 972  250.5847
 973  191.2628
 974  211.082
 975  240.4059
 976  189.9036
 977  139.5083
 978  180.9439
 979  278.7758
 980  261.0526
 981  158.7282
 982  73.22277
 983  3.770561
 984  64.84693
 985  16.12765
 986  -57.63701
 987  -36.51068
 988  48.50144
 989  2.717268
 990  -10.53465
 991  -114.6716
 992  -146.1467
 993  -109.1248
 994  -150.9424
 995  -80.34245
 996  -53.47696
 997  -39.92035
 998  -116.0398
 999  -175.3905
1000  -80.52431
1001  63.20414
1002  134.8057
1003  84.29509
1004  -3.816073
1005  -117.8479
1006  -206.3062
1007  -212.0484
1008  -120.2642
1009  -27.05793
1010  78.88966
1011  19.40059
1012  -112.7119
1013  -256.5887
1014  -291.0247
1015  -310.1803
1016  -225.7125
1017  -124.4679
1018  -153.335
1019  -257.102
1020  -332.099
1021  -303.3405
1022  -274.9068
1023  -173.82
