# Input file       =  1207659017.11272_cleaned.dat
# Candidate        =  PSR_0332+5434
# Telescope        =  AR
# Epoch_topo       =  58221.535140193519
# Epoch_bary       =  N/A
# T_sample         =  0.002
# Data Folded      =  7340032
# Data Avg         =  0.0681109203656752
# Data StdDev      =  1.0001312997719  
# Profile Bins     =  512
# Profile Avg      =  976.482040490344 
# Profile StdDev   =  119.748757297131 
# Reduced chi-sqr  =  0.885
# Prob(Noise)      <  0.97   (~0.0 sigma)
# P_topo (ms)      =  714.561434708714  +/- 0.000493
# P'_topo (s/s)    =  -0                +/- 2.6e-10
# P''_topo (s/s^2) =  0                 +/- 1.15e-13
# P_bary (ms)      =  N/A
# P'_bary (s/s)    =  N/A
# P''_bary (s/s^2) =  N/A
# P_orb (s)        =  N/A
# asin(i)/c (s)    =  N/A
# eccentricity     =  N/A
# w (rad)          =  N/A
# T_peri           =  N/A
######################################################
   0  1363.532
   1  1280.052
   2  1162.772
   3  1020.183
   4  977.8063
   5  935.058
   6  907.6902
   7  897.0334
   8  900.4895
   9  856.1787
  10  874.8042
  11  951.8282
  12  962.6403
  13  1024.927
  14  980.6171
  15  1003.481
  16  979.873
  17  887.8988
  18  972.841
  19  984.1677
  20  968.903
  21  935.7974
  22  1008.301
  23  1021.984
  24  1010.321
  25  1006.791
  26  974.1378
  27  980.486
  28  920.6357
  29  980.2646
  30  1029.969
  31  959.5066
  32  922.1146
  33  963.1067
  34  981.1174
  35  967.0184
  36  939.4355
  37  1011.727
  38  947.9569
  39  926.5342
  40  927.2213
  41  990.0908
  42  986.2795
  43  930.6829
  44  940.2065
  45  927.4536
  46  984.4621
  47  934.2583
  48  954.3
  49  907.6907
  50  913.1869
  51  928.9968
  52  912.7092
  53  898.7941
  54  860.2258
  55  906.2492
  56  892.5391
  57  886.9249
  58  886.4805
  59  861.3779
  60  924.9248
  61  899.0096
  62  907.4017
  63  912.4054
  64  886.6542
  65  949.3546
  66  983.6633
  67  901.7244
  68  992.8032
  69  1065.293
  70  1011.571
  71  1009.111
  72  967.7933
  73  894.3151
  74  927.5455
  75  975.5639
  76  1025.697
  77  971.2302
  78  985.6423
  79  986.1464
  80  1005.259
  81  912.9581
  82  971.874
  83  970.2318
  84  915.5815
  85  996.3181
  86  955.5095
  87  1016.707
  88  1029.933
  89  1038.925
  90  1013.208
  91  952.408
  92  1066.373
  93  1062.953
  94  990.8039
  95  1029.995
  96  1134.909
  97  1048.27
  98  1066.912
  99  1143.626
 100  1103.827
 101  1051.991
 102  1026.949
 103  1075.349
 104  1106.118
 105  1103.573
 106  1142.759
 107  1247.14
 108  1128.643
 109  1078.525
 110  1142.132
 111  1121.741
 112  1060.821
 113  1132.405
 114  1058.188
 115  1029.739
 116  1068.405
 117  1073.09
 118  1074.959
 119  1080.499
 120  1025.02
 121  1022.417
 122  1005.62
 123  1046.225
 124  1048.7
 125  1044.359
 126  1126.908
 127  1022.058
 128  943.4694
 129  880.4738
 130  868.1723
 131  969.7741
 132  1000.859
 133  956.9659
 134  864.4485
 135  944.9595
 136  1001.502
 137  1007.606
 138  979.4487
 139  989.4493
 140  897.4435
 141  860.3364
 142  981.1931
 143  977.4288
 144  936.5115
 145  922.9989
 146  909.5371
 147  953.3847
 148  898.8608
 149  898.0818
 150  967.0618
 151  1007.878
 152  988.7715
 153  931.8005
 154  910.3113
 155  900.5453
 156  958.8455
 157  910.4511
 158  895.1586
 159  866.4955
 160  926.8196
 161  914.8779
 162  889.1334
 163  1019.791
 164  1020.308
 165  935.5814
 166  908.7683
 167  929.7921
 168  961.3249
 169  934.925
 170  968.3914
 171  996.4086
 172  1017.04
 173  934.5337
 174  971.8338
 175  1028.963
 176  1083.048
 177  1100.983
 178  1031.731
 179  963.5165
 180  891.1873
 181  961.8179
 182  970.3638
 183  960.6984
 184  1004.789
 185  981.3201
 186  1011.183
 187  987.6933
 188  1007.64
 189  980.9821
 190  915.1886
 191  969.1329
 192  974.451
 193  978.2544
 194  990.2779
 195  975.5625
 196  1013.47
 197  957.4395
 198  982.5968
 199  993.1861
 200  986.9134
 201  955.0526
 202  1000.132
 203  966.2423
 204  978.8076
 205  1048.542
 206  1033.813
 207  1001.908
 208  1000.455
 209  1038.821
 210  957.6858
 211  974.7086
 212  945.9324
 213  940.3831
 214  956.1027
 215  899.7712
 216  990.3483
 217  950.8962
 218  979.2956
 219  998.574
 220  967.8744
 221  1011.683
 222  1002.479
 223  970.7153
 224  956.2833
 225  926.4043
 226  962.4677
 227  912.7596
 228  889.6822
 229  901.6294
 230  1009.838
 231  960.051
 232  904.366
 233  901.7285
 234  923.8214
 235  911.9359
 236  992.4955
 237  975.7358
 238  982.1092
 239  1021.127
 240  896.7803
 241  934.8293
 242  992.3381
 243  984.9232
 244  1031.514
 245  985.0528
 246  1032.471
 247  1006.975
 248  971.2488
 249  963.5042
 250  938.0305
 251  942.9921
 252  975.3307
 253  995.8729
 254  1006.089
 255  926.9461
 256  790.5926
 257  847.1905
 258  955.0844
 259  952.554
 260  886.4378
 261  925.9924
 262  892.6893
 263  947.4221
 264  911.1831
 265  914.7739
 266  931.5369
 267  895.5676
 268  862.3519
 269  912.7503
 270  922.5258
 271  917.4971
 272  893.8464
 273  823.121
 274  830.81
 275  904.2877
 276  861.985
 277  895.6458
 278  944.7687
 279  858.8533
 280  853.1667
 281  866.1042
 282  855.5207
 283  814.6866
 284  824.1427
 285  799.3234
 286  857.756
 287  959.6918
 288  913.4832
 289  870.46
 290  921.9795
 291  853.0538
 292  796.7681
 293  884.2231
 294  912.1215
 295  959.0827
 296  910.8697
 297  888.4435
 298  901.6976
 299  882.9453
 300  877.9932
 301  859.3427
 302  868.8824
 303  929.6734
 304  972.2515
 305  976.5156
 306  897.9653
 307  928.0637
 308  960.7905
 309  947.7473
 310  927.916
 311  929.3116
 312  972.0994
 313  1000.917
 314  997.1597
 315  1044.703
 316  1053.736
 317  1049.858
 318  998.7228
 319  966.5809
 320  1025.744
 321  1052.051
 322  1019.318
 323  1077.021
 324  1062.575
 325  1020.434
 326  999.7563
 327  1006.439
 328  945.6892
 329  980.9797
 330  904.6776
 331  922.3773
 332  871.3917
 333  892.7266
 334  965.2485
 335  965.0323
 336  982.11
 337  1018.544
 338  970.561
 339  1002.026
 340  997.299
 341  910.0959
 342  850.695
 343  872.0622
 344  923.8589
 345  924.2729
 346  1027.105
 347  943.9257
 348  880.592
 349  904.3682
 350  910.6772
 351  958.4159
 352  1004.139
 353  998.4912
 354  935.9892
 355  928.0552
 356  961.2842
 357  929.5877
 358  912.3882
 359  940.9269
 360  1021.666
 361  989.6504
 362  998.1651
 363  1022.215
 364  1017.897
 365  940.142
 366  945.8845
 367  924.2033
 368  973.0865
 369  985.5904
 370  1002.737
 371  941.5182
 372  1002.108
 373  986.7806
 374  1015.257
 375  957.8958
 376  956.8922
 377  911.6929
 378  935.1612
 379  987.299
 380  944.26
 381  952.6772
 382  1019.373
 383  996.8499
 384  979.1713
 385  995.9125
 386  1016.629
 387  1087.276
 388  1030.078
 389  1076.585
 390  1103.71
 391  1090.887
 392  1150.705
 393  1095.381
 394  1057.449
 395  1046.401
 396  1013.767
 397  1127.772
 398  1082.063
 399  1081.653
 400  1139.169
 401  1086.576
 402  1044.965
 403  1112.147
 404  1093.636
 405  987.1131
 406  1044.582
 407  1060.046
 408  1045.048
 409  1014.079
 410  975.2001
 411  1025.329
 412  960.7025
 413  911.1676
 414  958.2361
 415  977.9073
 416  926.0933
 417  983.5658
 418  983.8271
 419  928.3831
 420  960.1646
 421  977.4318
 422  978.0759
 423  953.8828
 424  962.8546
 425  1029.725
 426  937.0123
 427  963.0245
 428  987.7597
 429  1016.766
 430  1059.764
 431  972.8361
 432  1017.134
 433  1066.195
 434  1072.143
 435  1078.861
 436  1028.17
 437  1030.872
 438  1087.973
 439  974.4829
 440  956.0182
 441  1018.689
 442  970.8854
 443  943.8538
 444  1013.56
 445  1092.816
 446  1086.448
 447  1094.32
 448  1078.424
 449  1020.48
 450  1028.596
 451  1006.828
 452  989.6786
 453  1045.823
 454  1061.877
 455  1023.657
 456  1013.747
 457  1033.223
 458  1030.532
 459  987.1259
 460  996.395
 461  1024.521
 462  1019.534
 463  1039.393
 464  1088.303
 465  961.2963
 466  975.0345
 467  1123.994
 468  1101.552
 469  1129.607
 470  1217.242
 471  1153.382
 472  1079.061
 473  1039.793
 474  1050.652
 475  1095.321
 476  1073.1
 477  971.2908
 478  1007.994
 479  1056.415
 480  1062.261
 481  989.694
 482  874.2462
 483  810.9217
 484  891.2061
 485  934.1848
 486  918.2783
 487  874.1133
 488  886.2684
 489  792.3505
 490  842.3602
 491  939.3407
 492  878.2137
 493  893.2061
 494  850.5059
 495  903.1488
 496  851.7951
 497  725.1261
 498  777.8439
 499  836.1949
 500  859.247
 501  917.7877
 502  864.4736
 503  921.7858
 504  950.3946
 505  887.9467
 506  951.8751
 507  943.0372
 508  1010.725
 509  1209.271
 510  1374.101
 511  1536.378
