# Input file       =  1207995806.105682_cleaned.dat
# Candidate        =  PSR_0332+5434
# Telescope        =  AR
# Epoch_topo       =  58225.433160945395
# Epoch_bary       =  N/A
# T_sample         =  0.002
# Data Folded      =  7340032
# Data Avg         =  -0.0691164828697628
# Data StdDev      =  6.58357914911913 
# Profile Bins     =  512
# Profile Avg      =  -990.073878153018
# Profile StdDev   =  788.2719217508   
# Reduced chi-sqr  =  0.752
# Prob(Noise)      <  1   (~0.0 sigma)
# P_topo (ms)      =  714.558272023421  +/- 0.000598
# P'_topo (s/s)    =  -0                +/- 3.16e-10
# P''_topo (s/s^2) =  0                 +/- 1.39e-13
# P_bary (ms)      =  N/A
# P'_bary (s/s)    =  N/A
# P''_bary (s/s^2) =  N/A
# P_orb (s)        =  N/A
# asin(i)/c (s)    =  N/A
# eccentricity     =  N/A
# w (rad)          =  N/A
# T_peri           =  N/A
######################################################
   0  -1300.943
   1  -1353.917
   2  -1011.074
   3  -1085.744
   4  -1031.603
   5  -884.3425
   6  -1240.689
   7  -1187.946
   8  -1110.373
   9  -1067.498
  10  -1253.607
  11  -1199.175
  12  -788.3076
  13  -1031.881
  14  -1199.878
  15  -926.1514
  16  -847.2963
  17  -705.8794
  18  -1216.469
  19  -1515.648
  20  -1041.004
  21  -969.6127
  22  -930.4149
  23  -757.378
  24  -1027.014
  25  -1231.577
  26  -874.0877
  27  -1291.751
  28  -1312.19
  29  -982.8749
  30  -1067.103
  31  -1443.922
  32  -1269.051
  33  -1586.332
  34  -1453.915
  35  -1553.56
  36  -1169.224
  37  -1259.459
  38  -1048.7
  39  -1038.908
  40  -1378.311
  41  -1143.505
  42  -947.0342
  43  -976.9247
  44  -879.634
  45  -942.3738
  46  -974.3508
  47  -659.0146
  48  -735.7152
  49  -776.9783
  50  -603.4169
  51  -785.8455
  52  -583.8527
  53  -594.0579
  54  -823.9202
  55  -1208.557
  56  -1434.531
  57  -1077.857
  58  -911.3643
  59  -1193.311
  60  -1027.113
  61  -1208.957
  62  -1363.168
  63  -1752.923
  64  -1533.825
  65  -1365.052
  66  -1180.961
  67  -1142.635
  68  -1296.237
  69  -1240.624
  70  -1527.041
  71  -1364.035
  72  -1280.044
  73  -1645.8
  74  -1760.63
  75  -1813.298
  76  -1765.067
  77  -1306.969
  78  -1535.324
  79  -1340.723
  80  -1554.829
  81  -1178.818
  82  -1775.671
  83  -1471.175
  84  -1281.184
  85  -1280.768
  86  -1308.544
  87  -1443.048
  88  -1714.183
  89  -1487.289
  90  -1610.233
  91  -1433.172
  92  -1720.951
  93  -1527.073
  94  -1273.5
  95  -2110.719
  96  -1903.363
  97  -1803.088
  98  -1729.279
  99  -1424.719
 100  -1092.052
 101  -1280.396
 102  -1717.444
 103  -1606.385
 104  -1360.722
 105  -1155.814
 106  -1549.756
 107  -1718.524
 108  -1859.815
 109  -1833.134
 110  -1543.843
 111  -1131.71
 112  -1047.13
 113  -1019.388
 114  -1420.943
 115  -1252.584
 116  -857.8965
 117  -1228.846
 118  -1145.193
 119  -1113.024
 120  -1155.765
 121  -1290.101
 122  -1341.535
 123  -1311.247
 124  -1251.985
 125  -1302.403
 126  -1299.839
 127  -1562.284
 128  -1690.904
 129  -1703.655
 130  -1563.037
 131  -1594.139
 132  -1456.486
 133  -1096.671
 134  -1065.429
 135  -1129.724
 136  -1455.332
 137  -1883.398
 138  -1270.73
 139  -1022.861
 140  -976.8819
 141  -755.2729
 142  -660.4695
 143  -984.17
 144  -1090.904
 145  -1157.318
 146  -1026.958
 147  -1163.702
 148  -1558.051
 149  -1235.449
 150  -1299.168
 151  -1655.247
 152  -1327.454
 153  -936.7614
 154  -1174.704
 155  -894.4489
 156  -1359.225
 157  -1430.876
 158  -1396.18
 159  -1019.249
 160  -1013.277
 161  -1326.012
 162  -884.2044
 163  -874.16
 164  -1399.464
 165  -1050.598
 166  -1222.217
 167  -1399.914
 168  -1628.602
 169  -1640.797
 170  -1813.309
 171  -1908.197
 172  -1891.145
 173  -1975.38
 174  -2160.761
 175  -2148.754
 176  -2355.218
 177  -2267.181
 178  -2509.284
 179  -2336.57
 180  -2396.845
 181  -2335.356
 182  -2244.961
 183  -1917.325
 184  -1769.488
 185  -1395.131
 186  -1581.867
 187  -1498.129
 188  -1178.381
 189  -769.0147
 190  -976.8238
 191  -851.5999
 192  -518.894
 193  -413.9686
 194  -742.7975
 195  -1137.899
 196  -1180.827
 197  -1135.672
 198  -879.0951
 199  -557.1712
 200  -686.5876
 201  -1028.168
 202  -726.5946
 203  -506.6777
 204  -954.5953
 205  -1282.434
 206  -1347.638
 207  -1382.551
 208  -1131.183
 209  -481.5152
 210  -377.9067
 211  -785.2709
 212  -1332.109
 213  -1328.759
 214  -1285.775
 215  -1208.438
 216  -802.691
 217  -835.2006
 218  -1046.192
 219  -1112.487
 220  -779.1741
 221  -314.9709
 222  -271.7096
 223  -473.226
 224  -415.2266
 225  -77.77129
 226  -190.6327
 227  -587.4806
 228  -671.8336
 229  -297.2698
 230  -471.5095
 231  -620.7945
 232  -633.4609
 233  -215.7847
 234  -386.3373
 235  -295.2766
 236  -376.5564
 237  -201.1338
 238  -204.3732
 239  -368.8933
 240  -110.781
 241  91.24349
 242  -135.1302
 243  -311.5731
 244  -227.668
 245  -200.8205
 246  -562.6566
 247  -757.4768
 248  -632.4926
 249  -77.06741
 250  36.2151
 251  -62.63735
 252  159.9671
 253  -183.2878
 254  -391.4762
 255  -672.4829
 256  -665.7645
 257  -941.243
 258  -649.424
 259  -587.7137
 260  -948.3163
 261  -288.2338
 262  -365.4527
 263  -683.9485
 264  -830.0716
 265  -890.5944
 266  -690.5468
 267  -733.1624
 268  -422.4148
 269  -378.1357
 270  -409.509
 271  -351.9177
 272  -592.6865
 273  -600.1018
 274  -738.2842
 275  -850.4663
 276  -840.0682
 277  -777.7449
 278  -656.2161
 279  -673.9644
 280  -386.2587
 281  -370.6495
 282  -591.584
 283  -267.1592
 284  -400.3648
 285  -841.8062
 286  -1067.569
 287  -1168.503
 288  -718.6796
 289  -473.0204
 290  -641.369
 291  -1122.344
 292  -923.5409
 293  -776.2529
 294  -591.948
 295  -853.3621
 296  -960.1687
 297  -250.8291
 298  -93.9166
 299  484.0993
 300  1283.534
 301  1590.417
 302  1503.146
 303  1035.441
 304  297.8342
 305  -114.7394
 306  -314.2321
 307  -107.7288
 308  -101.1065
 309  -193.198
 310  -589.8433
 311  -600.4915
 312  -1021.636
 313  -932.0227
 314  -658.3274
 315  -617.8817
 316  -944.7296
 317  -980.6893
 318  -763.532
 319  -725.0585
 320  -700.8133
 321  -1022.52
 322  -1267.724
 323  -1035.936
 324  -821.2899
 325  -998.4742
 326  -1195.097
 327  -996.6462
 328  -946.8849
 329  -888.9268
 330  -1215.156
 331  -1057.564
 332  -720.0811
 333  -491.7259
 334  -532.5631
 335  -588.7494
 336  -632.5495
 337  -993.5759
 338  -1211.405
 339  -1088.773
 340  -998.9284
 341  -1109.105
 342  -1141.275
 343  -1045.545
 344  -966.2252
 345  -920.7623
 346  -1374.234
 347  -1726.613
 348  -1276.518
 349  -1325.309
 350  -1251.667
 351  -927.6507
 352  -858.0253
 353  -854.0539
 354  -720.4149
 355  -801.5903
 356  -1144.777
 357  -1015.849
 358  -909.0899
 359  -711.6649
 360  -460.3027
 361  -404.0941
 362  -900.5374
 363  -978.9008
 364  -513.0819
 365  -698.0114
 366  -628.1675
 367  -327.8799
 368  -604.9437
 369  -585.783
 370  -646.5974
 371  -662.4183
 372  -412.9935
 373  -540.9388
 374  -690.1256
 375  -700.9638
 376  -378.4651
 377  -476.2572
 378  -600.0109
 379  -474.3103
 380  -592.4083
 381  -836.7151
 382  -788.3837
 383  -734.8956
 384  -767.6089
 385  -691.8998
 386  -773.2911
 387  -1236.908
 388  -1300.398
 389  -978.6952
 390  -995.9496
 391  -1257.232
 392  -1040.654
 393  -1424.827
 394  -1655.561
 395  -1590.153
 396  -1442.858
 397  -1309.596
 398  -1419.354
 399  -1434.285
 400  -1197.739
 401  -1226.179
 402  -1024.361
 403  -1094.891
 404  -1127.092
 405  -1019.609
 406  -849.0985
 407  -833.3378
 408  -781.8997
 409  -498.5698
 410  -575.4963
 411  -702.1621
 412  -809.9593
 413  -850.1064
 414  -919.5016
 415  -849.1048
 416  -1352.836
 417  -1342.87
 418  -1146.847
 419  -1339.269
 420  -1123.232
 421  -1016.218
 422  -938.2141
 423  -843.5713
 424  -1134.791
 425  -1203.174
 426  -1381.425
 427  -1380.992
 428  -1468.529
 429  -1336.572
 430  -1059.279
 431  -1225.037
 432  -954.0655
 433  -638.7375
 434  -502.4098
 435  -628.4274
 436  -867.9568
 437  -931.7206
 438  -1145.546
 439  -1014.934
 440  -646.4464
 441  -777.1589
 442  -931.1927
 443  -897.121
 444  -1048.539
 445  -1024.208
 446  -1234.855
 447  -1050.786
 448  -944.4658
 449  -826.247
 450  -634.9703
 451  -807.6095
 452  -848.627
 453  -936.6265
 454  -808.9211
 455  -824.8382
 456  -760.9276
 457  -1061.759
 458  -861.1345
 459  -324.7648
 460  -90.06553
 461  -303.7596
 462  -189.175
 463  -236.2295
 464  -578.66
 465  -692.5153
 466  -978.6345
 467  -961.7665
 468  -955.618
 469  -955.1487
 470  -878.7936
 471  -963.5538
 472  -952.1169
 473  -1194.034
 474  -1060.905
 475  -978.8972
 476  -880.1414
 477  -1145.819
 478  -1381.266
 479  -1096.822
 480  -902.2757
 481  -1078.128
 482  -1185.47
 483  -1215.077
 484  -601.3128
 485  -690.3345
 486  -1014.929
 487  -1256.298
 488  -1403.527
 489  -1379.75
 490  -1162.283
 491  -1015.094
 492  -1310.254
 493  -1322.828
 494  -946.2154
 495  -605.2919
 496  -630.8798
 497  -1055.981
 498  -1446.299
 499  -1387.833
 500  -1396.471
 501  -1034.483
 502  -759.0093
 503  -479.04
 504  -972.5526
 505  -1608.093
 506  -1429.397
 507  -1602.72
 508  -1828.449
 509  -1708.662
 510  -1515.248
 511  -1250.19
