# Input file       =  1207823475.107672_cleaned.dat
# Candidate        =  PSR_0332+5434
# Telescope        =  AR
# Epoch_topo       =  58223.438589209167
# Epoch_bary       =  N/A
# T_sample         =  0.002
# Data Folded      =  7340032
# Data Avg         =  0.301760340717529
# Data StdDev      =  5.4362127401738  
# Profile Bins     =  512
# Profile Avg      =  4326.00270890313 
# Profile StdDev   =  650.894257771069 
# Reduced chi-sqr  =  1.327
# Prob(Noise)      <  9.68e-07   (~4.8 sigma)
# P_topo (ms)      =  714.559832864403  +/- 0.000684
# P'_topo (s/s)    =  -0                +/- 3.61e-10
# P''_topo (s/s^2) =  0                 +/- 1.59e-13
# P_bary (ms)      =  N/A
# P'_bary (s/s)    =  N/A
# P''_bary (s/s^2) =  N/A
# P_orb (s)        =  N/A
# asin(i)/c (s)    =  N/A
# eccentricity     =  N/A
# w (rad)          =  N/A
# T_peri           =  N/A
######################################################
   0  4224.499
   1  4046.826
   2  4270.178
   3  4117.325
   4  4339.899
   5  4261.894
   6  4050.159
   7  3703.564
   8  4024.283
   9  4231.593
  10  4036.62
  11  3781.115
  12  4232.188
  13  4275.979
  14  4477.646
  15  4331.452
  16  4476.603
  17  4506.896
  18  4643.566
  19  4691.464
  20  4328.826
  21  4434.236
  22  4679.194
  23  4849.306
  24  4704.69
  25  4850.615
  26  5087.226
  27  4759.65
  28  4623.71
  29  4493.774
  30  4398.11
  31  4181.107
  32  4186.279
  33  4453.88
  34  4399.567
  35  4475.579
  36  3964.987
  37  3714.271
  38  4014.838
  39  4430.106
  40  4323.313
  41  4205.647
  42  4159.898
  43  4306.102
  44  4035.321
  45  3821.691
  46  4050.284
  47  4029.398
  48  3899.981
  49  3991.079
  50  4175.804
  51  4220.727
  52  4479.286
  53  4269.619
  54  4217.027
  55  4314.942
  56  4873.235
  57  4865.464
  58  4427.8
  59  4669.547
  60  4767.97
  61  4673.47
  62  4660.521
  63  4676.554
  64  4436.538
  65  4321.892
  66  4372.759
  67  4500.884
  68  4329.894
  69  4294.043
  70  4029.442
  71  4090.631
  72  3994.792
  73  4095.92
  74  4098.72
  75  4072.14
  76  4066.73
  77  4158.924
  78  4253.354
  79  4674.247
  80  4317.241
  81  4286.297
  82  4188.104
  83  3996.558
  84  4282.564
  85  4384.503
  86  4628.375
  87  4730.664
  88  4924.101
  89  4691.728
  90  4778.509
  91  5114.032
  92  5099.806
  93  4844.433
  94  5399.963
  95  5826.499
  96  6631.355
  97  7374.94
  98  7522.884
  99  7500.878
 100  7280.211
 101  6033.946
 102  5259.906
 103  4670.049
 104  4598.497
 105  4804.618
 106  4639.216
 107  4437.425
 108  4734.199
 109  4338.17
 110  4247.417
 111  4510.291
 112  4962.77
 113  4833.502
 114  4811.036
 115  4858.5
 116  4439.514
 117  4232.835
 118  4034.451
 119  4117.623
 120  4065.851
 121  4135.487
 122  3921.544
 123  4105.302
 124  3875.935
 125  3777.257
 126  3772.926
 127  4105.896
 128  4054.678
 129  4137.845
 130  4047.732
 131  3962.77
 132  3778.005
 133  3660.919
 134  3650.331
 135  3812.16
 136  4030.415
 137  3863.57
 138  3941.108
 139  3659.079
 140  3389.28
 141  3367.418
 142  3623.245
 143  3752.218
 144  4015.902
 145  4109.967
 146  4020.783
 147  3688.421
 148  3631.833
 149  3513.804
 150  3763.271
 151  3797.566
 152  3901.349
 153  4037.68
 154  3631.131
 155  3418.287
 156  3323.939
 157  3079.735
 158  3229.586
 159  3538.449
 160  3827.532
 161  3578.949
 162  3330.412
 163  3161.471
 164  3441.792
 165  3693.621
 166  3480.936
 167  3818.468
 168  3815.041
 169  3675.493
 170  3919.033
 171  3968.028
 172  3639.496
 173  3243.492
 174  3757.12
 175  4133.689
 176  3895.26
 177  3711.926
 178  3776.978
 179  3506.958
 180  3340.045
 181  3144.493
 182  3153.361
 183  3513.124
 184  3585.287
 185  3660.536
 186  3749.054
 187  3607.793
 188  3841.492
 189  4229.904
 190  4252.021
 191  4380.308
 192  4420.97
 193  4194.783
 194  4289.56
 195  4423.963
 196  4244.185
 197  4677.167
 198  4566.631
 199  4208.617
 200  4073.671
 201  4204.849
 202  4572.963
 203  3973.308
 204  3963.815
 205  3873.354
 206  3380.988
 207  3463.212
 208  4053.787
 209  3855.185
 210  3668.235
 211  3575.038
 212  3650.946
 213  3818.266
 214  4203.34
 215  4028.032
 216  4040.962
 217  3833.383
 218  3847.101
 219  3576.88
 220  3572.841
 221  3687.783
 222  3616.737
 223  3470.039
 224  3369.131
 225  3777.069
 226  3799.592
 227  3718.942
 228  3527.345
 229  3514.562
 230  3494.59
 231  3450.294
 232  3706.94
 233  3848.226
 234  3564.461
 235  3221.142
 236  3658.995
 237  3468.007
 238  3298.694
 239  3381.996
 240  3239.969
 241  3584.204
 242  3808.626
 243  3832.523
 244  3688.491
 245  3876.89
 246  3623.966
 247  3243.15
 248  3430.152
 249  3843.208
 250  3896.861
 251  4200.619
 252  4044.071
 253  3627.661
 254  3853.222
 255  4031.825
 256  4175.15
 257  4257.153
 258  4358.083
 259  4379.117
 260  4245.409
 261  4462.147
 262  4747.896
 263  4959.485
 264  5067.297
 265  4913.761
 266  4951.685
 267  5092.027
 268  4956.06
 269  4997.067
 270  5033.249
 271  4640.051
 272  4411.352
 273  4806.262
 274  4738.06
 275  4524.37
 276  4787.265
 277  4575.232
 278  4655.837
 279  4525.39
 280  4579.997
 281  4514.446
 282  4309.805
 283  4237.632
 284  3665.175
 285  3727.318
 286  3749.57
 287  3908.34
 288  4001.8
 289  4103.686
 290  4250.698
 291  4178.144
 292  3715.376
 293  3823.052
 294  3990.458
 295  3926.215
 296  3839.462
 297  4146.029
 298  4415.167
 299  4204.062
 300  4303.894
 301  4169.295
 302  4034.508
 303  4166.674
 304  4376.088
 305  4477.777
 306  4422.523
 307  4521.832
 308  4472.564
 309  4508.484
 310  4607.472
 311  4328.346
 312  4356.955
 313  4351.751
 314  4071.806
 315  4314.209
 316  4224.129
 317  4258.797
 318  4493.282
 319  4389.173
 320  4844.144
 321  4518.696
 322  4366.031
 323  4230.215
 324  4086.055
 325  4210.835
 326  4166.516
 327  4068.722
 328  4678.417
 329  4396.676
 330  4093.001
 331  4313.553
 332  4373.185
 333  4320.567
 334  4032.536
 335  4237.631
 336  4418.399
 337  4175.547
 338  4035.275
 339  4226.128
 340  3964.414
 341  3960.599
 342  4233.206
 343  4576.934
 344  4448.714
 345  4520.329
 346  4422.819
 347  4489.977
 348  4231.921
 349  4399.344
 350  4690.634
 351  4518.373
 352  4338.921
 353  4559.688
 354  4323.41
 355  4542.235
 356  4667.13
 357  4714.877
 358  4381.083
 359  4463.465
 360  4323.99
 361  4182.797
 362  4364.948
 363  4287.94
 364  4472.034
 365  4416.01
 366  4739.103
 367  4706.002
 368  4554.52
 369  4636.031
 370  4786.75
 371  4760.86
 372  4770.329
 373  4600.037
 374  4420.141
 375  4610.981
 376  4320.477
 377  4492.829
 378  4885.331
 379  4745.838
 380  4542.481
 381  4588.32
 382  4633.271
 383  4772.155
 384  4974.565
 385  5165.252
 386  5104.38
 387  4979.605
 388  4904.303
 389  4810.962
 390  4946.559
 391  4660.651
 392  4719.371
 393  4762.07
 394  4637.845
 395  4648.548
 396  4496.386
 397  4751.604
 398  4900.823
 399  4701.496
 400  4592.854
 401  4589.891
 402  4647.013
 403  4949.358
 404  4883.353
 405  5009.757
 406  4673.935
 407  4605.845
 408  4689.166
 409  4172.54
 410  4413.942
 411  4788.007
 412  4676.938
 413  4386.85
 414  4457.042
 415  4461.879
 416  4805.547
 417  4961.985
 418  5174.261
 419  5268.756
 420  5140.207
 421  4716.726
 422  4388.672
 423  4113.062
 424  4703.859
 425  5024.112
 426  4872.17
 427  4694.971
 428  4782.196
 429  4567.128
 430  4705.083
 431  4373.442
 432  4310.247
 433  4299.722
 434  4231.223
 435  4391.449
 436  4655.651
 437  4602.518
 438  4533.614
 439  4644.646
 440  4604.689
 441  4498.815
 442  4382.48
 443  4539.9
 444  4783.791
 445  4372.882
 446  4296.67
 447  4277.977
 448  4481.01
 449  4383.057
 450  4502.188
 451  4935.196
 452  4949.573
 453  4648.923
 454  4890.928
 455  4663.85
 456  4428.822
 457  4505.148
 458  4557.904
 459  4756.146
 460  4688.461
 461  4476.916
 462  4539.305
 463  4601.889
 464  4611.357
 465  4777.732
 466  5044.451
 467  4820.166
 468  5152.36
 469  4905.048
 470  4691.066
 471  4691.766
 472  4826.976
 473  4908.079
 474  4993.188
 475  4681.5
 476  5040.145
 477  5040.615
 478  4954.967
 479  5063.78
 480  4830.486
 481  4967.62
 482  4818.352
 483  4763.729
 484  4903.938
 485  4646.8
 486  4610.874
 487  4579.319
 488  4733.372
 489  4652.896
 490  4661.108
 491  4328.265
 492  4475.103
 493  4051.011
 494  4130.969
 495  4549.823
 496  4561.821
 497  4354.202
 498  4180.411
 499  4240.777
 500  4174.14
 501  4404.51
 502  4373.973
 503  4041.845
 504  4049.99
 505  4153.35
 506  4369.753
 507  4180.053
 508  4188.142
 509  4143.672
 510  3860.676
 511  3881.179
