# Input file       =  1208857737.106156_cleaned.dat
# Candidate        =  PSR_0332+5434
# Telescope        =  AR
# Epoch_topo       =  58235.409214191619
# Epoch_bary       =  N/A
# T_sample         =  0.002
# Data Folded      =  7340032
# Data Avg         =  0.0461924925398213
# Data StdDev      =  1.00017735465972 
# Profile Bins     =  512
# Profile Avg      =  662.216862203999 
# Profile StdDev   =  119.754271588689 
# Reduced chi-sqr  =  0.967
# Prob(Noise)      <  0.694   (~0.0 sigma)
# P_topo (ms)      =  714.549921335877  +/- 0.000441
# P'_topo (s/s)    =  -0                +/- 2.33e-10
# P''_topo (s/s^2) =  0                 +/- 1.03e-13
# P_bary (ms)      =  N/A
# P'_bary (s/s)    =  N/A
# P''_bary (s/s^2) =  N/A
# P_orb (s)        =  N/A
# asin(i)/c (s)    =  N/A
# eccentricity     =  N/A
# w (rad)          =  N/A
# T_peri           =  N/A
######################################################
   0  491.9844
   1  552.0603
   2  569.1832
   3  592.1597
   4  655.7353
   5  664.2774
   6  587.9734
   7  531.68
   8  579.5533
   9  612.4034
  10  642.6418
  11  624.2966
  12  632.9945
  13  673.2921
  14  704.1871
  15  649.1053
  16  668.8359
  17  715.3739
  18  644.4792
  19  695.0531
  20  680.6819
  21  724.5886
  22  665.162
  23  646.1171
  24  666.5389
  25  664.8868
  26  724.9668
  27  741.7399
  28  752.8052
  29  719.6453
  30  728.9773
  31  703.5254
  32  669.2372
  33  656.8658
  34  633.2072
  35  683.3334
  36  669.6998
  37  607.9739
  38  664.8987
  39  692.7657
  40  716.0124
  41  773.8041
  42  684.0068
  43  597.2066
  44  654.3445
  45  664.8362
  46  736.9133
  47  644.3212
  48  670.1354
  49  681.824
  50  691.0261
  51  772.2123
  52  745.4617
  53  710.8926
  54  724.2875
  55  726.1464
  56  746.4651
  57  734.1315
  58  768.5094
  59  800.0443
  60  782.8817
  61  759.2117
  62  773.9644
  63  726.4251
  64  668.8616
  65  666.2443
  66  709.6231
  67  636.7194
  68  638.9019
  69  678.9401
  70  711.2381
  71  757.2949
  72  702.1461
  73  654.1077
  74  648.2833
  75  639.5478
  76  678.4828
  77  678.6754
  78  639.5118
  79  676.8875
  80  750.6854
  81  773.4774
  82  705.404
  83  706.0342
  84  631.7452
  85  665.0166
  86  706.549
  87  682.9035
  88  764.7151
  89  742.551
  90  664.5685
  91  607.9493
  92  668.691
  93  690.2951
  94  649.4963
  95  671.1619
  96  709.8151
  97  632.4367
  98  678.2589
  99  762.1621
 100  768.4326
 101  728.9821
 102  795.9301
 103  764.2275
 104  754.8605
 105  748.4847
 106  774.0077
 107  696.8857
 108  626.776
 109  701.1998
 110  633.4885
 111  638.4514
 112  664.4008
 113  661.0654
 114  716.9744
 115  662.0827
 116  679.4772
 117  728.9629
 118  644.6323
 119  634.4492
 120  697.5065
 121  643.2537
 122  728.0187
 123  716.4264
 124  736.8282
 125  790.3238
 126  722.5222
 127  685.4455
 128  699.2529
 129  663.4812
 130  700.5006
 131  621.2244
 132  682.326
 133  675.1821
 134  729.6489
 135  758.5383
 136  725.6378
 137  633.7496
 138  659.5153
 139  589.8662
 140  509.2462
 141  576.7125
 142  657.7504
 143  650.6004
 144  647.9302
 145  646.1299
 146  622.3795
 147  593.9578
 148  647.5853
 149  688.4398
 150  663.3168
 151  648.3121
 152  644.9473
 153  634.2334
 154  708.1816
 155  740.9377
 156  820.8098
 157  730.6888
 158  648.9753
 159  655.0968
 160  675.5612
 161  677.9012
 162  729.04
 163  821.8314
 164  767.0746
 165  696.9857
 166  702.2334
 167  702.109
 168  670.0773
 169  630.1982
 170  646.2023
 171  645.2937
 172  575.3186
 173  540.5189
 174  545.8415
 175  496.5918
 176  518.0598
 177  482.2706
 178  612.5844
 179  581.0613
 180  519.3544
 181  564.7693
 182  616.0281
 183  567.305
 184  533.1356
 185  585.4453
 186  625.9167
 187  591.362
 188  575.1984
 189  589.2559
 190  576.6512
 191  506.4557
 192  611.2521
 193  684.1055
 194  631.9965
 195  617.5225
 196  694.3272
 197  717.2763
 198  725.7938
 199  723.8014
 200  689.6808
 201  666.2032
 202  737.4202
 203  718.9169
 204  699.1949
 205  680.8274
 206  641.5406
 207  634.1341
 208  652.9302
 209  682.4625
 210  620.9579
 211  591.4545
 212  622.992
 213  679.7867
 214  646.9056
 215  611.5211
 216  571.9989
 217  600.863
 218  587.1228
 219  685.0472
 220  711.7706
 221  656.2672
 222  576.9391
 223  552.4675
 224  575.261
 225  602.1678
 226  622.0114
 227  696.959
 228  713.3956
 229  673.6373
 230  680.8025
 231  749.8485
 232  713.3687
 233  694.5289
 234  802.5342
 235  861.074
 236  745.977
 237  661.0048
 238  677.8928
 239  709.4483
 240  757.1693
 241  750.7112
 242  666.4334
 243  713.4309
 244  748.9504
 245  708.5898
 246  713.5236
 247  639.8375
 248  644.0364
 249  632.9019
 250  617.1107
 251  666.6581
 252  627.6748
 253  636.1462
 254  621.0462
 255  635.353
 256  688.0635
 257  621.489
 258  573.4208
 259  617.8999
 260  635.7983
 261  495.4449
 262  567.0648
 263  598.6161
 264  587.4246
 265  647.4329
 266  651.7567
 267  589.1083
 268  678.6439
 269  706.0607
 270  635.5991
 271  536.1539
 272  648.7815
 273  726.7171
 274  670.6597
 275  645.7492
 276  726.2843
 277  689.5739
 278  726.0538
 279  751.4128
 280  708.1008
 281  733.8162
 282  757.0994
 283  740.3637
 284  665.985
 285  592.6802
 286  662.4476
 287  607.368
 288  635.2355
 289  668.433
 290  644.3392
 291  667.6154
 292  604.5822
 293  555.8511
 294  574.3169
 295  628.7345
 296  568.7024
 297  625.2622
 298  747.7845
 299  673.0927
 300  649.1483
 301  711.5513
 302  751.2633
 303  704.1605
 304  758.0187
 305  750.4512
 306  654.8279
 307  657.0211
 308  668.181
 309  658.4867
 310  679.5054
 311  635.7175
 312  655.4307
 313  688.7319
 314  750.8848
 315  682.7406
 316  788.3989
 317  824.1273
 318  788.1374
 319  821.3597
 320  896.8705
 321  1032.87
 322  1169.032
 323  1193.371
 324  1194.855
 325  1117.07
 326  971.5715
 327  795.1288
 328  683.7479
 329  678.3286
 330  595.8215
 331  569.7396
 332  538.9315
 333  603.9509
 334  737.9426
 335  810.2271
 336  785.3512
 337  686.2435
 338  714.1384
 339  760.8424
 340  745.2686
 341  727.862
 342  764.6172
 343  773.1357
 344  664.5867
 345  633.7589
 346  626.5193
 347  671.6364
 348  775.5678
 349  729.3963
 350  657.756
 351  632.5801
 352  703.189
 353  664.2516
 354  619.48
 355  614.2089
 356  642.1562
 357  654.5248
 358  633.8357
 359  650.69
 360  694.7552
 361  670.4737
 362  645.2858
 363  641.2629
 364  598.8271
 365  665.1309
 366  567.18
 367  505.0706
 368  520.3136
 369  560.2755
 370  611.6995
 371  664.7891
 372  634.5175
 373  663.2051
 374  596.0048
 375  598.6636
 376  583.9926
 377  559.5803
 378  651.9979
 379  679.175
 380  645.5185
 381  564.8958
 382  587.1331
 383  579.588
 384  574.2739
 385  593.6959
 386  575.4957
 387  617.4177
 388  703.9007
 389  655.4619
 390  580.1193
 391  529.7737
 392  561.636
 393  598.3214
 394  609.5773
 395  732.6387
 396  637.9893
 397  571.9399
 398  530.3631
 399  564.8131
 400  591.1492
 401  684.8848
 402  683.985
 403  651.9244
 404  607.6995
 405  602.9445
 406  658.8621
 407  662.011
 408  720.1249
 409  698.5642
 410  718.7389
 411  708.6371
 412  656.4088
 413  660.2053
 414  634.8285
 415  635.4596
 416  664.1439
 417  700.564
 418  641.4719
 419  579.4816
 420  662.2009
 421  724.8732
 422  757.5614
 423  771.9922
 424  668.4155
 425  667.7684
 426  663.6137
 427  689.9714
 428  653.6169
 429  706.1794
 430  692.056
 431  642.315
 432  663.2947
 433  523.0201
 434  580.0276
 435  652.8853
 436  590.1035
 437  575.1165
 438  632.3755
 439  614.5023
 440  579.1693
 441  478.6098
 442  539.9076
 443  526.157
 444  619.5593
 445  694.3151
 446  660.3057
 447  661.5782
 448  664.5331
 449  620.3841
 450  631.6046
 451  683.9385
 452  621.1076
 453  697.7078
 454  714.8144
 455  713.5084
 456  601.8447
 457  593.0319
 458  609.59
 459  550.0008
 460  511.3116
 461  511.0518
 462  481.2222
 463  643.5793
 464  641.3206
 465  660.1801
 466  696.6749
 467  597.575
 468  545.5471
 469  578.4319
 470  591.389
 471  575.701
 472  594.608
 473  626.5681
 474  598.0588
 475  592.4623
 476  571.7557
 477  574.1556
 478  629.5615
 479  663.2757
 480  599.3874
 481  669.8484
 482  626.7379
 483  670.4431
 484  668.9421
 485  660.3831
 486  706.2661
 487  709.0735
 488  703.0112
 489  684.6766
 490  717.0963
 491  751.7953
 492  764.5569
 493  673.9577
 494  658.8342
 495  624.9249
 496  660.2631
 497  629.0656
 498  557.5713
 499  550.08
 500  622.2488
 501  514.3589
 502  504.1683
 503  479.0731
 504  573.2503
 505  538.527
 506  545.7239
 507  516.6304
 508  462.2848
 509  513.0314
 510  550.2711
 511  514.3177
