# Input file       =  1208756838.127308_cleaned.dat
# Candidate        =  PSR_0332+5434
# Telescope        =  AR
# Epoch_topo       =  58234.241401936437
# Epoch_bary       =  N/A
# T_sample         =  0.002
# Data Folded      =  7208960
# Data Avg         =  0.138963679636998
# Data StdDev      =  5.50248574593447 
# Profile Bins     =  1024
# Profile Avg      =  978.19823443465  
# Profile StdDev   =  461.684458981296 
# Reduced chi-sqr  =  0.497
# Prob(Noise)      <  1   (~0.0 sigma)
# P_topo (ms)      =  714.550912393901  +/- 0.000102
# P'_topo (s/s)    =  -0                +/- 5.45e-11
# P''_topo (s/s^2) =  0                 +/- 2.45e-14
# P_bary (ms)      =  N/A
# P'_bary (s/s)    =  N/A
# P''_bary (s/s^2) =  N/A
# P_orb (s)        =  N/A
# asin(i)/c (s)    =  N/A
# eccentricity     =  N/A
# w (rad)          =  N/A
# T_peri           =  N/A
######################################################
   0  943.5616
   1  909.0466
   2  948.0349
   3  798.5037
   4  866.5552
   5  760.9266
   6  716.102
   7  877.4984
   8  959.9105
   9  1140.309
  10  1061.083
  11  1005.041
  12  1017.391
  13  809.4559
  14  778.0544
  15  811.2849
  16  816.2778
  17  930.5957
  18  925.3668
  19  1084.033
  20  905.5696
  21  793.3904
  22  871.497
  23  884.2567
  24  980.2156
  25  908.6392
  26  814.0283
  27  834.6474
  28  758.2245
  29  910.812
  30  736.2928
  31  662.6555
  32  774.4539
  33  923.1435
  34  1130.182
  35  1106.263
  36  1052.917
  37  1163.899
  38  985.6284
  39  1177.032
  40  1101.089
  41  971.7775
  42  834.9023
  43  722.5256
  44  872.0007
  45  787.8954
  46  827.9219
  47  1015.01
  48  1048.349
  49  1100.078
  50  1004.472
  51  901.0919
  52  1080.081
  53  988.9911
  54  1142.538
  55  914.8096
  56  832.681
  57  903.3835
  58  931.9254
  59  830.3746
  60  708.5823
  61  665.1675
  62  923.2854
  63  912.0266
  64  1033.352
  65  990.8187
  66  944.3132
  67  1092.707
  68  944.6366
  69  948.4485
  70  827.675
  71  816.1708
  72  997.2491
  73  986.664
  74  1123.621
  75  1098.582
  76  1057.54
  77  1135.043
  78  1056.228
  79  964.3907
  80  788.3035
  81  644.1351
  82  805.8049
  83  805.1288
  84  986.3412
  85  892.4386
  86  839.8057
  87  848.2297
  88  923.4048
  89  1023.057
  90  1001.196
  91  844.7018
  92  942.8477
  93  739.3318
  94  816.9339
  95  747.4643
  96  972.8637
  97  1198.059
  98  1231.302
  99  1176.292
 100  1154.444
 101  1012.622
 102  1067.644
 103  811.84
 104  966.0781
 105  1042.368
 106  1012.918
 107  977.9836
 108  951.2032
 109  1028.848
 110  1028.15
 111  987.9268
 112  1158.034
 113  1072.648
 114  1202.636
 115  1226.975
 116  1069.122
 117  1026.371
 118  910.4268
 119  954.4638
 120  1032.535
 121  969.0114
 122  1054.655
 123  879.8417
 124  899.1733
 125  928.9058
 126  916.4404
 127  1139.103
 128  1194.092
 129  1125.571
 130  904.1711
 131  769.9645
 132  914.7338
 133  830.7856
 134  784.9282
 135  852.9988
 136  894.8828
 137  911.7727
 138  747.9814
 139  844.1057
 140  986.7045
 141  1062.932
 142  1178.491
 143  1048.132
 144  923.5763
 145  860.8508
 146  861.8196
 147  1023.81
 148  998.889
 149  896.0958
 150  907.216
 151  907.0234
 152  959.9911
 153  783.729
 154  845.0951
 155  1037.053
 156  935.8726
 157  966.1335
 158  831.2769
 159  877.6237
 160  822.5095
 161  809.9111
 162  920.3259
 163  922.2489
 164  916.3101
 165  912.2144
 166  880.2464
 167  956.9363
 168  816.7964
 169  693.6365
 170  813.5533
 171  834.1018
 172  960.5718
 173  908.3108
 174  872.4017
 175  932.4955
 176  970.3498
 177  1137.039
 178  1111.01
 179  1152.583
 180  1099.828
 181  924.3374
 182  977.3764
 183  1001.548
 184  1005.757
 185  1230.928
 186  1246.712
 187  1184.111
 188  958.2474
 189  863.1582
 190  966.5046
 191  897.7343
 192  836.282
 193  785.0665
 194  712.2675
 195  854.8354
 196  787.1718
 197  1017.637
 198  988.2733
 199  1080.86
 200  1325.686
 201  1234.338
 202  1203.119
 203  1061.896
 204  1045.889
 205  1079.99
 206  950.1336
 207  893.9072
 208  803.8317
 209  718.0305
 210  913.4807
 211  931.3484
 212  994.3961
 213  918.283
 214  764.8311
 215  983.0784
 216  892.878
 217  1060.977
 218  1020.236
 219  1029.462
 220  1176.252
 221  997.4229
 222  988.7638
 223  897.2913
 224  966.7462
 225  1115.326
 226  993.0538
 227  1052.439
 228  1081.35
 229  1075.842
 230  1171.353
 231  1066.064
 232  890.9617
 233  677.3152
 234  551.4362
 235  821.4182
 236  800.9977
 237  847.8349
 238  952.5636
 239  970.4517
 240  1119.928
 241  919.8041
 242  1009.331
 243  1025.251
 244  1066.314
 245  1168.111
 246  1056.208
 247  822.6214
 248  869.8975
 249  951.825
 250  1170.632
 251  937.5123
 252  821.5789
 253  876.7286
 254  931.4829
 255  1118.062
 256  946.2101
 257  823.8812
 258  853.7512
 259  863.4556
 260  888.0867
 261  678.8854
 262  626.767
 263  825.6545
 264  953.8243
 265  1163.907
 266  1012.542
 267  971.859
 268  892.4169
 269  787.2523
 270  857.7473
 271  951.988
 272  1016.294
 273  976.3232
 274  853.5317
 275  938.7111
 276  1070.979
 277  1089.515
 278  1107.658
 279  1008.143
 280  1076.922
 281  1036.036
 282  985.5013
 283  882.166
 284  772.2556
 285  915.6065
 286  841.6486
 287  830.8836
 288  848.8611
 289  796.1446
 290  927.2817
 291  892.8085
 292  865.665
 293  917.0186
 294  895.5797
 295  947.9317
 296  844.057
 297  777.0235
 298  859.2539
 299  799.85
 300  925.1632
 301  822.8642
 302  901.0789
 303  1029.828
 304  1111.557
 305  1231.486
 306  1125.699
 307  1168.379
 308  1151.546
 309  1112.91
 310  992.5152
 311  924.7314
 312  912.9807
 313  1023.134
 314  895.105
 315  835.5781
 316  851.4711
 317  942.1893
 318  1186.886
 319  1024.239
 320  972.6255
 321  786.4199
 322  826.1717
 323  1024.662
 324  1000.599
 325  1005.799
 326  819.0525
 327  785.6475
 328  995.4679
 329  988.9587
 330  1088.427
 331  979.7979
 332  918.8622
 333  973.387
 334  945.5674
 335  953.3272
 336  895.7711
 337  880.7024
 338  997.3974
 339  928.1874
 340  981.8246
 341  1068.505
 342  971.2218
 343  945.9433
 344  828.3267
 345  869.1551
 346  987.1683
 347  1100.375
 348  1381.379
 349  1444.162
 350  1273.408
 351  1032.862
 352  970.1248
 353  1120.406
 354  932.1379
 355  909.4911
 356  924.3597
 357  936.4385
 358  1001.973
 359  948.2626
 360  1018.367
 361  1040.419
 362  882.9171
 363  1142.174
 364  991.2677
 365  894.1776
 366  754.4683
 367  930.4911
 368  1241.914
 369  1241.502
 370  1182.123
 371  1077.311
 372  877.7191
 373  880.6857
 374  779.3226
 375  803.8849
 376  935.7246
 377  1006.038
 378  1117.718
 379  1020.944
 380  1026.142
 381  1117.206
 382  1229.498
 383  1220.167
 384  1057.758
 385  887.4758
 386  798.2739
 387  675.4109
 388  812.9514
 389  846.6075
 390  864.9786
 391  969.822
 392  965.1201
 393  1128.367
 394  1045.218
 395  1146.288
 396  1136.444
 397  1084.985
 398  1051.279
 399  882.557
 400  858.4302
 401  916.3184
 402  827.4444
 403  916.7608
 404  884.4554
 405  884.1578
 406  877.5073
 407  963.8866
 408  1032.531
 409  983.0134
 410  946.455
 411  1042.161
 412  842.7554
 413  808.4583
 414  833.2678
 415  907.3185
 416  1008.528
 417  941.1844
 418  1110.047
 419  946.9069
 420  1029.178
 421  1160.55
 422  1241.11
 423  1096.214
 424  931.2585
 425  791.6154
 426  797.2653
 427  758.7711
 428  1004.046
 429  1044.84
 430  972.6846
 431  1062.401
 432  916.6888
 433  941.112
 434  815.0737
 435  979.7892
 436  1256.416
 437  1322.104
 438  1273.235
 439  1053.189
 440  777.6234
 441  623.0663
 442  541.0159
 443  817.4684
 444  868.6217
 445  900.5234
 446  1056.957
 447  986.2529
 448  953.738
 449  944.2528
 450  1153.894
 451  1223.622
 452  1242.933
 453  1219.347
 454  1199.612
 455  962.9813
 456  1032.6
 457  962.4193
 458  1018.468
 459  972.2325
 460  1064.621
 461  1223.03
 462  1074.344
 463  1019.173
 464  1015.983
 465  988.6792
 466  968.1652
 467  860.1526
 468  956.1191
 469  956.5785
 470  881.0326
 471  963.9432
 472  945.4594
 473  893.45
 474  928.0943
 475  1097.269
 476  1346.776
 477  1271.974
 478  1107.543
 479  1054.692
 480  995.0725
 481  1039.131
 482  1088.862
 483  1173.498
 484  1134.736
 485  1020.025
 486  1032.591
 487  944.148
 488  999.1267
 489  1101.287
 490  1110.672
 491  1028.264
 492  956.469
 493  990.0424
 494  1037.234
 495  936.3421
 496  1061.557
 497  1011.078
 498  1046.255
 499  977.5817
 500  1051.711
 501  1163.106
 502  1114.943
 503  1061.245
 504  1092.66
 505  911.2938
 506  696.3511
 507  611.888
 508  544.1584
 509  695.278
 510  850.6085
 511  1260.695
 512  1276.819
 513  1140.257
 514  1099.299
 515  1171.137
 516  1299.807
 517  1260.467
 518  1261.389
 519  1235.96
 520  1023.037
 521  1065.213
 522  1067.194
 523  991.8827
 524  915.7498
 525  893.1432
 526  1151.795
 527  1169.092
 528  1106.057
 529  955.1118
 530  752.3101
 531  876.2973
 532  861.2731
 533  855.5291
 534  877.2925
 535  908.0718
 536  918.241
 537  879.0826
 538  865.5858
 539  1073.139
 540  1116.613
 541  1283.111
 542  1223.51
 543  1111.854
 544  941.6762
 545  748.4252
 546  834.0832
 547  979.949
 548  1070.294
 549  992.5439
 550  910.6172
 551  862.1775
 552  971.939
 553  949.6115
 554  1143.282
 555  985.529
 556  1034.234
 557  1051.156
 558  1010.923
 559  957.7309
 560  720.3153
 561  953.6717
 562  940.949
 563  922.8626
 564  931.4114
 565  1000.146
 566  1185.713
 567  1094.129
 568  1073.072
 569  1117.394
 570  1086.985
 571  1151.91
 572  1177.941
 573  1057.566
 574  1010.467
 575  807.2474
 576  871.2332
 577  943.2354
 578  1005.933
 579  1127.278
 580  1131.879
 581  1050.528
 582  889.6778
 583  945.8073
 584  1199.329
 585  1254.29
 586  1310.482
 587  1324.948
 588  1147.252
 589  1101.727
 590  925.0593
 591  1044.987
 592  1162.302
 593  1174.454
 594  1400.042
 595  1465.548
 596  1403.719
 597  1354.643
 598  1534.25
 599  2035.359
 600  2129.595
 601  2188.424
 602  2238.345
 603  2322.516
 604  2342.633
 605  1949.406
 606  1721.156
 607  1561.289
 608  1421.676
 609  1331.486
 610  1019.091
 611  973.2465
 612  1091.225
 613  1344.084
 614  1405.149
 615  1312.221
 616  1187.269
 617  1139.667
 618  1014.016
 619  1044.965
 620  1006.219
 621  892.8185
 622  887.6178
 623  735.8687
 624  879.7173
 625  763.2338
 626  879.814
 627  972.9331
 628  1123.108
 629  1308.476
 630  1342.282
 631  1307.749
 632  1216.587
 633  1119.743
 634  1113.303
 635  1165.842
 636  1122.776
 637  1234.962
 638  877.5699
 639  704.6968
 640  654.0016
 641  886.7051
 642  1061.341
 643  1006.275
 644  1252.654
 645  1289.201
 646  1194.61
 647  1054.109
 648  1092.734
 649  1171.768
 650  1119.153
 651  1062.832
 652  1067.415
 653  818.8647
 654  842.8091
 655  1043.094
 656  1213.877
 657  1163.431
 658  830.1924
 659  884.9316
 660  990.8979
 661  1050.981
 662  1153.651
 663  1087.692
 664  1088.73
 665  988.7031
 666  920.2636
 667  1106.189
 668  1137.835
 669  1161.12
 670  1010.791
 671  968.4263
 672  1094.735
 673  1145.239
 674  1196.602
 675  1072.844
 676  906.2514
 677  891.6882
 678  799.5451
 679  854.3501
 680  859.7186
 681  919.2386
 682  1008.633
 683  965.2913
 684  982.1102
 685  1099.509
 686  1055.263
 687  1167.417
 688  885.5199
 689  965.3367
 690  778.5577
 691  787.6967
 692  805.1193
 693  793.0575
 694  1014.685
 695  999.6148
 696  918.3223
 697  742.1978
 698  717.3396
 699  897.4872
 700  1098.678
 701  1113.371
 702  1221.516
 703  1026.679
 704  1025.505
 705  910.3471
 706  858.8514
 707  887.8493
 708  925.7708
 709  1122.051
 710  1196.916
 711  917.8812
 712  917.9277
 713  935.6855
 714  1101.98
 715  974.9788
 716  955.3787
 717  1038.308
 718  852.2849
 719  793.991
 720  854.4905
 721  890.196
 722  921.3678
 723  911.5096
 724  934.0082
 725  815.5615
 726  614.1879
 727  768.3301
 728  718.6534
 729  815.0341
 730  883.6631
 731  877.8484
 732  1040.627
 733  909.8741
 734  998.206
 735  1045.964
 736  1013.84
 737  905.2737
 738  816.6328
 739  830.0363
 740  900.974
 741  848.7629
 742  844.5829
 743  849.8102
 744  922.3674
 745  1044.395
 746  931.8497
 747  1011.61
 748  1028.758
 749  1025.894
 750  1108.421
 751  938.4365
 752  994.2376
 753  774.7666
 754  702.1143
 755  780.5164
 756  778.6444
 757  974.7739
 758  865.7172
 759  1029.562
 760  1118.071
 761  1088.979
 762  1083.088
 763  832.6543
 764  789.0845
 765  761.2828
 766  632.7339
 767  768.898
 768  916.8346
 769  1024.139
 770  983.8201
 771  725.9058
 772  734.8628
 773  627.2814
 774  836.1995
 775  1025.374
 776  946.7667
 777  1044.681
 778  1096.372
 779  1206.821
 780  1054.769
 781  920.9798
 782  1004.971
 783  1174.082
 784  1133.72
 785  1092.5
 786  860.4108
 787  845.3185
 788  740.4611
 789  694.3713
 790  795.8925
 791  766.9966
 792  921.0256
 793  877.4535
 794  783.4946
 795  991.1576
 796  1082.23
 797  1382.409
 798  1191.474
 799  1029.148
 800  946.1832
 801  843.3269
 802  887.5862
 803  850.3665
 804  734.8228
 805  767.8362
 806  699.9421
 807  877.3978
 808  917.1358
 809  909.8166
 810  1039.697
 811  1043.504
 812  1144.057
 813  957.9503
 814  827.2802
 815  867.1812
 816  742.2903
 817  977.7426
 818  1027.827
 819  881.2885
 820  832.6058
 821  799.4056
 822  977.8432
 823  931.2142
 824  966.027
 825  1094.488
 826  988.0805
 827  919.2222
 828  722.3824
 829  747.011
 830  851.764
 831  775.3378
 832  787.5768
 833  914.001
 834  950.9917
 835  984.4126
 836  872.0378
 837  966.1906
 838  1041.112
 839  976.7153
 840  1055.677
 841  1006.582
 842  1111.697
 843  1121.95
 844  1018.369
 845  1080.089
 846  977.4661
 847  999.0718
 848  979.9048
 849  1012.576
 850  1080.898
 851  938.6595
 852  853.1896
 853  905.4769
 854  892.6588
 855  977.4275
 856  831.8297
 857  874.9203
 858  899.7018
 859  846.0023
 860  942.5757
 861  853.8493
 862  966.239
 863  1066.737
 864  1099.748
 865  1148.845
 866  1082.176
 867  1015.051
 868  1051.397
 869  975.6284
 870  1024.1
 871  918.2055
 872  993.8956
 873  1176.514
 874  1081.646
 875  1137.001
 876  942.7666
 877  964.9586
 878  1064.31
 879  1073.499
 880  1214.711
 881  1081.08
 882  1051.848
 883  1051.027
 884  882.0107
 885  813.9708
 886  681.9484
 887  810.7854
 888  786.3465
 889  652.5162
 890  634.5403
 891  700.4953
 892  744.3649
 893  946.935
 894  905.8586
 895  992.7405
 896  848.2573
 897  963.791
 898  1114.962
 899  1067.29
 900  993.1334
 901  833.2658
 902  731.3599
 903  711.5634
 904  760.3078
 905  860.0179
 906  879.3871
 907  810.7929
 908  1039.649
 909  1062.533
 910  1181.039
 911  1167.573
 912  1024.797
 913  913.028
 914  751.5612
 915  911.3109
 916  851.168
 917  844.5603
 918  1068.015
 919  993.9335
 920  957.6462
 921  698.1816
 922  733.9968
 923  807.6337
 924  679.1246
 925  836.7278
 926  974.5438
 927  1099.66
 928  1118.172
 929  939.4996
 930  1152.447
 931  1180.322
 932  1177.459
 933  1186.676
 934  1058.31
 935  967.8871
 936  852.0115
 937  881.9643
 938  1110.368
 939  1063.773
 940  1160.954
 941  1136.912
 942  1089.725
 943  1169.37
 944  1035.453
 945  1012.192
 946  752.7877
 947  755.0562
 948  840.2441
 949  813.2637
 950  840.2415
 951  989.317
 952  1004.009
 953  1169.479
 954  1085.968
 955  1140.822
 956  965.7387
 957  940.3182
 958  1003.932
 959  915.098
 960  967.3929
 961  909.6254
 962  815.9517
 963  772.0946
 964  656.7553
 965  860.7843
 966  1053.588
 967  1113.495
 968  1156.667
 969  1021.174
 970  1047.701
 971  954.0791
 972  978.2633
 973  1127.919
 974  1003.935
 975  893.041
 976  786.7222
 977  778.2028
 978  908.3018
 979  653.1115
 980  712.3361
 981  755.778
 982  755.0118
 983  968.8701
 984  900.4616
 985  942.5292
 986  840.8103
 987  1000.338
 988  1282.681
 989  1124.483
 990  1053.248
 991  969.1214
 992  860.6212
 993  1000.751
 994  842.8662
 995  968.7825
 996  929.3149
 997  892.1655
 998  1005.614
 999  974.1211
1000  960.467
1001  866.374
1002  742.39
1003  866.4574
1004  848.8317
1005  1082.708
1006  1146.547
1007  939.6051
1008  963.0596
1009  808.8928
1010  698.6885
1011  653.33
1012  781.95
1013  1024.451
1014  870.0755
1015  793.2864
1016  888.1991
1017  801.6187
1018  899.1985
1019  752.4167
1020  755.5288
1021  742.7598
1022  767.9167
1023  933.3206
