# Input file       =  1208670671.120142_cleaned.dat
# Candidate        =  PSR_0332+5434
# Telescope        =  AR
# Epoch_topo       =  58233.244098612755
# Epoch_bary       =  N/A
# T_sample         =  0.002
# Data Folded      =  7208960
# Data Avg         =  0.243451094628439
# Data StdDev      =  6.46351491504833 
# Profile Bins     =  1024
# Profile Avg      =  1714.20573433971 
# Profile StdDev   =  542.319330654594 
# Reduced chi-sqr  =  4.758
# Prob(Noise)      <  0   (~0.0 sigma)
# P_topo (ms)      =  714.551773203082  +/- 1.12e-05
# P'_topo (s/s)    =  -0                +/- 6.03e-12
# P''_topo (s/s^2) =  0                 +/- 2.71e-15
# P_bary (ms)      =  N/A
# P'_bary (s/s)    =  N/A
# P''_bary (s/s^2) =  N/A
# P_orb (s)        =  N/A
# asin(i)/c (s)    =  N/A
# eccentricity     =  N/A
# w (rad)          =  N/A
# T_peri           =  N/A
######################################################
   0  1342.427
   1  1321.369
   2  1222.066
   3  1261.862
   4  1484.176
   5  1679.415
   6  1953.857
   7  2416.221
   8  2395.041
   9  2011.618
  10  1613.682
  11  1458.532
  12  1040.467
  13  559.8008
  14  419.4835
  15  700.0377
  16  831.1805
  17  839.8912
  18  996.7952
  19  1273.996
  20  1839.705
  21  2527.965
  22  2938.623
  23  2817.617
  24  2630.505
  25  2784.951
  26  2664.675
  27  2104.243
  28  1664.622
  29  1553.116
  30  1439.106
  31  1231.192
  32  1154.477
  33  1177.115
  34  1215.211
  35  1167.206
  36  1081.27
  37  1000.486
  38  1328.191
  39  1948.851
  40  2384.817
  41  2209.068
  42  1833.99
  43  1767.355
  44  1616.484
  45  1080.412
  46  723.4151
  47  632.5602
  48  754.5787
  49  732.4874
  50  850.3113
  51  977.8939
  52  1187.302
  53  1560.268
  54  2089.557
  55  2368.636
  56  2654.957
  57  2952.213
  58  3221.073
  59  2754.18
  60  2286.297
  61  1959.63
  62  1898.616
  63  1571.098
  64  1323.74
  65  1210.65
  66  1168.425
  67  1215.581
  68  1315.216
  69  1498.988
  70  1453.027
  71  1752.04
  72  2075.378
  73  2363.072
  74  2292.458
  75  2115.835
  76  1973.475
  77  1481.065
  78  892.7031
  79  744.0738
  80  685.5249
  81  631.4119
  82  518.0141
  83  786.655
  84  862.2554
  85  1010.244
  86  1564.593
  87  2238.341
  88  2484.171
  89  2696.886
  90  2895.241
  91  2872.12
  92  2424.746
  93  2157.543
  94  2098.522
  95  1651.19
  96  1312.654
  97  1197.812
  98  1312.442
  99  1213.693
 100  1091.645
 101  1062.18
 102  1160.716
 103  1435.737
 104  1885.859
 105  1981.028
 106  1998.349
 107  2062.76
 108  2155.884
 109  1739.329
 110  1283.907
 111  1026.636
 112  1002.163
 113  935.8101
 114  849.4731
 115  891.5436
 116  837.4034
 117  1095.417
 118  1395.224
 119  1776.062
 120  1900.092
 121  2195.818
 122  2727.585
 123  3104.192
 124  3042.376
 125  2675.646
 126  2410.755
 127  2180.482
 128  1886.461
 129  1626.117
 130  1479.623
 131  1423.353
 132  1479.612
 133  1508.758
 134  1290.101
 135  1049.077
 136  1163.582
 137  1618.669
 138  1967.431
 139  2118.881
 140  2134.065
 141  1937.601
 142  1431.27
 143  987.9416
 144  1021.726
 145  1124.95
 146  1261.823
 147  1086.794
 148  1127.607
 149  1045.593
 150  1256.475
 151  1596.122
 152  2006.516
 153  2277.866
 154  2663.638
 155  3082.009
 156  3091.121
 157  2678.718
 158  2428.823
 159  2387.927
 160  2218.435
 161  1841.868
 162  1642.025
 163  1553.24
 164  1591.926
 165  1435.147
 166  1255.991
 167  1060.253
 168  1062.644
 169  1263.143
 170  1489.839
 171  1657.119
 172  1956.413
 173  2170.49
 174  2018.229
 175  1486.084
 176  1150.798
 177  1116.628
 178  1021.573
 179  820.2109
 180  823.2874
 181  900.5052
 182  936.5892
 183  976.0795
 184  1214.781
 185  1531.773
 186  1923.861
 187  2567.064
 188  2990.213
 189  3138.028
 190  2993.36
 191  2954.025
 192  2810.176
 193  2380.503
 194  2031.106
 195  1858.424
 196  1725.361
 197  1698.558
 198  1621.161
 199  1503.977
 200  1278.801
 201  1227.898
 202  1363.126
 203  1619.354
 204  1944.59
 205  2329.941
 206  2481.727
 207  2169.023
 208  1764.541
 209  1495.994
 210  1204.049
 211  840.1502
 212  610.7209
 213  756.046
 214  879.444
 215  902.4039
 216  1010.43
 217  1300.457
 218  1564.369
 219  2114.057
 220  2610.123
 221  2924.474
 222  2861.269
 223  3026.826
 224  2936.933
 225  2432.499
 226  1787.189
 227  1640.638
 228  1497.919
 229  1344.7
 230  1241.59
 231  1272.777
 232  1222.699
 233  1273.63
 234  1325.172
 235  1347.573
 236  1416.215
 237  1961.314
 238  2477.719
 239  2496.786
 240  2113.33
 241  1861.772
 242  1617.088
 243  1263.855
 244  875.545
 245  838.3554
 246  775.2273
 247  776.7208
 248  811.6449
 249  984.1492
 250  1111.051
 251  1520.768
 252  2052.725
 253  2498.871
 254  2666.508
 255  2983.309
 256  3101.596
 257  2882.165
 258  2389.281
 259  2190.156
 260  2031.298
 261  1824.826
 262  1436.736
 263  1257.643
 264  1074.481
 265  1171.854
 266  1264.175
 267  1352.538
 268  1290.238
 269  1578.439
 270  2053.925
 271  2309.006
 272  2213.015
 273  2062.495
 274  1981.948
 275  1631.629
 276  1182.88
 277  929.7319
 278  1095.418
 279  1177.181
 280  1088.854
 281  907.588
 282  851.3054
 283  1191.236
 284  1710.542
 285  2118.103
 286  2250.361
 287  2366.769
 288  2676.039
 289  2805.962
 290  2592.076
 291  2274.958
 292  2123.381
 293  2042.341
 294  1787.307
 295  1588.522
 296  1488.499
 297  1448.294
 298  1381.114
 299  1320.558
 300  1294.606
 301  1284.619
 302  1677.965
 303  2019.425
 304  2275.55
 305  2225.407
 306  2157.322
 307  1842.767
 308  1621.207
 309  1362.9
 310  1407.691
 311  1382.976
 312  1184.838
 313  954.0245
 314  932.1979
 315  998.8672
 316  1127.236
 317  1436.256
 318  1820.304
 319  2213.925
 320  2583.781
 321  3018.92
 322  3070.193
 323  2827.814
 324  2548.061
 325  2422.833
 326  2190.224
 327  2056.2
 328  1859.571
 329  1723.526
 330  1668.594
 331  1635.215
 332  1510.741
 333  1218.39
 334  1236.866
 335  1498.879
 336  1744.227
 337  1951.851
 338  2164.513
 339  2165.959
 340  1747.623
 341  1195.749
 342  990.726
 343  1014.458
 344  1051.206
 345  963.4077
 346  929.5041
 347  886.2673
 348  874.076
 349  1168.131
 350  1628.528
 351  2032.73
 352  2440.519
 353  2929.122
 354  3058.481
 355  2804.878
 356  2549.472
 357  2486.988
 358  2270.122
 359  1899.362
 360  1749.087
 361  1595.35
 362  1555.666
 363  1484.077
 364  1454.106
 365  1288.319
 366  1090.246
 367  1148.633
 368  1380.512
 369  1720.883
 370  1945.492
 371  2239.919
 372  2172.11
 373  1839.179
 374  1294.298
 375  1127.614
 376  945.8808
 377  742.4345
 378  758.7898
 379  931.9069
 380  1085.944
 381  1031.142
 382  1269.196
 383  1472.021
 384  1761.357
 385  2488.42
 386  3126.512
 387  3219.916
 388  2853.131
 389  2705.287
 390  2548.042
 391  2037.285
 392  1681.798
 393  1490.967
 394  1357.223
 395  1322.181
 396  1536.482
 397  1469.807
 398  1249.363
 399  1262.364
 400  1517.079
 401  1615.417
 402  1709.203
 403  2096.415
 404  2499.525
 405  2263.007
 406  1776.574
 407  1477.261
 408  1338.809
 409  1120.382
 410  858.4874
 411  809.0049
 412  862.9454
 413  876.8405
 414  1008.639
 415  1171.182
 416  1392.455
 417  1820.398
 418  2514.4
 419  2972.893
 420  2990.451
 421  3030.869
 422  3064.959
 423  2769.048
 424  2294.782
 425  1958.471
 426  1634.885
 427  1240.914
 428  1092.226
 429  1193.525
 430  1076.264
 431  972.3616
 432  1064.512
 433  1363.276
 434  1441.949
 435  1803.921
 436  2174.01
 437  2183.375
 438  1804.907
 439  1476.507
 440  1489.931
 441  1322.498
 442  1096.846
 443  1181.7
 444  1220.815
 445  1091.094
 446  790.967
 447  822.7795
 448  1021.635
 449  1403.445
 450  1891.826
 451  2390.78
 452  2770.597
 453  2969.42
 454  3070.915
 455  2919.149
 456  2716.797
 457  2497.372
 458  2295.626
 459  1812.141
 460  1516.041
 461  1384.696
 462  1330.975
 463  1308.624
 464  1022.788
 465  1050.466
 466  1041.124
 467  1473.788
 468  1909.784
 469  2215.376
 470  2225.752
 471  2021.123
 472  1921.45
 473  1714.856
 474  1395.352
 475  1138.429
 476  1020.197
 477  1042.364
 478  1036.202
 479  1023.268
 480  1022.529
 481  976.7374
 482  1249.459
 483  1635.506
 484  1988.887
 485  2238.284
 486  2631.147
 487  2793.966
 488  2584.067
 489  2073.569
 490  1935.376
 491  1928.375
 492  1762.296
 493  1583.08
 494  1426.806
 495  1362.294
 496  1351.235
 497  1213.189
 498  1038.443
 499  1013.104
 500  1343.092
 501  1824.765
 502  1790.677
 503  1889.325
 504  1913.594
 505  1918.882
 506  1553.158
 507  1029.94
 508  1024.138
 509  1033.834
 510  1131.103
 511  984.7883
 512  910.6886
 513  899.5237
 514  1030.718
 515  1587.104
 516  2076.298
 517  2417.415
 518  2707.505
 519  3233.467
 520  3276.893
 521  2826.906
 522  2293.546
 523  2159.639
 524  1840.042
 525  1473.794
 526  1520.095
 527  1454.895
 528  1495.448
 529  1206.273
 530  1356.114
 531  1213.729
 532  1375.636
 533  1732.936
 534  2088.274
 535  2044.254
 536  1922.296
 537  2015.83
 538  2049.332
 539  1618.148
 540  1159.753
 541  1078.71
 542  1027.998
 543  859.5969
 544  748.2946
 545  890.3853
 546  1013.74
 547  1266.591
 548  1787.88
 549  2188.121
 550  2548.858
 551  3065.5
 552  3313.851
 553  3120.596
 554  2718.986
 555  2609.551
 556  2313.426
 557  1813.927
 558  1551.336
 559  1554.252
 560  1584.137
 561  1548.772
 562  1548.69
 563  1468.176
 564  1286.046
 565  1267.417
 566  1597.342
 567  1698.725
 568  2032.973
 569  2306.048
 570  2381.257
 571  2034.466
 572  1467.041
 573  1389.275
 574  1185.274
 575  852.1696
 576  559.3701
 577  614.5556
 578  810.5432
 579  866.9467
 580  1074.878
 581  1492.52
 582  1863.993
 583  2443.533
 584  3004.667
 585  3179.386
 586  2989.97
 587  2768.199
 588  2725.962
 589  2514.622
 590  2241.202
 591  2183.358
 592  1967.47
 593  1811.361
 594  1773.94
 595  1960.206
 596  2030.295
 597  2038.57
 598  2264.524
 599  2596.006
 600  2909.104
 601  3298.303
 602  3643.131
 603  3532.801
 604  3181.005
 605  2931.906
 606  2704.214
 607  2228.89
 608  1704.342
 609  1564.469
 610  1526.647
 611  1481.283
 612  1465.036
 613  1477.185
 614  1540.147
 615  1740.798
 616  2360.746
 617  2788.735
 618  2898.321
 619  2900.787
 620  3096.926
 621  3105.695
 622  2694.642
 623  2197.732
 624  1918.289
 625  1629.551
 626  1547.506
 627  1405.64
 628  1338.695
 629  1244.744
 630  1244.552
 631  1227.739
 632  1176.93
 633  1529.964
 634  1926.191
 635  2271.745
 636  2205.743
 637  1919.112
 638  1745.542
 639  1571.861
 640  1305.936
 641  1016.455
 642  993.8449
 643  1112.096
 644  1067.237
 645  1177.736
 646  1093.32
 647  1265.63
 648  1763.064
 649  2438.784
 650  2674.83
 651  2767.435
 652  3144.601
 653  3290.872
 654  2872.157
 655  2205.963
 656  1964.657
 657  1807.378
 658  1680.996
 659  1441.143
 660  1336.586
 661  1210.014
 662  1050.6
 663  1148.073
 664  1117.304
 665  1304.214
 666  1569.483
 667  2225.801
 668  2352.225
 669  2238.709
 670  2014.533
 671  1794.382
 672  1304.179
 673  797.6473
 674  780.1461
 675  1013.9
 676  1022.665
 677  990.0974
 678  1116.847
 679  1322.604
 680  1530.117
 681  2179.038
 682  2534.344
 683  2802.611
 684  2934.071
 685  3374.686
 686  3246.764
 687  2714.414
 688  2221.445
 689  2175.062
 690  1835.607
 691  1613.686
 692  1365.115
 693  1447.835
 694  1425.96
 695  1326.918
 696  1183.088
 697  1087.334
 698  1374.979
 699  1868.112
 700  2167.98
 701  2141.17
 702  1928.242
 703  1800.616
 704  1500.308
 705  1014.542
 706  822.1973
 707  883.7757
 708  1041.823
 709  925.375
 710  917.1945
 711  942.5899
 712  1163.94
 713  1492.8
 714  2105.214
 715  2310.835
 716  2515.953
 717  2857.753
 718  3074.835
 719  2797.687
 720  2515.678
 721  2441.254
 722  2186.285
 723  1624.709
 724  1392.792
 725  1365.729
 726  1308.766
 727  1211.324
 728  928.0477
 729  847.3011
 730  958.9838
 731  1397.107
 732  1819.5
 733  1952.048
 734  1978.65
 735  1947.441
 736  1895.927
 737  1511.3
 738  1005.827
 739  899.6274
 740  889.5536
 741  715.7128
 742  600.3232
 743  663.3226
 744  791.4942
 745  1006.435
 746  1394.001
 747  1741.163
 748  2090.992
 749  2704.697
 750  3195.808
 751  3046.668
 752  2823.58
 753  2567.373
 754  2509.52
 755  2008.745
 756  1769.164
 757  1658.577
 758  1604.894
 759  1552.626
 760  1441.902
 761  1297.577
 762  1210.121
 763  1376.974
 764  1479.643
 765  1585.279
 766  1776.64
 767  2133.8
 768  2166.756
 769  1771.656
 770  1392.36
 771  1191.921
 772  1222.23
 773  1088.724
 774  851.5099
 775  773.3268
 776  718.2342
 777  882.3781
 778  984.8016
 779  1183.83
 780  1533.084
 781  2171.007
 782  2740.755
 783  2899.005
 784  2646.224
 785  2742.232
 786  2758.761
 787  2626.006
 788  2030.499
 789  1703.708
 790  1556.85
 791  1459.749
 792  1317.072
 793  1042.844
 794  900.5237
 795  950.4214
 796  1178.286
 797  1319.006
 798  1481.557
 799  1862.441
 800  2318.324
 801  2214.402
 802  1707.561
 803  1348.362
 804  1322.37
 805  1307.472
 806  1000.093
 807  940.7045
 808  987.4846
 809  1035.126
 810  1118.201
 811  1272.955
 812  1577.878
 813  1917.591
 814  2480.384
 815  2910.959
 816  2881.545
 817  2659.596
 818  2680.632
 819  2741.901
 820  2337.512
 821  1901.483
 822  1724.148
 823  1497.628
 824  1296.704
 825  1221.013
 826  1272.344
 827  1209.69
 828  1024.241
 829  1111.736
 830  1354.636
 831  1626.052
 832  1947.052
 833  2107.888
 834  2140.971
 835  1858.805
 836  1694.895
 837  1437.732
 838  1196.545
 839  927.2814
 840  865.8876
 841  933.6357
 842  993.2149
 843  1023.175
 844  1053.738
 845  1217.184
 846  1833.488
 847  2449.479
 848  2611.388
 849  2566.041
 850  2812.132
 851  3114.004
 852  2847.019
 853  2255.724
 854  1833.005
 855  1663.547
 856  1499.188
 857  1542.69
 858  1663.615
 859  1634.938
 860  1499.931
 861  1364.453
 862  1364.812
 863  1419.07
 864  1588.908
 865  2037.104
 866  2189.564
 867  2177.446
 868  1885.232
 869  1774.702
 870  1439.999
 871  938.5548
 872  667.4922
 873  716.9802
 874  810.9921
 875  854.0569
 876  937.0825
 877  1066.672
 878  1390.022
 879  1951.456
 880  2459.351
 881  2481.302
 882  2627.188
 883  2955.319
 884  3071.471
 885  2524.3
 886  2088.311
 887  1955.578
 888  1761.785
 889  1593.024
 890  1432.035
 891  1454.97
 892  1485.504
 893  1437.545
 894  1465.009
 895  1166.969
 896  1300.103
 897  1786.68
 898  2290.707
 899  2343.706
 900  2275.98
 901  2204.952
 902  1927.221
 903  1283.718
 904  919.7576
 905  958.4301
 906  978.7134
 907  880.3518
 908  737.7878
 909  835.2479
 910  966.9958
 911  1445.545
 912  1991.15
 913  2260.165
 914  2486.659
 915  2896.27
 916  3189.281
 917  2830.6
 918  2459.881
 919  2323.376
 920  2223.9
 921  1813.951
 922  1462.291
 923  1266.356
 924  1271.618
 925  1273.047
 926  1153.458
 927  1137.268
 928  951.2964
 929  1265.242
 930  1736.522
 931  1930.913
 932  2056.52
 933  2150.805
 934  2342.656
 935  1886.734
 936  1267.9
 937  1006.723
 938  1124.495
 939  1118.605
 940  982.6669
 941  848.3256
 942  762.6271
 943  877.3643
 944  1197.979
 945  1636.131
 946  1860.005
 947  2156.469
 948  2755.652
 949  3004.005
 950  2866.642
 951  2683.156
 952  2501.994
 953  2064.656
 954  1713.536
 955  1600.849
 956  1497.983
 957  1281.523
 958  1167.453
 959  1078.862
 960  949.2719
 961  969.2673
 962  1295.472
 963  1629.732
 964  1906.147
 965  2126.367
 966  2182.781
 967  1966.228
 968  1529.079
 969  1256.984
 970  1219.579
 971  1148.172
 972  920.9047
 973  842.3387
 974  921.7484
 975  967.7439
 976  1141.184
 977  1425.765
 978  1621.647
 979  1888.982
 980  2458.163
 981  2856.514
 982  2763.277
 983  2467.681
 984  2482.877
 985  2542.381
 986  2291.793
 987  1869.899
 988  1582.771
 989  1539.83
 990  1540.117
 991  1507.401
 992  1281.403
 993  1019.685
 994  1061.728
 995  1333.615
 996  1509.065
 997  1790.077
 998  2041.986
 999  2305.676
1000  1990.118
1001  1549.999
1002  1110.077
1003  905.5258
1004  863.8721
1005  775.6284
1006  769.2927
1007  785.0616
1008  874.7195
1009  1204.712
1010  1317.974
1011  1467.96
1012  1827.319
1013  2592.297
1014  2864.421
1015  2668.232
1016  2595.187
1017  2478.769
1018  2148.636
1019  1641.743
1020  1521.51
1021  1620.7
1022  1535.934
1023  1396.24
