# Input file       =  1208786440.114979_cleaned.dat
# Candidate        =  PSR_0332+5434
# Telescope        =  AR
# Epoch_topo       =  58234.584017534478
# Epoch_bary       =  N/A
# T_sample         =  0.002
# Data Folded      =  7340032
# Data Avg         =  0.318804461138955
# Data StdDev      =  6.1667371148165  
# Profile Bins     =  1024
# Profile Avg      =  2285.22205337056 
# Profile StdDev   =  522.100889808526 
# Reduced chi-sqr  =  0.812
# Prob(Noise)      <  1   (~0.0 sigma)
# P_topo (ms)      =  714.55098000573   +/- 0.000677
# P'_topo (s/s)    =  -0                +/- 3.57e-10
# P''_topo (s/s^2) =  0                 +/- 1.58e-13
# P_bary (ms)      =  N/A
# P'_bary (s/s)    =  N/A
# P''_bary (s/s^2) =  N/A
# P_orb (s)        =  N/A
# asin(i)/c (s)    =  N/A
# eccentricity     =  N/A
# w (rad)          =  N/A
# T_peri           =  N/A
######################################################
   0  2196.978
   1  2083.602
   2  2061.133
   3  2039.926
   4  2316.537
   5  2448.66
   6  2312.477
   7  2120.256
   8  2069.801
   9  2145.989
  10  2170.252
  11  2070.981
  12  2076.355
  13  2197.721
  14  2319.501
  15  2367.74
  16  2396.526
  17  2336.109
  18  2185.199
  19  2122.483
  20  2204.977
  21  2262.496
  22  2248.48
  23  2143.343
  24  2016.216
  25  1996.221
  26  2012.63
  27  2145.753
  28  2133.878
  29  2191.131
  30  2067.02
  31  1961.959
  32  1957.515
  33  2107.596
  34  2237.78
  35  2373.799
  36  2433.454
  37  2464.926
  38  2399.291
  39  2333.03
  40  2312.336
  41  2354.943
  42  2412.82
  43  2445.232
  44  2464.369
  45  2387.445
  46  2380.087
  47  2487.257
  48  2703.954
  49  2749.233
  50  2840.637
  51  2791.455
  52  2738.051
  53  2701.95
  54  2677.179
  55  2696.896
  56  2585.961
  57  2596.553
  58  2737.427
  59  2691.942
  60  2626.852
  61  2556.239
  62  2549.212
  63  2516.108
  64  2536.962
  65  2522.284
  66  2651.995
  67  2559.074
  68  2495.456
  69  2438.404
  70  2603.773
  71  2587.997
  72  2617.14
  73  2550.248
  74  2713.775
  75  2684.025
  76  2619.806
  77  2724.771
  78  2695.677
  79  2665.211
  80  2534.025
  81  2594.62
  82  2737.373
  83  2907.85
  84  2817.768
  85  2793.718
  86  2753.638
  87  2717.985
  88  2800.364
  89  2721.119
  90  2648.991
  91  2467.531
  92  2393.305
  93  2169.119
  94  2149.533
  95  2276.036
  96  2406.697
  97  2479.728
  98  2247.19
  99  2090.024
 100  1923.805
 101  1990.309
 102  2165.97
 103  2208.794
 104  2154.462
 105  2222.537
 106  2247.025
 107  2286.997
 108  2244.403
 109  2249.88
 110  2282.881
 111  2342.669
 112  2343.335
 113  2197.088
 114  2145.622
 115  2189.16
 116  2203.704
 117  2268.016
 118  2322.905
 119  2418.615
 120  2270.479
 121  2089.711
 122  2048.226
 123  2191.679
 124  2282.378
 125  2299.101
 126  2200.069
 127  2099.811
 128  2089.373
 129  1998.537
 130  2086.962
 131  2136.512
 132  2232.772
 133  2221.68
 134  2108.838
 135  1993.737
 136  1775.576
 137  1718.556
 138  1839.783
 139  1867.32
 140  1903.337
 141  1804.226
 142  1806.58
 143  1791.302
 144  1864.855
 145  2004.949
 146  2051.334
 147  2066.336
 148  2080.572
 149  2101.994
 150  2100.399
 151  2049.31
 152  2033.386
 153  2007.268
 154  2016.561
 155  2060.922
 156  2072.929
 157  2113.836
 158  2109.155
 159  2113.152
 160  2122.709
 161  2236.519
 162  2378.454
 163  2437.965
 164  2234.38
 165  2231.389
 166  2230.699
 167  2276.811
 168  2210.849
 169  2249.532
 170  2178.239
 171  2143.076
 172  2078.994
 173  2064.964
 174  2005.064
 175  2118.369
 176  2245.669
 177  2309.523
 178  2249.82
 179  2273.017
 180  2331.064
 181  2282.842
 182  2187.264
 183  2291.033
 184  2333.934
 185  2291.786
 186  2283.573
 187  2259.822
 188  2281.844
 189  2365.121
 190  2502.027
 191  2503.818
 192  2482.334
 193  2457.99
 194  2543.705
 195  2548.7
 196  2695.783
 197  2746.71
 198  2619.573
 199  2538.717
 200  2467.996
 201  2430.156
 202  2305.451
 203  2300.191
 204  2210.621
 205  2199.097
 206  2144.19
 207  2220.302
 208  2301.828
 209  2262.713
 210  2380.763
 211  2368.54
 212  2287.724
 213  2177.48
 214  2257.123
 215  2418.013
 216  2527.958
 217  2501.621
 218  2528.08
 219  2539.367
 220  2514.56
 221  2389.275
 222  2339.234
 223  2297.668
 224  2203.514
 225  2043.225
 226  1997.841
 227  1982.718
 228  2158.222
 229  2272.264
 230  2286.805
 231  2207.874
 232  2256.537
 233  2347.198
 234  2210.985
 235  1989.791
 236  1927.95
 237  1977.231
 238  2070.948
 239  2097.819
 240  2181.38
 241  2043.46
 242  2001.72
 243  1937.137
 244  1920.595
 245  1981.168
 246  2051.08
 247  2122.725
 248  2070.298
 249  2015.536
 250  2028.042
 251  1942.899
 252  1927.932
 253  1856.897
 254  1726.598
 255  1590.004
 256  1627
 257  1756.655
 258  1922.28
 259  1979.972
 260  2023.421
 261  2106.536
 262  1980.492
 263  2002.493
 264  1953.249
 265  1988.593
 266  1959.785
 267  1881.881
 268  1768.34
 269  1668.383
 270  1584.052
 271  1655.57
 272  1615.606
 273  1784.39
 274  1857.238
 275  1873.508
 276  1824.331
 277  1770.354
 278  1833.195
 279  1896.457
 280  1996.177
 281  2081.825
 282  2003.986
 283  1925.191
 284  1900.018
 285  1991.721
 286  2091.794
 287  1981.465
 288  1978.401
 289  1885.16
 290  1947.766
 291  1841.226
 292  1856.856
 293  1809.461
 294  1920.034
 295  1969.038
 296  2017.718
 297  1961.263
 298  1956.009
 299  1970.137
 300  1947.806
 301  1829.466
 302  1768.239
 303  1878.961
 304  2042.871
 305  2060.838
 306  1953.045
 307  1900.082
 308  1892.206
 309  1878.724
 310  1829.569
 311  1970.605
 312  2096.628
 313  1977.6
 314  1746.151
 315  1675.875
 316  1757.763
 317  1873.257
 318  1849.22
 319  1916.577
 320  1933.53
 321  1853.398
 322  1718.61
 323  1598.966
 324  1683.652
 325  1747.928
 326  1851.944
 327  1830.659
 328  1832.271
 329  1869.294
 330  1866.329
 331  1807.231
 332  1635.496
 333  1722.598
 334  1752.908
 335  2008.814
 336  2070.932
 337  2017.094
 338  1887.762
 339  1827.462
 340  1958.774
 341  2054.596
 342  2026.474
 343  1828.093
 344  1817.248
 345  1906.867
 346  2076.452
 347  2190.236
 348  2447.75
 349  2461.501
 350  2428.118
 351  2342.746
 352  2382.919
 353  2425.296
 354  2464.782
 355  2454.178
 356  2371.854
 357  2387.88
 358  2411.589
 359  2532.53
 360  2470.333
 361  2400.673
 362  2225.188
 363  2247.159
 364  2272.404
 365  2341.927
 366  2494.515
 367  2469.095
 368  2338.846
 369  2269.498
 370  2308.895
 371  2457.135
 372  2417.299
 373  2391.798
 374  2293.995
 375  2404.01
 376  2353.656
 377  2276.92
 378  2017.639
 379  1953.948
 380  2076.195
 381  2164.817
 382  2271.986
 383  2370.052
 384  2410.321
 385  2318.411
 386  2129.888
 387  1959.886
 388  2081.902
 389  2348.65
 390  2562.647
 391  2586.873
 392  2350.675
 393  2190.699
 394  2187.69
 395  2329.912
 396  2397.792
 397  2436.462
 398  2405.748
 399  2454.644
 400  2480.259
 401  2426.042
 402  2356.021
 403  2367.391
 404  2537.183
 405  2526.899
 406  2404.481
 407  2248.758
 408  2207.148
 409  2274.515
 410  2480.53
 411  2523.559
 412  2531.615
 413  2594.353
 414  2514.576
 415  2427.551
 416  2439.333
 417  2424.088
 418  2416.747
 419  2459.507
 420  2490.511
 421  2441.466
 422  2373.326
 423  2475.612
 424  2513.315
 425  2490.136
 426  2458.174
 427  2670.188
 428  2716.558
 429  2669.642
 430  2563.839
 431  2525.424
 432  2480.247
 433  2393.642
 434  2361.699
 435  2332.24
 436  2282.87
 437  2261.446
 438  2364.597
 439  2442.653
 440  2567.731
 441  2545.224
 442  2494.116
 443  2418.065
 444  2399.198
 445  2388.388
 446  2592.066
 447  2526.611
 448  2461.17
 449  2424.046
 450  2374.781
 451  2357.026
 452  2280.949
 453  2257.094
 454  2406.398
 455  2523.344
 456  2519.628
 457  2530.234
 458  2581.49
 459  2473.706
 460  2429.385
 461  2411.665
 462  2382.398
 463  2334.922
 464  2371.489
 465  2480.542
 466  2410.567
 467  2419.898
 468  2511.599
 469  2555.082
 470  2478.107
 471  2425.122
 472  2447.95
 473  2476.757
 474  2438.648
 475  2439.367
 476  2398.484
 477  2372.458
 478  2345.04
 479  2370.601
 480  2453.495
 481  2507.771
 482  2485.892
 483  2489.062
 484  2515.707
 485  2553.571
 486  2667.32
 487  2743.002
 488  2800.359
 489  2820.094
 490  2700.525
 491  2702.276
 492  2541.425
 493  2519.299
 494  2481.643
 495  2572.974
 496  2594.783
 497  2579.579
 498  2410.158
 499  2486.578
 500  2477.673
 501  2483.728
 502  2539.598
 503  2611.319
 504  2708.435
 505  2675.223
 506  2599.279
 507  2567.015
 508  2621.312
 509  2615.46
 510  2733.539
 511  2727.14
 512  2754.565
 513  2779.184
 514  2742.91
 515  2604.746
 516  2538.412
 517  2464.329
 518  2441.936
 519  2526.935
 520  2763.079
 521  3026.515
 522  3071.717
 523  2839.384
 524  2712.837
 525  2602.384
 526  2536.441
 527  2526.534
 528  2535.68
 529  2608.063
 530  2545.76
 531  2622.224
 532  2630.928
 533  2665.522
 534  2628.361
 535  2540.742
 536  2386.437
 537  2365.322
 538  2435.704
 539  2506.865
 540  2496.974
 541  2592.271
 542  2588.537
 543  2520.63
 544  2416.068
 545  2345.713
 546  2375.747
 547  2241.143
 548  2290.104
 549  2249.621
 550  2415.63
 551  2489.506
 552  2490.823
 553  2308.261
 554  2268.27
 555  2263.029
 556  2379.208
 557  2462.795
 558  2514.978
 559  2452.922
 560  2500.965
 561  2452.568
 562  2441.447
 563  2352.055
 564  2350.236
 565  2352.68
 566  2304.36
 567  2294.554
 568  2352.182
 569  2492.519
 570  2532.554
 571  2580.002
 572  2566.581
 573  2534.683
 574  2509.209
 575  2537.54
 576  2551.669
 577  2438.816
 578  2252.954
 579  2107.052
 580  2035.703
 581  2077.39
 582  2162.236
 583  2213.623
 584  2318.015
 585  2265.969
 586  2240.778
 587  2328.335
 588  2398.219
 589  2463.238
 590  2556.639
 591  2586.391
 592  2575.078
 593  2577.917
 594  2701.018
 595  2832.715
 596  2896.596
 597  2932.316
 598  2890.973
 599  3028.895
 600  3067.931
 601  3171.457
 602  3202.793
 603  3293.306
 604  3283.808
 605  3158.265
 606  3005.771
 607  2830.819
 608  2518.844
 609  2389.309
 610  2268.441
 611  2233.178
 612  2014.562
 613  1961.847
 614  1970.592
 615  1990.612
 616  2148.57
 617  2187.911
 618  2170.438
 619  1948.301
 620  1791.839
 621  1797.563
 622  1899.981
 623  1918.553
 624  1942.833
 625  1962.355
 626  2002.963
 627  2019.711
 628  2055.488
 629  2012.537
 630  2001.739
 631  1935.272
 632  1971.132
 633  2006.3
 634  2053.95
 635  2096.868
 636  1948.068
 637  1895.559
 638  1911.147
 639  2069.645
 640  2125.559
 641  2033.641
 642  1969.234
 643  1855.864
 644  1872.037
 645  1913.24
 646  2017.191
 647  2044.611
 648  2145.643
 649  2267.266
 650  2359.256
 651  2380.656
 652  2404.302
 653  2346.427
 654  2275.917
 655  2275.673
 656  2214.982
 657  2208.555
 658  2306.441
 659  2153.4
 660  2226.633
 661  2229.991
 662  2325.8
 663  2463.648
 664  2516.117
 665  2548.748
 666  2625.615
 667  2557.88
 668  2361.22
 669  2214.756
 670  2232.188
 671  2289.806
 672  2228.628
 673  2110.12
 674  2144.424
 675  2244.271
 676  2341.811
 677  2351.83
 678  2330.504
 679  2361.223
 680  2312.098
 681  2225.689
 682  2272.478
 683  2289.526
 684  2345.934
 685  2416.246
 686  2364.53
 687  2282.985
 688  2277.934
 689  2302.679
 690  2326.747
 691  2242.533
 692  2169.903
 693  2328.076
 694  2429.501
 695  2473.081
 696  2409.164
 697  2435.343
 698  2468.897
 699  2566.548
 700  2397.978
 701  2253.392
 702  2197.499
 703  2152.745
 704  2132.863
 705  2017.638
 706  1973.602
 707  1954.83
 708  2066.34
 709  2273.58
 710  2247.308
 711  2263.22
 712  2181.955
 713  2200.614
 714  2194.074
 715  2194.825
 716  2202.983
 717  2193.799
 718  2303.459
 719  2354.939
 720  2267.863
 721  2053.637
 722  1933.476
 723  2051.692
 724  2114.032
 725  2125.349
 726  2164.601
 727  2168.789
 728  2213.025
 729  2134.073
 730  2229.522
 731  2137.646
 732  2076.856
 733  1965.649
 734  2082.01
 735  2080.804
 736  2165.362
 737  2215.026
 738  2323.812
 739  2289.108
 740  2320.974
 741  2274.582
 742  2348.427
 743  2364.168
 744  2348.582
 745  2301.289
 746  2331.179
 747  2314.125
 748  2314.523
 749  2461.092
 750  2641.025
 751  2605.57
 752  2502.292
 753  2373.094
 754  2358.286
 755  2556.295
 756  2646.635
 757  2712.507
 758  2506.899
 759  2545.965
 760  2587.491
 761  2634.279
 762  2499.615
 763  2442.505
 764  2419.786
 765  2364.225
 766  2343.709
 767  2394.259
 768  2507.24
 769  2565.282
 770  2526.108
 771  2586.74
 772  2549.726
 773  2525.934
 774  2320.159
 775  2252.893
 776  2300.715
 777  2413.578
 778  2496.121
 779  2522.22
 780  2581.809
 781  2567.562
 782  2591.181
 783  2448.928
 784  2428.658
 785  2582.939
 786  2674.302
 787  2634.663
 788  2603.309
 789  2525.09
 790  2585.067
 791  2619.521
 792  2755.123
 793  2789.955
 794  2697.254
 795  2619.984
 796  2644.702
 797  2592.677
 798  2543.04
 799  2566.244
 800  2568.094
 801  2514.383
 802  2472.229
 803  2549.137
 804  2537.147
 805  2529.278
 806  2508.331
 807  2400.989
 808  2200.441
 809  2068.826
 810  2240.518
 811  2369.409
 812  2356.378
 813  2250.446
 814  2134.082
 815  2135.604
 816  2123.614
 817  2255.627
 818  2434.442
 819  2416.507
 820  2145.485
 821  2168.141
 822  2305.307
 823  2511.226
 824  2644.921
 825  2460.301
 826  2383.601
 827  2239.597
 828  2335.394
 829  2333.633
 830  2442.037
 831  2525.279
 832  2651.348
 833  2514.576
 834  2376.45
 835  2267.522
 836  2317.237
 837  2259.759
 838  2295.457
 839  2298.164
 840  2346.549
 841  2366.274
 842  2365.467
 843  2438.544
 844  2353.346
 845  2302.797
 846  2263.314
 847  2328.002
 848  2300.113
 849  2114.798
 850  2001.083
 851  1963.387
 852  2046.099
 853  2009.485
 854  1999.306
 855  1959.171
 856  1983.548
 857  2214.811
 858  2165.005
 859  2178.76
 860  2153.718
 861  2313.54
 862  2342.183
 863  2274.431
 864  2266.619
 865  2235.243
 866  2280.852
 867  2154.597
 868  2115.465
 869  2039.187
 870  1982.617
 871  2043.969
 872  2016.134
 873  2066.075
 874  2038.238
 875  2063.187
 876  2197.815
 877  2160.947
 878  2076.102
 879  2013.981
 880  2063.238
 881  2009.329
 882  2006.662
 883  2021.661
 884  2012.743
 885  2056.164
 886  1954.44
 887  1884.726
 888  1878.707
 889  1963.488
 890  2016.141
 891  1991.329
 892  1981.067
 893  2136.369
 894  2163.431
 895  2177.439
 896  2189.739
 897  2194.295
 898  2301.237
 899  2308.33
 900  2311.027
 901  2222.643
 902  2192.622
 903  2262.828
 904  2229.593
 905  2066.587
 906  2083.446
 907  2180.065
 908  2291.257
 909  2238.47
 910  2207.103
 911  2098.44
 912  2005.687
 913  1941.862
 914  1964.801
 915  2132.965
 916  2338.409
 917  2441.966
 918  2376.101
 919  2350.616
 920  2322.612
 921  2293.728
 922  2280.1
 923  2295.04
 924  2379.415
 925  2411.555
 926  2501.878
 927  2447.382
 928  2294.202
 929  2200.198
 930  2235.796
 931  2435.651
 932  2538.76
 933  2725.399
 934  2690.885
 935  2589.821
 936  2575.025
 937  2532.526
 938  2478.483
 939  2461.956
 940  2479.223
 941  2479.448
 942  2350.341
 943  2321.337
 944  2255.175
 945  2263.032
 946  2162.69
 947  2150.255
 948  2180.477
 949  2299.162
 950  2277.791
 951  2281.891
 952  2308.944
 953  2482.556
 954  2438.049
 955  2459.086
 956  2330.007
 957  2360.073
 958  2286.714
 959  2181.394
 960  2095.015
 961  2037.201
 962  2038.16
 963  2057.823
 964  1924.753
 965  1957.517
 966  1999.159
 967  2033.761
 968  2045.244
 969  2030.956
 970  1856.998
 971  1866.214
 972  1813.392
 973  1824.614
 974  1836.211
 975  2016.526
 976  2008.248
 977  2024.318
 978  2046.181
 979  2171.247
 980  2210.081
 981  2238.176
 982  2222.888
 983  2248.295
 984  2252.516
 985  2251.734
 986  2194.201
 987  2152.371
 988  2051.607
 989  2017.54
 990  2038.918
 991  2187.454
 992  2343.643
 993  2475.167
 994  2346.152
 995  2248.904
 996  2307.315
 997  2221.012
 998  2224.062
 999  2164.563
1000  2147.896
1001  2073.383
1002  2233.451
1003  2274.892
1004  2192.845
1005  2256.661
1006  2328.496
1007  2514.653
1008  2457.517
1009  2399.62
1010  2306.067
1011  2243.338
1012  2400.245
1013  2413.814
1014  2360.401
1015  2214.138
1016  2264.327
1017  2335.579
1018  2274.356
1019  2102.312
1020  2049.718
1021  2108.773
1022  2190.721
1023  2156.592
