# Input file       =  1208843057.118752_cleaned.dat
# Candidate        =  PSR_0332+5434
# Telescope        =  AR
# Epoch_topo       =  58235.239306930001
# Epoch_bary       =  N/A
# T_sample         =  0.002
# Data Folded      =  7208960
# Data Avg         =  0.0578155346266429
# Data StdDev      =  1.00039667639609 
# Profile Bins     =  512
# Profile Avg      =  814.041774965076 
# Profile StdDev   =  118.706245087747 
# Reduced chi-sqr  =  1.323
# Prob(Noise)      <  1.2e-06   (~4.7 sigma)
# P_topo (ms)      =  714.550043775809  +/- 0.000204
# P'_topo (s/s)    =  -0                +/- 1.1e-10
# P''_topo (s/s^2) =  0                 +/- 4.93e-14
# P_bary (ms)      =  N/A
# P'_bary (s/s)    =  N/A
# P''_bary (s/s^2) =  N/A
# P_orb (s)        =  N/A
# asin(i)/c (s)    =  N/A
# eccentricity     =  N/A
# w (rad)          =  N/A
# T_peri           =  N/A
######################################################
   0  832.6508
   1  845.4526
   2  903.787
   3  891.677
   4  1012.141
   5  1251.887
   6  1503.29
   7  1543.006
   8  1396.474
   9  1354.946
  10  1055.64
  11  948.2213
  12  750.5281
  13  795.7401
  14  830.1307
  15  911.2084
  16  919.1751
  17  869.9188
  18  872.5997
  19  728.0099
  20  794.8989
  21  810.9263
  22  821.3104
  23  818.6147
  24  707.033
  25  830.1681
  26  751.0087
  27  699.2592
  28  780.4801
  29  847.5439
  30  859.0534
  31  837.355
  32  743.4502
  33  839.871
  34  851.6138
  35  851.7688
  36  894.7065
  37  825.1683
  38  834.1287
  39  804.0621
  40  792.7363
  41  871.887
  42  794.58
  43  780.0552
  44  765.9339
  45  745.45
  46  770.1594
  47  816.7691
  48  765.0684
  49  799.542
  50  872.2051
  51  749.2395
  52  875.2458
  53  892.3729
  54  956.811
  55  1019.101
  56  854.78
  57  858.8376
  58  712.5609
  59  878.818
  60  932.3979
  61  955.3127
  62  907.0195
  63  966.4392
  64  909.0444
  65  832.0535
  66  924.2778
  67  906.253
  68  818.2217
  69  784.9246
  70  758.031
  71  791.2386
  72  808.5952
  73  877.7923
  74  966.9269
  75  777.8802
  76  739.1686
  77  855.3831
  78  786.5853
  79  737.5222
  80  785.8433
  81  881.2506
  82  776.8487
  83  754.9172
  84  725.3416
  85  781.6627
  86  909.4493
  87  937.2617
  88  812.7615
  89  683.5591
  90  801.9317
  91  802.3457
  92  792.1916
  93  822.7599
  94  825.2549
  95  787.6481
  96  728.938
  97  699.4982
  98  842.6605
  99  813.8365
 100  868.6344
 101  788.5052
 102  815.3184
 103  846.3531
 104  751.5393
 105  841.1073
 106  996.7123
 107  973.6184
 108  883.7
 109  884.285
 110  733.0831
 111  736.8154
 112  855.7442
 113  719.1294
 114  764.8494
 115  874.2906
 116  767.3948
 117  783.2894
 118  739.2975
 119  880.0265
 120  857.768
 121  844.7438
 122  870.7755
 123  814.7396
 124  759.5643
 125  758.6374
 126  748.5397
 127  740.5642
 128  746.0208
 129  719.9606
 130  788.844
 131  739.6064
 132  790.5534
 133  818.8565
 134  756.6065
 135  747.5406
 136  741.8084
 137  777.2205
 138  875.8594
 139  920.8281
 140  768.0474
 141  709.4507
 142  826.6611
 143  810.4546
 144  827.0786
 145  802.8032
 146  813.4146
 147  715.1842
 148  811.6448
 149  917.1118
 150  931.0908
 151  812.7473
 152  854.8378
 153  783.3716
 154  779.7769
 155  776.7875
 156  824.9888
 157  733.3774
 158  710.4997
 159  745.2082
 160  753.7565
 161  775.8462
 162  747.8995
 163  851.9335
 164  818.1689
 165  863.5106
 166  774.739
 167  730.6533
 168  708.2969
 169  735.0904
 170  743.6899
 171  820.9717
 172  863.9989
 173  828.1333
 174  842.8685
 175  885.3066
 176  830.9506
 177  817.21
 178  664.4832
 179  824.4617
 180  804.7411
 181  795.2744
 182  866.5908
 183  901.0442
 184  900.7753
 185  754.4813
 186  803.3691
 187  826.1636
 188  804.5934
 189  890.278
 190  895.9805
 191  785.8669
 192  766.3917
 193  726.4462
 194  626.4849
 195  783.0216
 196  749.0429
 197  772.8188
 198  726.3653
 199  794.1862
 200  757.9748
 201  719.3058
 202  706.8885
 203  716.9117
 204  823.3393
 205  790.0588
 206  747.2949
 207  739.5699
 208  807.5564
 209  907.29
 210  931.386
 211  814.8853
 212  795.1416
 213  778.8665
 214  837.6337
 215  901.1921
 216  891.8517
 217  844.231
 218  719.0062
 219  773.085
 220  921.0325
 221  762.2698
 222  774.2183
 223  812.0635
 224  813.386
 225  777.7335
 226  771.761
 227  811.6438
 228  746.7402
 229  764.3182
 230  847.9614
 231  764.67
 232  763.1346
 233  795.6435
 234  785.1641
 235  954.0822
 236  929.9343
 237  857.2193
 238  838.403
 239  948.6854
 240  789.5057
 241  853.4001
 242  863.248
 243  850.7427
 244  907.2966
 245  868.1906
 246  891.3309
 247  816.3673
 248  853.8202
 249  905.4974
 250  849.995
 251  887.005
 252  823.9319
 253  982.356
 254  990.615
 255  919.879
 256  843.1315
 257  853.7983
 258  829.3809
 259  695.4497
 260  769.4124
 261  850.5207
 262  961.0486
 263  1007.377
 264  885.2641
 265  967.6953
 266  969.0565
 267  857.5139
 268  832.6715
 269  969.4258
 270  944.9911
 271  805.9237
 272  805.4254
 273  868.8383
 274  929.295
 275  793.9073
 276  696.5915
 277  743.8308
 278  862.4274
 279  904.496
 280  913.3797
 281  953.842
 282  909.4761
 283  895.099
 284  813.5442
 285  792.1312
 286  855.888
 287  901.1329
 288  781.0164
 289  741.0042
 290  682.9554
 291  734.5543
 292  750.865
 293  694.7231
 294  642.8253
 295  783.7468
 296  882.5708
 297  920.765
 298  885.189
 299  899.9113
 300  868.4236
 301  728.6863
 302  780.1193
 303  827.5667
 304  774.259
 305  758.8412
 306  880.335
 307  888.5799
 308  841.7171
 309  722.6934
 310  631.7104
 311  826.0908
 312  760.7726
 313  732.4717
 314  813.1651
 315  846.1492
 316  820.5389
 317  812.9512
 318  934.1425
 319  951.0824
 320  988.0829
 321  845.3781
 322  834.723
 323  804.8152
 324  740.57
 325  710.4022
 326  733.366
 327  839.8058
 328  809.6376
 329  827.6038
 330  841.7468
 331  833.79
 332  847.0427
 333  796.4969
 334  721.8994
 335  790.8592
 336  925.5407
 337  881.5524
 338  965.3289
 339  803.9818
 340  894.439
 341  878.7668
 342  750.3101
 343  693.4466
 344  726.1495
 345  778.9076
 346  879.993
 347  819.5407
 348  859.8231
 349  798.7509
 350  762.239
 351  746.4516
 352  834.6263
 353  854.3012
 354  815.6251
 355  769.6476
 356  842.3963
 357  929.228
 358  804.413
 359  865.1882
 360  1004.971
 361  1052.183
 362  872.5575
 363  911.7355
 364  923.6558
 365  871.5102
 366  841.3016
 367  850.3882
 368  844.553
 369  770.2764
 370  828.7209
 371  813.8542
 372  898.2874
 373  881.2628
 374  823.1415
 375  905.7161
 376  846.2631
 377  872.1924
 378  900.5746
 379  873.2535
 380  805.2032
 381  795.678
 382  855.0175
 383  861.1404
 384  718.3928
 385  774.2081
 386  789.0868
 387  822.712
 388  956.7245
 389  1006.427
 390  898.5009
 391  799.3831
 392  777.7428
 393  756.0054
 394  734.4158
 395  728.2374
 396  798.0339
 397  707.7008
 398  770.6617
 399  832.1631
 400  906.3433
 401  781.102
 402  650.1033
 403  737.3074
 404  731.0678
 405  857.1179
 406  701.387
 407  676.775
 408  778.2536
 409  806.7851
 410  757.1633
 411  672.8679
 412  644.8118
 413  642.2756
 414  685.1567
 415  692.0914
 416  614.5595
 417  682.4048
 418  728.5338
 419  769.357
 420  757.3592
 421  677.7758
 422  615.9492
 423  699.6492
 424  820.3425
 425  727.581
 426  743.3763
 427  891.6543
 428  761.6927
 429  670.0977
 430  793.3678
 431  893.7937
 432  759.6301
 433  720.4878
 434  751.374
 435  825.3896
 436  634.6149
 437  755.6433
 438  793.0582
 439  736.3654
 440  684.1464
 441  697.4026
 442  736.423
 443  797.6711
 444  742.7289
 445  602.4634
 446  632.3924
 447  674.0295
 448  683.3103
 449  733.5594
 450  677.4876
 451  806.9086
 452  807.8419
 453  801.6996
 454  803.4962
 455  700.7963
 456  757.0131
 457  673.6972
 458  626.3753
 459  720.452
 460  779.9019
 461  697.8472
 462  643.5129
 463  793.9429
 464  819.5119
 465  859.2043
 466  782.0685
 467  824.5889
 468  714.8904
 469  775.3026
 470  805.1812
 471  826.0292
 472  790.6942
 473  802.7278
 474  754.0482
 475  813.4594
 476  767.4337
 477  679.3926
 478  632.4733
 479  785.788
 480  769.4972
 481  803.6344
 482  651.9011
 483  677.1466
 484  847.0607
 485  849.8554
 486  844.5155
 487  826.901
 488  850.0618
 489  685.4503
 490  723.1764
 491  718.3182
 492  683.3369
 493  789.1567
 494  788.5188
 495  717.4025
 496  704.0912
 497  827.2099
 498  808.5527
 499  816.1031
 500  901.3395
 501  818.8915
 502  833.0241
 503  861.3323
 504  819.7394
 505  807.0099
 506  706.6502
 507  803.713
 508  710.5738
 509  756.2426
 510  767.0737
 511  844.3028
