# Input file       =  1208700228.101068_cleaned.dat
# Candidate        =  PSR_0332+5434
# Telescope        =  AR
# Epoch_topo       =  58233.586193299401
# Epoch_bary       =  N/A
# T_sample         =  0.002
# Data Folded      =  7340032
# Data Avg         =  0.042091965508998
# Data StdDev      =  1.00008428433663 
# Profile Bins     =  512
# Profile Avg      =  603.325003740546 
# Profile StdDev   =  119.74312799631  
# Reduced chi-sqr  =  1.395
# Prob(Noise)      <  8.15e-09   (~5.6 sigma)
# P_topo (ms)      =  714.551842311918  +/- 0.000247
# P'_topo (s/s)    =  -0                +/- 1.3e-10
# P''_topo (s/s^2) =  0                 +/- 5.76e-14
# P_bary (ms)      =  N/A
# P'_bary (s/s)    =  N/A
# P''_bary (s/s^2) =  N/A
# P_orb (s)        =  N/A
# asin(i)/c (s)    =  N/A
# eccentricity     =  N/A
# w (rad)          =  N/A
# T_peri           =  N/A
######################################################
   0  599.5338
   1  649.3573
   2  605.0981
   3  684.6783
   4  703.5465
   5  749.7449
   6  627.9275
   7  681.8877
   8  816.9558
   9  806.9117
  10  858.8768
  11  773.3668
  12  673.1071
  13  634.0283
  14  697.678
  15  783.4083
  16  702.5891
  17  688.753
  18  666.6752
  19  650.9778
  20  624.6903
  21  478.304
  22  528.3644
  23  672.323
  24  671.2427
  25  740.3239
  26  676.9052
  27  710.9552
  28  713.7362
  29  673.9926
  30  682.6715
  31  663.6548
  32  577.3436
  33  601.588
  34  547.4882
  35  621.3646
  36  540.4712
  37  600.9766
  38  663.9063
  39  685.9968
  40  647.6808
  41  625.577
  42  656.451
  43  771.9961
  44  785.153
  45  702.9718
  46  669.0298
  47  724.5756
  48  710.4899
  49  750.0457
  50  744.6163
  51  673.447
  52  616.0303
  53  594.3356
  54  517.9245
  55  566.0074
  56  609.9865
  57  573.0652
  58  560.6761
  59  595.891
  60  605.3331
  61  588.0686
  62  668.1351
  63  627.954
  64  574.4354
  65  606.1392
  66  650.3721
  67  666.7437
  68  738.6666
  69  611.8242
  70  595.1826
  71  702.6218
  72  699.1598
  73  681.5931
  74  722.6186
  75  684.0833
  76  607.5834
  77  672.8938
  78  513.5453
  79  349.1958
  80  506.8374
  81  613.5132
  82  591.5525
  83  656.6139
  84  655.146
  85  568.0161
  86  624.7854
  87  581.395
  88  563.316
  89  576.8731
  90  702.0806
  91  769.396
  92  692.6234
  93  630.0948
  94  556.5635
  95  497.7751
  96  611.0099
  97  647.7792
  98  634.2003
  99  681.9976
 100  677.3212
 101  726.945
 102  662.9893
 103  706.5213
 104  651.3845
 105  599.3989
 106  601.1179
 107  626.8234
 108  639.7202
 109  582.1216
 110  561.9473
 111  549.1957
 112  564.5714
 113  651.6749
 114  731.1819
 115  702.957
 116  612.5034
 117  574.8853
 118  588.9503
 119  591.7807
 120  552.0208
 121  658.8292
 122  584.7804
 123  491.8648
 124  670.8274
 125  742.2882
 126  638.1945
 127  681.458
 128  586.0897
 129  608.1652
 130  584.857
 131  614.7155
 132  664.3149
 133  570.041
 134  519.8514
 135  582.443
 136  514.6467
 137  546.9164
 138  538.3237
 139  470.0775
 140  583.1467
 141  559.4373
 142  450.7424
 143  478.789
 144  480.8038
 145  502.3335
 146  429.7877
 147  530.7985
 148  574.5489
 149  429.0255
 150  441.9682
 151  549.4979
 152  607.3397
 153  594.4471
 154  687.9827
 155  561.355
 156  577.2422
 157  522.4684
 158  581.4801
 159  632.6207
 160  622.0984
 161  686.545
 162  703.6542
 163  602.6884
 164  544.1349
 165  618.1324
 166  691.3134
 167  731.4775
 168  664.9617
 169  563.9536
 170  657.1376
 171  634.6686
 172  527.3578
 173  534.9051
 174  644.6422
 175  577.0862
 176  675.3397
 177  681.7944
 178  747.9984
 179  839.1893
 180  811.6474
 181  860.4624
 182  781.5906
 183  872.218
 184  1149.906
 185  1285.351
 186  1249.475
 187  1196.181
 188  988.372
 189  791.6289
 190  692.0962
 191  640.9164
 192  638.2491
 193  671.0445
 194  702.7471
 195  724.3613
 196  673.9308
 197  645.7828
 198  626.7809
 199  613.8198
 200  666.8777
 201  715.224
 202  731.5769
 203  655.1816
 204  613.8707
 205  532.8484
 206  573.5622
 207  452.045
 208  624.4573
 209  658.8005
 210  585.7154
 211  672.1755
 212  665.2106
 213  651.8638
 214  672.679
 215  512.09
 216  489.173
 217  581.9584
 218  636.3076
 219  742.0493
 220  528.7711
 221  510.9571
 222  594.3381
 223  587.397
 224  514.1141
 225  567.2877
 226  602.2032
 227  585.8707
 228  541.8157
 229  500.5676
 230  635.3763
 231  656.4349
 232  555.5926
 233  530.478
 234  502.1948
 235  530.9575
 236  483.8474
 237  477.8663
 238  584.8752
 239  655.1003
 240  620.824
 241  527.0988
 242  521.7524
 243  520.1122
 244  470.0809
 245  503.6709
 246  488.7512
 247  584.4984
 248  602.2862
 249  604.5192
 250  615.5632
 251  536.901
 252  546.9131
 253  469.4927
 254  628.138
 255  540.5389
 256  476.6437
 257  607.3183
 258  488.0389
 259  464.5786
 260  598.9943
 261  509.7883
 262  430.8807
 263  434.0015
 264  431.2766
 265  523.5077
 266  546.6014
 267  541.8712
 268  489.1295
 269  507.8745
 270  642.2209
 271  642.3825
 272  657.8552
 273  601.0764
 274  557.5422
 275  598.6805
 276  470.0649
 277  444.6227
 278  417.4409
 279  386.845
 280  572.9247
 281  553.6942
 282  526.6799
 283  428.7612
 284  536.2587
 285  576.7249
 286  569.2966
 287  530.2233
 288  492.2742
 289  553.1024
 290  602.4044
 291  585.3743
 292  630.4304
 293  641.16
 294  641.2466
 295  654.51
 296  593.3687
 297  599.249
 298  563.6459
 299  566.1966
 300  628.567
 301  587.5272
 302  536.3436
 303  547.7356
 304  562.8484
 305  595.8098
 306  587.2219
 307  712.8812
 308  667.1285
 309  581.0379
 310  544.2729
 311  492.9918
 312  636.8118
 313  726.1552
 314  631.5041
 315  642.1945
 316  603.4681
 317  519.8615
 318  577.8082
 319  599.2468
 320  599.6055
 321  560.5848
 322  484.4656
 323  468.1866
 324  458.928
 325  482.6262
 326  467.5716
 327  585.4655
 328  602.9797
 329  495.0403
 330  460.5811
 331  605.1254
 332  600.8601
 333  705.2967
 334  697.0789
 335  752.4326
 336  765.6735
 337  737.177
 338  665.9673
 339  609.7362
 340  683.4832
 341  680.3851
 342  619.9332
 343  677.9297
 344  652.0418
 345  553.9733
 346  538.8083
 347  574.5163
 348  570.584
 349  576.931
 350  616.0964
 351  620.4863
 352  530.4609
 353  437.1629
 354  511.5347
 355  629.3998
 356  633.8964
 357  598.4406
 358  542.9232
 359  561.1104
 360  533.5904
 361  566.788
 362  487.1811
 363  538.3609
 364  448.4157
 365  476.9672
 366  492.153
 367  535.9196
 368  532.3004
 369  512.9824
 370  485.2632
 371  483.2048
 372  486.5571
 373  544.5544
 374  567.9303
 375  612.9989
 376  506.4436
 377  576.0123
 378  602.169
 379  544.1806
 380  442.4333
 381  444.7359
 382  479.7981
 383  507.3585
 384  630.2267
 385  645.8682
 386  505.8091
 387  544.2474
 388  541.679
 389  563.2366
 390  594.4015
 391  529.0758
 392  515.7645
 393  485.9628
 394  462.3067
 395  462.1933
 396  468.7101
 397  553.5744
 398  518.8383
 399  540.1146
 400  605.5878
 401  638.2133
 402  626.3014
 403  622.7573
 404  645.0408
 405  651.4969
 406  647.7476
 407  613.7828
 408  538.9976
 409  488.9245
 410  542.3018
 411  581.3898
 412  578.6059
 413  622.9789
 414  562.5269
 415  458.3956
 416  598.4391
 417  589.3162
 418  475.6263
 419  593.014
 420  655.6241
 421  620.0745
 422  719.6788
 423  666.1776
 424  557.0579
 425  564.5933
 426  607.6025
 427  589.2775
 428  570.8964
 429  527.6367
 430  554.0417
 431  548.6058
 432  569.8504
 433  529.0974
 434  564.1237
 435  604.4651
 436  565.801
 437  491.0876
 438  448.3482
 439  475.1698
 440  429.0249
 441  439.9792
 442  618.762
 443  565.1697
 444  559.5082
 445  598.1458
 446  579.137
 447  512.4008
 448  515.6151
 449  531.8015
 450  569.0682
 451  518.955
 452  602.0712
 453  495.028
 454  607.4028
 455  624.2014
 456  528.7964
 457  562.8949
 458  555.1299
 459  550.9516
 460  558.8201
 461  510.7111
 462  438.7432
 463  552.9312
 464  555.6588
 465  524.9675
 466  564.9139
 467  573.9996
 468  502.7321
 469  516.3968
 470  557.8726
 471  675.4208
 472  664.4719
 473  653.2065
 474  564.5236
 475  556.8818
 476  632.8203
 477  640.195
 478  619.8099
 479  630.1784
 480  578.9317
 481  529.0664
 482  595.8112
 483  541.485
 484  528.6774
 485  675.6077
 486  588.6653
 487  623.9005
 488  737.3792
 489  715.9699
 490  650.9567
 491  734.0784
 492  712.7396
 493  816.7497
 494  801.9251
 495  722.2256
 496  692.4546
 497  780.9738
 498  797.9469
 499  690.833
 500  683.9261
 501  678.3424
 502  652.2396
 503  496.0385
 504  530.3414
 505  548.3668
 506  526.6879
 507  661.4674
 508  710.0049
 509  684.1155
 510  688.0198
 511  620.4777
