# Input file       =  1208685322.118577_cleaned.dat
# Candidate        =  PSR_0332+5434
# Telescope        =  AR
# Epoch_topo       =  58233.413670353897
# Epoch_bary       =  N/A
# T_sample         =  0.002
# Data Folded      =  7340032
# Data Avg         =  0.375133967442836
# Data StdDev      =  6.75019902592038 
# Profile Bins     =  512
# Profile Avg      =  5378.19804985281 
# Profile StdDev   =  808.221825520936 
# Reduced chi-sqr  =  0.869
# Prob(Noise)      <  0.985   (~0.0 sigma)
# P_topo (ms)      =  714.55165153987   +/- 0.000866
# P'_topo (s/s)    =  -0                +/- 4.57e-10
# P''_topo (s/s^2) =  0                 +/- 2.02e-13
# P_bary (ms)      =  N/A
# P'_bary (s/s)    =  N/A
# P''_bary (s/s^2) =  N/A
# P_orb (s)        =  N/A
# asin(i)/c (s)    =  N/A
# eccentricity     =  N/A
# w (rad)          =  N/A
# T_peri           =  N/A
######################################################
   0  6005.445
   1  5766.329
   2  5698.911
   3  5603.79
   4  5359.125
   5  4723.472
   6  5003.465
   7  5470.222
   8  4989.127
   9  5090.573
  10  4929.212
  11  4839.983
  12  4789.498
  13  4922.731
  14  4983.294
  15  5218.339
  16  5161.391
  17  5227.345
  18  4990.979
  19  4834.867
  20  5119.807
  21  5192.911
  22  5112.947
  23  4930.642
  24  5122.104
  25  4874.523
  26  5106.459
  27  5375.746
  28  5304.825
  29  5237.009
  30  5003.78
  31  4863.096
  32  4765.426
  33  4849.154
  34  4964.679
  35  5323.754
  36  5198.873
  37  4785.726
  38  4650.035
  39  4632.448
  40  4689.005
  41  4731.597
  42  4478.53
  43  4689.786
  44  4562.46
  45  4870.534
  46  4515.354
  47  4437.591
  48  4780.011
  49  4806.777
  50  4883.55
  51  4947.616
  52  5119.617
  53  5393.876
  54  5234.957
  55  4971.124
  56  4772.422
  57  4964.682
  58  5304.307
  59  5216.905
  60  5352.648
  61  5715.816
  62  5504.321
  63  5760.483
  64  5803.635
  65  5388.616
  66  5458.73
  67  5781.43
  68  5724.379
  69  5527.681
  70  5241.833
  71  5498.661
  72  5665.27
  73  5488.939
  74  5458.253
  75  5323.692
  76  5216.896
  77  5288.448
  78  5939.954
  79  5998.861
  80  5743.663
  81  5542.842
  82  5351.459
  83  5166.11
  84  5520.945
  85  5724.75
  86  5822.987
  87  5668.771
  88  5423.9
  89  5338.701
  90  5599.439
  91  5936.285
  92  5996.264
  93  5992.684
  94  5791.106
  95  5791.265
  96  5508.701
  97  5610.199
  98  5418.369
  99  5488.667
 100  5780.745
 101  5467.703
 102  5217.086
 103  5496.727
 104  5586.522
 105  5492.571
 106  5406.06
 107  5493.226
 108  5474.708
 109  5508.688
 110  4990.47
 111  5036.123
 112  5403.72
 113  5216.255
 114  5172.313
 115  5069.777
 116  5071.462
 117  4917.088
 118  5231.807
 119  5323.812
 120  5157.256
 121  4910.936
 122  4812.541
 123  4918.705
 124  4911.523
 125  5021.301
 126  5190.167
 127  5341.777
 128  5039.009
 129  4984.854
 130  5202.573
 131  4818.463
 132  5227.408
 133  5355.77
 134  5159.938
 135  5564.126
 136  5560.605
 137  5620.111
 138  5975.258
 139  5698.129
 140  5404.053
 141  4847.999
 142  5081.176
 143  5362.845
 144  5268.887
 145  5317.282
 146  5554.579
 147  5401.113
 148  5667.504
 149  5540.788
 150  5459.711
 151  4930.975
 152  5193.91
 153  5162.924
 154  5428.211
 155  5609.675
 156  5228.109
 157  5367.864
 158  5188.7
 159  5002.002
 160  4844.493
 161  5084.743
 162  5073.931
 163  5159.815
 164  5321.321
 165  5157.587
 166  4906.125
 167  4898.069
 168  5317.7
 169  5097.13
 170  5562.858
 171  5715.134
 172  5143.001
 173  5288.827
 174  5264.792
 175  5557.643
 176  5986.054
 177  5253
 178  5080.55
 179  5172.907
 180  5214.676
 181  4999.415
 182  5170.04
 183  5251.712
 184  5291.694
 185  4865.461
 186  4798.499
 187  4696.922
 188  4379.434
 189  4676.944
 190  4815.378
 191  4299.52
 192  4499.822
 193  4914.663
 194  4480.772
 195  4365.3
 196  4698.101
 197  5069.932
 198  4863.125
 199  4554.273
 200  4864.622
 201  5133.919
 202  5209.619
 203  5305.507
 204  5709.683
 205  5474.592
 206  5450.089
 207  5590.873
 208  5490.126
 209  5368.643
 210  5416.316
 211  5434.171
 212  5328.444
 213  5357.246
 214  5693.928
 215  5505.23
 216  5062.646
 217  4766.978
 218  5239.202
 219  5150.959
 220  4974.854
 221  4866.469
 222  5171.96
 223  5363.505
 224  5092.095
 225  5281.769
 226  5075.239
 227  5294.518
 228  5310.233
 229  5186.123
 230  5064.665
 231  5042.439
 232  4973.849
 233  5061.6
 234  5193.549
 235  4823.333
 236  5052.917
 237  5106.13
 238  4978.824
 239  5389.869
 240  5254.019
 241  5198.377
 242  5097.133
 243  5205.051
 244  5671.158
 245  5714.145
 246  5592.002
 247  5429.693
 248  5173.803
 249  5538.375
 250  5532.372
 251  5017.149
 252  5360.912
 253  5447.657
 254  5420.342
 255  5577.065
 256  5739.947
 257  5634.53
 258  5798.098
 259  5702.343
 260  6076.342
 261  6185.438
 262  6323.325
 263  6447.405
 264  6374.949
 265  6517.844
 266  6230.832
 267  6088.984
 268  6114.262
 269  6240.222
 270  6188.997
 271  6061.499
 272  6416.34
 273  6026.269
 274  5803.057
 275  5880.193
 276  5981.456
 277  5765.875
 278  6093.005
 279  6273.3
 280  6206.086
 281  6078.167
 282  5918.918
 283  5790.773
 284  5873.818
 285  6299.862
 286  5877.935
 287  5570.806
 288  5828.048
 289  5932.508
 290  5499.511
 291  5815.849
 292  5740.123
 293  5457.266
 294  5537.104
 295  5709.506
 296  5582.604
 297  5079.978
 298  5391.916
 299  5523.295
 300  5736.708
 301  5811.418
 302  5771.734
 303  5409.357
 304  5437.726
 305  5650.753
 306  6175.605
 307  6010.43
 308  5671.362
 309  5504.802
 310  5722.558
 311  5828.154
 312  6075.716
 313  6078.522
 314  6110.315
 315  5703.776
 316  5602.994
 317  5577.572
 318  5586.299
 319  5572.758
 320  5642.008
 321  5696.718
 322  5556.58
 323  5638.771
 324  5315.458
 325  5372.418
 326  5964.286
 327  5926.007
 328  5970.237
 329  5969.774
 330  6085.592
 331  6131.605
 332  5998.866
 333  6093.584
 334  6009.79
 335  6392.038
 336  6129.379
 337  6042.515
 338  5772.377
 339  6216.579
 340  5912.115
 341  5699.61
 342  5686.994
 343  5633.021
 344  5805.107
 345  6225.797
 346  6016.001
 347  5893.72
 348  5841.163
 349  6174.865
 350  6073.348
 351  5881.667
 352  6015.427
 353  6289.822
 354  6293.715
 355  5925.411
 356  5824.401
 357  5978.402
 358  5917.224
 359  6030.151
 360  5845.941
 361  5869.851
 362  5961.369
 363  5897.639
 364  5932.606
 365  5853.831
 366  5925.357
 367  6064.644
 368  5758.15
 369  5145.001
 370  4894.819
 371  5309.636
 372  5397.193
 373  5463.998
 374  5311.223
 375  5587.661
 376  5757.499
 377  5328.549
 378  5094.522
 379  5627.374
 380  5892.066
 381  5760.655
 382  5996.145
 383  6219.845
 384  5601.462
 385  5337.319
 386  5408.879
 387  5804.987
 388  5692.602
 389  5793.671
 390  5509.748
 391  5224.437
 392  5173.847
 393  5072.466
 394  5268.365
 395  5356.887
 396  4971.534
 397  4886.813
 398  4884.321
 399  4882.979
 400  4947.521
 401  5049.757
 402  4849.696
 403  4739.586
 404  4588.798
 405  4681.495
 406  4636.955
 407  4788.034
 408  4717.939
 409  4542.713
 410  4602.122
 411  4231.371
 412  4234.801
 413  4583.755
 414  4676.395
 415  4629.148
 416  4592.061
 417  4637.14
 418  4372.761
 419  4442.416
 420  4077.238
 421  4712.798
 422  4517.286
 423  4296.141
 424  4498.641
 425  4557.363
 426  4672.547
 427  4471.692
 428  4689.732
 429  4749.273
 430  4194.204
 431  4177.549
 432  4671.805
 433  4472.472
 434  4258.274
 435  3976.8
 436  3933.174
 437  3927.994
 438  4701.753
 439  4689.044
 440  4628.892
 441  4506.149
 442  4511.573
 443  4985.526
 444  4540.756
 445  4371.621
 446  4560.616
 447  4797.708
 448  5328.992
 449  4773.915
 450  4587.163
 451  4891.291
 452  4745.902
 453  4765.48
 454  5022.472
 455  5352.468
 456  5087.039
 457  4779.964
 458  4733.562
 459  4846.288
 460  5146.941
 461  5314.354
 462  5231.431
 463  5072.775
 464  4826.819
 465  5345.484
 466  5577.28
 467  5391.513
 468  5782.569
 469  5844.925
 470  5486.924
 471  5584.509
 472  5645.712
 473  5708.696
 474  5428.853
 475  6000.269
 476  6151.393
 477  6695.058
 478  7133.378
 479  6653.195
 480  5981.283
 481  5664.512
 482  5923.993
 483  6258.242
 484  6016.335
 485  6226.523
 486  6238.839
 487  6046.786
 488  5513.842
 489  5583.867
 490  5803.042
 491  5905.589
 492  5872.324
 493  6115.22
 494  6629.901
 495  6949.54
 496  7671.29
 497  7666.256
 498  7447.585
 499  6444.403
 500  5423.956
 501  5071.399
 502  4965.085
 503  4842.181
 504  5365.004
 505  5261.122
 506  5669.098
 507  5825.668
 508  5814.033
 509  5601.735
 510  5702.476
 511  6289.613
