# Input file       =  1208412144.103333_cleaned.dat
# Candidate        =  PSR_0332+5434
# Telescope        =  AR
# Epoch_topo       =  58230.251887770057
# Epoch_bary       =  N/A
# T_sample         =  0.002
# Data Folded      =  7208960
# Data Avg         =  0.185576397553086
# Data StdDev      =  5.0116713571993  
# Profile Bins     =  1024
# Profile Avg      =  1306.48593291954 
# Profile StdDev   =  420.502821084123 
# Reduced chi-sqr  =  1.438
# Prob(Noise)      <  1.05e-18   (~8.8 sigma)
# P_topo (ms)      =  714.554314435855  +/- 2.89e-05
# P'_topo (s/s)    =  -0                +/- 1.55e-11
# P''_topo (s/s^2) =  0                 +/- 6.99e-15
# P_bary (ms)      =  N/A
# P'_bary (s/s)    =  N/A
# P''_bary (s/s^2) =  N/A
# P_orb (s)        =  N/A
# asin(i)/c (s)    =  N/A
# eccentricity     =  N/A
# w (rad)          =  N/A
# T_peri           =  N/A
######################################################
   0  951.1765
   1  1135.823
   2  1407.765
   3  1516.235
   4  1479.113
   5  1326.89
   6  1318.842
   7  1246.179
   8  1086.641
   9  936.0269
  10  915.3742
  11  1110.481
  12  1119.722
  13  1183.541
  14  1218.325
  15  1182.98
  16  1268.245
  17  1370.122
  18  1619.846
  19  1788.939
  20  1744.313
  21  1758.422
  22  1534.911
  23  1443.085
  24  1312.436
  25  1295.656
  26  1208.825
  27  1148.453
  28  1159.01
  29  1326.27
  30  1263.157
  31  1238.105
  32  1202.583
  33  1368.945
  34  1514.75
  35  1523.685
  36  1466.836
  37  1478.891
  38  1538.985
  39  1525.334
  40  1230.867
  41  929.0205
  42  948.9139
  43  978.7222
  44  1102.869
  45  1073.128
  46  1192.857
  47  1177.439
  48  1225.246
  49  1298.01
  50  1329.262
  51  1446.219
  52  1612
  53  1853.286
  54  1850.635
  55  1870.877
  56  1705.224
  57  1637.969
  58  1362.556
  59  1222.953
  60  1239.771
  61  1429.499
  62  1505.026
  63  1376.092
  64  1280.328
  65  1242.537
  66  1254.746
  67  1258.66
  68  1355.679
  69  1368.793
  70  1449.536
  71  1342.572
  72  1314.865
  73  1077.658
  74  1076.254
  75  1117.18
  76  1028.849
  77  956.7905
  78  998.5463
  79  1049.251
  80  969.0625
  81  850.2477
  82  1024.991
  83  1217.227
  84  1444.751
  85  1626.46
  86  1722.306
  87  1667.893
  88  1703.625
  89  1658.559
  90  1516.535
  91  1194.137
  92  1198.324
  93  1359.609
  94  1511.757
  95  1402.874
  96  1361.49
  97  1372.585
  98  1375.828
  99  1262.048
 100  1269.621
 101  1316.152
 102  1366.574
 103  1402.454
 104  1297.891
 105  1089.199
 106  868.9753
 107  726.8255
 108  681.1652
 109  743.4925
 110  964.263
 111  1234.705
 112  1193.396
 113  1130.347
 114  1153.007
 115  1318.216
 116  1386.886
 117  1391.395
 118  1435
 119  1418.557
 120  1343.686
 121  1268.878
 122  1216.322
 123  1219.454
 124  1166.958
 125  1333.173
 126  1389.533
 127  1358.487
 128  1213.07
 129  1172.465
 130  1319.052
 131  1436.108
 132  1357.875
 133  1259.431
 134  1210.838
 135  1326.061
 136  1400.737
 137  1336.799
 138  1168.518
 139  1051.285
 140  947.9651
 141  790.8498
 142  633.4463
 143  685.7766
 144  936.0431
 145  1036.254
 146  1096.987
 147  1059.333
 148  1219.041
 149  1379.59
 150  1582.154
 151  1644.043
 152  1544.33
 153  1468.178
 154  1441.493
 155  1224.421
 156  1028.967
 157  895.5242
 158  1159.087
 159  1319.144
 160  1303.438
 161  1314.651
 162  1282.117
 163  1259.787
 164  1197.504
 165  1352.96
 166  1427.13
 167  1502.482
 168  1404.004
 169  1273.547
 170  1093.74
 171  880.9432
 172  761.1319
 173  645.5591
 174  549.1554
 175  696.4413
 176  1061.413
 177  1355.015
 178  1189.333
 179  1034.917
 180  1006.498
 181  1231.197
 182  1343.554
 183  1433.668
 184  1566.923
 185  1655.847
 186  1665.378
 187  1536.426
 188  1419.659
 189  1218.055
 190  1136.505
 191  1234.526
 192  1341.066
 193  1279.588
 194  1217.978
 195  1215.908
 196  1254.954
 197  1137.071
 198  1128.465
 199  1109.529
 200  1226.058
 201  1269.603
 202  1346.199
 203  1397.58
 204  1348.125
 205  1303.683
 206  1078.28
 207  934.6675
 208  967.9211
 209  1048.907
 210  1083.422
 211  991.8972
 212  1047.823
 213  1257.835
 214  1311.994
 215  1409.56
 216  1471.612
 217  1738.673
 218  1828.607
 219  1826.34
 220  1577.87
 221  1327.544
 222  1180.767
 223  1338.781
 224  1362.458
 225  1303.369
 226  1256.681
 227  1335.226
 228  1306.637
 229  1259.839
 230  1354.34
 231  1478.577
 232  1410.736
 233  1586.346
 234  1730.14
 235  1687.661
 236  1325.598
 237  1162.885
 238  1133.571
 239  923.6611
 240  789.0275
 241  825.8876
 242  1012.296
 243  1036.128
 244  1082.5
 245  1159.986
 246  1218.488
 247  1277.962
 248  1453.561
 249  1588.079
 250  1754.432
 251  1762.793
 252  1757.982
 253  1605.031
 254  1509.999
 255  1336.542
 256  1283.44
 257  1069.34
 258  1207.529
 259  1326.952
 260  1468.782
 261  1449.154
 262  1369.54
 263  1436.022
 264  1290.835
 265  1266.069
 266  1383.392
 267  1483.474
 268  1563.128
 269  1618.606
 270  1568.78
 271  1288.063
 272  915.5237
 273  951.8297
 274  1111.918
 275  1208.558
 276  1271.117
 277  1327.073
 278  1380.422
 279  1248.103
 280  1167.924
 281  1210.47
 282  1247.038
 283  1261.902
 284  1315.298
 285  1277.255
 286  1216.946
 287  1188.807
 288  1161.097
 289  1146.978
 290  1010.79
 291  1134.202
 292  1289.272
 293  1236.941
 294  1120.038
 295  1107.018
 296  1278.821
 297  1188.882
 298  1106.655
 299  1114.85
 300  1301.559
 301  1244.654
 302  1201.479
 303  1002.713
 304  845.1218
 305  748.1796
 306  842.066
 307  971.7271
 308  1012.642
 309  1072.887
 310  1119.867
 311  1134.158
 312  1191.363
 313  1204.6
 314  1351.129
 315  1516.416
 316  1599.588
 317  1491.558
 318  1401.197
 319  1350.999
 320  1286.764
 321  1180.256
 322  1047.399
 323  1042.658
 324  1140.523
 325  1219.087
 326  1177.869
 327  1159.535
 328  1206.495
 329  1304.137
 330  1205.292
 331  1189.96
 332  1084.494
 333  1267.669
 334  1269.601
 335  1289.963
 336  1086.304
 337  919.8024
 338  820.5119
 339  786.0521
 340  851.3678
 341  934.6675
 342  1020.345
 343  1032.703
 344  962.9443
 345  929.0951
 346  1075.551
 347  1395.801
 348  1606.821
 349  1552.276
 350  1504.264
 351  1497.71
 352  1649.684
 353  1622.766
 354  1519.041
 355  1316.703
 356  1366.75
 357  1422.937
 358  1474.291
 359  1371.603
 360  1365.565
 361  1331.598
 362  1227.705
 363  1269.493
 364  1366.528
 365  1581.096
 366  1596.418
 367  1630.527
 368  1502.829
 369  1347.208
 370  1175.686
 371  1062.626
 372  969.407
 373  909.1736
 374  876.2886
 375  883.1489
 376  935.9863
 377  1048.49
 378  1078.222
 379  1231.587
 380  1435.943
 381  1655.689
 382  1811.851
 383  1918.757
 384  1854.735
 385  1803.667
 386  1667.189
 387  1485.276
 388  1245.701
 389  1272.566
 390  1271.298
 391  1243.106
 392  1123.027
 393  1327.552
 394  1444.994
 395  1413.039
 396  1456.481
 397  1396.181
 398  1575.909
 399  1686.874
 400  1803.865
 401  1707.007
 402  1476.259
 403  1442.149
 404  1322.478
 405  1158.244
 406  1161.717
 407  1222.604
 408  1371.91
 409  1355.746
 410  1445.028
 411  1546.057
 412  1517.9
 413  1566.142
 414  1675.089
 415  1672.916
 416  1713.826
 417  1724.475
 418  1914.659
 419  1679.561
 420  1411.479
 421  1497.927
 422  1657.453
 423  1727.741
 424  1650.957
 425  1770.132
 426  1842.035
 427  1731.455
 428  1632.095
 429  1718.411
 430  1784.703
 431  1700.76
 432  1699.813
 433  1702.742
 434  1671.227
 435  1496.12
 436  1388.893
 437  1321.693
 438  1291.282
 439  1359.912
 440  1315.104
 441  1275.842
 442  1250.604
 443  1393.277
 444  1442.63
 445  1423.547
 446  1484.145
 447  1766.558
 448  1935.252
 449  2016.683
 450  1933.732
 451  1905.525
 452  1781.481
 453  1703.879
 454  1688.274
 455  1531.344
 456  1480.122
 457  1347.913
 458  1471.962
 459  1433.449
 460  1450.297
 461  1410.524
 462  1419.133
 463  1478.413
 464  1660.112
 465  1747.053
 466  1660.45
 467  1508.827
 468  1407.461
 469  1131.675
 470  896.5142
 471  948.5883
 472  1172.542
 473  1215.582
 474  1268.771
 475  1318.598
 476  1374.167
 477  1227.234
 478  1134
 479  1322.206
 480  1619.49
 481  1981.89
 482  1939.774
 483  1850.944
 484  1671.786
 485  1537.009
 486  1424.503
 487  1565.796
 488  1620.877
 489  1625.755
 490  1572.073
 491  1622.16
 492  1489.159
 493  1410.097
 494  1451.86
 495  1511.192
 496  1451.586
 497  1340.737
 498  1375.891
 499  1390.38
 500  1521.214
 501  1506.967
 502  1277.036
 503  913.8615
 504  898.5864
 505  917.28
 506  1106.758
 507  1112.558
 508  1113.162
 509  1138.265
 510  1097.123
 511  1123.395
 512  1297.073
 513  1549.309
 514  1654.318
 515  1585.867
 516  1648.042
 517  1602.191
 518  1504.097
 519  1359.977
 520  1220.024
 521  1143.877
 522  1180.387
 523  1356.892
 524  1459.968
 525  1363
 526  1372.188
 527  1298.549
 528  1281.658
 529  1260.927
 530  1414.935
 531  1525.263
 532  1729.385
 533  1742.547
 534  1637.824
 535  1326.521
 536  1178.215
 537  1055.913
 538  940.9452
 539  976.7567
 540  1111.427
 541  1360.671
 542  1369.218
 543  1416.333
 544  1439.793
 545  1570.212
 546  1689.743
 547  1819.237
 548  1773.08
 549  1791.801
 550  1481.316
 551  1337.204
 552  1114.386
 553  1182.496
 554  1198.682
 555  1267.779
 556  1302.557
 557  1274.576
 558  1372.381
 559  1605.486
 560  1778.712
 561  1736.68
 562  1717.204
 563  1583.554
 564  1575.77
 565  1471.583
 566  1560.557
 567  1546.31
 568  1275.746
 569  1128.948
 570  917.6988
 571  1031.438
 572  1178.225
 573  1267.286
 574  1380.028
 575  1048.77
 576  1072.346
 577  1117.394
 578  1419.88
 579  1540.987
 580  1621.57
 581  1614.354
 582  1586.054
 583  1541.939
 584  1560.996
 585  1544.967
 586  1400.17
 587  1387.439
 588  1349.777
 589  1352.71
 590  1323.584
 591  1501.879
 592  1671.53
 593  1735.077
 594  1751.682
 595  1798.24
 596  1996.59
 597  2214.338
 598  2481.055
 599  2700.805
 600  2703.478
 601  2525.138
 602  2229.243
 603  1970.429
 604  1802.683
 605  1812.87
 606  1793.968
 607  1770.551
 608  1571.474
 609  1477.892
 610  1367.059
 611  1460.07
 612  1620.171
 613  1799.455
 614  1958.046
 615  1866.995
 616  1846.466
 617  1665.424
 618  1542.95
 619  1445.836
 620  1588.943
 621  1540.893
 622  1486.208
 623  1338.194
 624  1462.324
 625  1395.105
 626  1331.931
 627  1428.254
 628  1615.201
 629  1647.113
 630  1626.949
 631  1696.843
 632  1752.926
 633  1537.71
 634  1326.911
 635  1150.979
 636  1116.284
 637  1073.903
 638  1045.007
 639  1024.3
 640  1079.605
 641  1159.099
 642  1310.39
 643  1339.859
 644  1407.854
 645  1375.556
 646  1497.646
 647  1610.622
 648  1617.591
 649  1463.675
 650  1300.563
 651  1226.671
 652  1262.971
 653  1288.107
 654  1170.65
 655  1073.729
 656  1141.282
 657  1291.349
 658  1240.215
 659  1093.886
 660  991.3286
 661  977.9075
 662  1187.294
 663  1331.282
 664  1422.772
 665  1384.547
 666  1374.401
 667  1175.91
 668  904.0421
 669  811.0789
 670  905.127
 671  996.2658
 672  1027.201
 673  1018.653
 674  1057.75
 675  1089.45
 676  1186.524
 677  1260.271
 678  1392.536
 679  1547.07
 680  1567.895
 681  1590.141
 682  1557.34
 683  1445.458
 684  1365.865
 685  1349.577
 686  1339.462
 687  1285.506
 688  1310.83
 689  1349.468
 690  1274.553
 691  1205.87
 692  1235.382
 693  1149.012
 694  1270.883
 695  1358.554
 696  1593.731
 697  1465.306
 698  1327.977
 699  1181.494
 700  928.4697
 701  691.3688
 702  631.5891
 703  570.1885
 704  662.1503
 705  761.4651
 706  923.8818
 707  1170.989
 708  1167.704
 709  1195.984
 710  1154.894
 711  1444.48
 712  1808.711
 713  1855.297
 714  1634.378
 715  1431.921
 716  1318.031
 717  1316.812
 718  1189.806
 719  1056.24
 720  1030.441
 721  1025.056
 722  1204.231
 723  1255.169
 724  1338.99
 725  1310.042
 726  1236.074
 727  1126.428
 728  1171.025
 729  1324.172
 730  1343.824
 731  1248.673
 732  1067.867
 733  1032.555
 734  949.0499
 735  930.9321
 736  687.6542
 737  723.1303
 738  815.2087
 739  1051.342
 740  1016.749
 741  1056.404
 742  1149.918
 743  1206.341
 744  1265.129
 745  1365.354
 746  1544.04
 747  1787.451
 748  1890.961
 749  1853.732
 750  1584.06
 751  1306.29
 752  1156.822
 753  1107.239
 754  1125.193
 755  952.0017
 756  879.8145
 757  1030.309
 758  1306.395
 759  1381.113
 760  1244.547
 761  1178.405
 762  1322.829
 763  1524.55
 764  1471.445
 765  1321.543
 766  1053.701
 767  1027.294
 768  945.9926
 769  880.275
 770  861.6652
 771  796.5687
 772  885.0204
 773  905.1866
 774  1057.326
 775  1060.599
 776  1091.063
 777  1233.284
 778  1503.283
 779  1673.966
 780  1706.685
 781  1425.58
 782  1248.971
 783  1129.457
 784  1137.732
 785  1233.376
 786  1229.951
 787  1182.454
 788  1048.382
 789  988.1177
 790  1124.814
 791  1149.118
 792  1174.894
 793  1217.924
 794  1438.641
 795  1692.456
 796  1660.12
 797  1452.214
 798  1223.845
 799  1143.51
 800  1024.103
 801  898.876
 802  1052.43
 803  1191.538
 804  1281.664
 805  1095.863
 806  990.3804
 807  896.6133
 808  1033.166
 809  1306.012
 810  1406.474
 811  1493.74
 812  1502.657
 813  1569.404
 814  1367.116
 815  1249.503
 816  1045.613
 817  1022.028
 818  1000.437
 819  1097.052
 820  1040.105
 821  999.0737
 822  1134.261
 823  1166.195
 824  1251.563
 825  1265.836
 826  1365.074
 827  1465.706
 828  1520.658
 829  1614.603
 830  1416.557
 831  1258.105
 832  1118.607
 833  976.1501
 834  868.4437
 835  836.0341
 836  862.3977
 837  953.488
 838  972.4633
 839  1068.477
 840  1104.783
 841  1138.509
 842  1220.254
 843  1290.338
 844  1486.16
 845  1649.965
 846  1750.401
 847  1648.588
 848  1389.571
 849  1258.178
 850  1287.688
 851  1371.992
 852  1353.252
 853  1187.77
 854  1296.992
 855  1362.265
 856  1263.15
 857  1121.646
 858  1070.25
 859  1292.09
 860  1390.584
 861  1431.291
 862  1457.304
 863  1316.094
 864  1225.511
 865  1221.951
 866  1155.844
 867  1033.065
 868  880.4068
 869  873.2625
 870  941.7371
 871  970.2153
 872  1055.854
 873  1107.323
 874  1201.286
 875  1348.58
 876  1395.944
 877  1620.975
 878  1793.103
 879  1895.034
 880  1749.664
 881  1453.722
 882  1341.557
 883  1265.243
 884  1218.653
 885  1108.456
 886  999.0817
 887  1055.304
 888  1111.986
 889  1291.226
 890  1344.644
 891  1392.308
 892  1348.299
 893  1466.755
 894  1418.987
 895  1334.413
 896  1227.104
 897  1228.657
 898  1064.28
 899  814.9438
 900  757.8727
 901  860.0178
 902  955.5565
 903  891.0379
 904  845.7934
 905  1013.767
 906  1068.656
 907  1106.709
 908  1114.737
 909  1347.753
 910  1651.402
 911  1708.896
 912  1606.555
 913  1406.373
 914  1342.993
 915  1450.153
 916  1418.944
 917  1370.177
 918  1249.995
 919  1212.986
 920  1175.187
 921  1118.764
 922  1147.713
 923  1194.112
 924  1194.833
 925  1125.413
 926  1166.076
 927  1247.63
 928  1545.35
 929  1569.627
 930  1576.627
 931  1274.226
 932  1056.39
 933  762.0826
 934  631.4915
 935  557.3667
 936  689.8679
 937  804.2437
 938  857.0918
 939  866.7748
 940  936.1775
 941  1060.368
 942  1304.13
 943  1413.64
 944  1605.574
 945  1608.149
 946  1630.732
 947  1586.914
 948  1416.838
 949  1212.835
 950  973.4999
 951  1060.185
 952  1171.936
 953  1276.604
 954  1194.76
 955  1162.164
 956  1181
 957  1216.212
 958  1232.92
 959  1224.019
 960  1395.494
 961  1565.43
 962  1604.081
 963  1416.4
 964  1174.216
 965  972.8763
 966  757.6152
 967  679.9783
 968  693.2577
 969  890.8518
 970  1108.642
 971  1346.265
 972  1396.146
 973  1317.147
 974  1166.802
 975  1278.053
 976  1421.687
 977  1572.726
 978  1542.223
 979  1551.423
 980  1392.629
 981  1182.097
 982  971.1957
 983  988.1689
 984  1099.118
 985  1213.371
 986  1178.779
 987  1256.117
 988  1275.209
 989  1263.347
 990  1219.377
 991  1344.666
 992  1386.246
 993  1577.867
 994  1600.318
 995  1704.2
 996  1436.1
 997  1237.858
 998  951.2548
 999  740.5315
1000  705.9156
1001  808.999
1002  999.0074
1003  891.7825
1004  847.9921
1005  900.4058
1006  1072.063
1007  1285.72
1008  1330.536
1009  1490.214
1010  1606.684
1011  1794.531
1012  1805.017
1013  1737.768
1014  1421.91
1015  1181.004
1016  1068.994
1017  1147.632
1018  1203.045
1019  1148.545
1020  1257.299
1021  1122.532
1022  1022.263
1023  792.094
