# Input file       =  1208857737.106156_cleaned.dat
# Candidate        =  PSR_0332+5434
# Telescope        =  AR
# Epoch_topo       =  58235.409214191619
# Epoch_bary       =  N/A
# T_sample         =  0.002
# Data Folded      =  7340032
# Data Avg         =  0.0461924925398213
# Data StdDev      =  1.00017735465972 
# Profile Bins     =  512
# Profile Avg      =  662.216858034366 
# Profile StdDev   =  119.754271588689 
# Reduced chi-sqr  =  0.964
# Prob(Noise)      <  0.715   (~0.0 sigma)
# P_topo (ms)      =  714.549920831328  +/- 0.000441
# P'_topo (s/s)    =  -0                +/- 2.33e-10
# P''_topo (s/s^2) =  0                 +/- 1.03e-13
# P_bary (ms)      =  N/A
# P'_bary (s/s)    =  N/A
# P''_bary (s/s^2) =  N/A
# P_orb (s)        =  N/A
# asin(i)/c (s)    =  N/A
# eccentricity     =  N/A
# w (rad)          =  N/A
# T_peri           =  N/A
######################################################
   0  1203.237
   1  1137.087
   2  1010.566
   3  838.1562
   4  694.2582
   5  693.7968
   6  608.1134
   7  576.2623
   8  540.0182
   9  580.2621
  10  707.5594
  11  790.4658
  12  806.4761
  13  703.0541
  14  703.3356
  15  754.8267
  16  751.1082
  17  728.5504
  18  751.5811
  19  786.4353
  20  686.4955
  21  643.4435
  22  618.3546
  23  655.9621
  24  755.5666
  25  756.2077
  26  673.1143
  27  623.0596
  28  686.6662
  29  683.7893
  30  622.3124
  31  620.11
  32  624.7847
  33  663.8187
  34  629.0765
  35  650.481
  36  682.9022
  37  688.833
  38  638.6393
  39  653.0566
  40  599.3607
  41  655.5596
  42  602.9248
  43  505.3365
  44  512.8583
  45  552.1261
  46  590.5744
  47  660.5844
  48  638.653
  49  657.0267
  50  616.0379
  51  595.6661
  52  592.9518
  53  555.9923
  54  627.356
  55  688.3408
  56  648.9406
  57  582.5608
  58  571.642
  59  593.8331
  60  569.3741
  61  598.8264
  62  568.0089
  63  604.1821
  64  683.7715
  65  677.0246
  66  598.3776
  67  539.1702
  68  545.1826
  69  595.1802
  70  592.9109
  71  722.243
  72  670.2391
  73  578.1079
  74  533.6484
  75  557.1438
  76  581.2753
  77  666.2949
  78  682.1486
  79  671.8589
  80  616.1952
  81  598.7493
  82  642.4188
  83  660.3317
  84  711.0424
  85  704.9879
  86  709.5651
  87  713.6079
  88  667.2172
  89  662.6426
  90  645.8998
  91  622.072
  92  663.4879
  93  689.5165
  94  676.1481
  95  571.1527
  96  643.0055
  97  711.6852
  98  747.0179
  99  782.1114
 100  693.1885
 101  660.1504
 102  662.0344
 103  690.1666
 104  659.5188
 105  688.273
 106  707.6158
 107  639.6708
 108  676.2861
 109  550.5613
 110  548.8948
 111  648.8968
 112  611.7908
 113  561.5168
 114  629.5057
 115  620.6297
 116  596.9469
 117  491.5312
 118  519.122
 119  525.9726
 120  584.2819
 121  699.8332
 122  667.921
 123  659.6975
 124  664.2419
 125  630.3481
 126  620.4561
 127  683.554
 128  632.5646
 129  676.6899
 130  708.1107
 131  724.5601
 132  620.6913
 133  593.5846
 134  610.3269
 135  570.097
 136  514.6443
 137  512.3016
 138  467.7463
 139  614.2672
 140  652.5213
 141  646.9238
 142  701.1831
 143  625.0379
 144  549.4493
 145  563.5052
 146  587.4412
 147  586.2637
 148  578.5785
 149  634.2752
 150  598.928
 151  595.5814
 152  578.0606
 153  575.045
 154  605.416
 155  671.9215
 156  600.4159
 157  660.5449
 158  634.3922
 159  655.9913
 160  675.1104
 161  649.7238
 162  700.0901
 163  712.4348
 164  708.1383
 165  681.865
 166  715.9971
 167  742.177
 168  777.3371
 169  678.4857
 170  670.6309
 171  625.5968
 172  654.8527
 173  638.7676
 174  574.7739
 175  543.4261
 176  614.4056
 177  543.4879
 178  494.7036
 179  479.5027
 180  553.3348
 181  554.3204
 182  539.2741
 183  535.5739
 184  460.9046
 185  501.2477
 186  545.3683
 187  525.3403
 188  491.3389
 189  539.7437
 190  568.2975
 191  583.2897
 192  639.0842
 193  673.1818
 194  609.4569
 195  536.0536
 196  566.695
 197  599.936
 198  638.3881
 199  641.2177
 200  618.2888
 201  662.886
 202  695.2811
 203  669.5439
 204  651.8317
 205  723.4117
 206  655.244
 207  679.9374
 208  689.9198
 209  709.6355
 210  691.4114
 211  632.6174
 212  669.5706
 213  655.558
 214  722.6901
 215  726.7382
 216  759.5585
 217  721.2957
 218  729.0797
 219  713.4374
 220  676.7985
 221  656.9385
 222  640.1391
 223  673.0412
 224  685.6838
 225  605.4514
 226  645.2207
 227  689.436
 228  713.0242
 229  752.9094
 230  723.4367
 231  605.9316
 232  644.1061
 233  662.2469
 234  716.0562
 235  681.0153
 236  645.9143
 237  692.4741
 238  675.6
 239  754.2103
 240  759.6817
 241  717.3963
 242  721.719
 243  722.9273
 244  743.1118
 245  731.4589
 246  763.0261
 247  793.0592
 248  795.1236
 249  757.2593
 250  767.4434
 251  743.6254
 252  685.828
 253  653.3239
 254  712.4243
 255  657.0642
 256  625.4615
 257  672.6125
 258  703.3843
 259  750.9536
 260  721.8137
 261  654.5041
 262  659.0499
 263  640.327
 264  663.1782
 265  687.3067
 266  636.6348
 267  666.002
 268  726.2649
 269  785.6542
 270  721.639
 271  711.7959
 272  639.7462
 273  652.5153
 274  693.4353
 275  696.5935
 276  739.0695
 277  766.0778
 278  676.7336
 279  609.019
 280  649.6775
 281  697.3524
 282  655.4252
 283  660.2027
 284  713.851
 285  650.4717
 286  648.7828
 287  756.4462
 288  765.7784
 289  735.082
 290  778.3782
 291  783.8343
 292  748.0392
 293  748.3273
 294  776.3265
 295  722.6791
 296  632.5485
 297  677.3802
 298  660.6657
 299  618.5904
 300  678.2758
 301  651.0287
 302  705.7257
 303  682.6251
 304  658.4554
 305  735.4085
 306  661.6533
 307  621.3266
 308  694.3051
 309  658.5792
 310  698.5797
 311  729.0552
 312  718.3781
 313  788.225
 314  746.936
 315  677.4322
 316  707.7685
 317  661.2748
 318  704.4641
 319  635.6027
 320  664.9973
 321  678.981
 322  709.722
 323  756.817
 324  746.2757
 325  646.9741
 326  650.2667
 327  623.0021
 328  510.7133
 329  554.0662
 330  641.3243
 331  653.3784
 332  653.4226
 333  647.2554
 334  630.8918
 335  592.4559
 336  637.4609
 337  684.5145
 338  666.7131
 339  645.7424
 340  658.2669
 341  623.1474
 342  698.2674
 343  717.84
 344  813.8867
 345  766.2361
 346  655.6814
 347  652.6161
 348  664.95
 349  685.4182
 350  707.0421
 351  808.5103
 352  780.9725
 353  716.6407
 354  688.9669
 355  704.5693
 356  688.6498
 357  631.5105
 358  649.0454
 359  637.0923
 360  603.5542
 361  533.4808
 362  556.702
 363  501.4127
 364  515.3853
 365  481.3976
 366  579.1328
 367  609.1769
 368  520.634
 369  551.6435
 370  613.184
 371  580.4313
 372  541.1926
 373  560.5891
 374  637.4017
 375  591.5369
 376  576.1857
 377  586.6738
 378  585.1417
 379  516.2578
 380  566.9211
 381  691.2068
 382  640.6792
 383  621.7687
 384  668.374
 385  718.5441
 386  716.7784
 387  734.6385
 388  703.3677
 389  654.3674
 390  727.4172
 391  727.3757
 392  699.7303
 393  683.8079
 394  648.5518
 395  640.1027
 396  642.3693
 397  684.0009
 398  633.4081
 399  592.111
 400  614.2815
 401  669.8825
 402  664.8765
 403  616.3716
 404  579.3767
 405  596.8649
 406  591.069
 407  652.4935
 408  713.9952
 409  671.1999
 410  591.0344
 411  558.0029
 412  566.4783
 413  598.7067
 414  612.3918
 415  672.5266
 416  721.6727
 417  684.5254
 418  671.012
 419  738.8666
 420  724.3849
 421  692.944
 422  764.9881
 423  873.9113
 424  770.2033
 425  672.6191
 426  663.3301
 427  711.356
 428  739.6694
 429  769.5117
 430  670.9578
 431  697.5653
 432  752.7299
 433  719.6078
 434  712.4142
 435  661.9192
 436  634.0506
 437  646.8359
 438  608.8065
 439  654.6832
 440  638.364
 441  631.7886
 442  630.6819
 443  621.2303
 444  681.2532
 445  649.4053
 446  575.4596
 447  596.6534
 448  657.1378
 449  512.0613
 450  546.5883
 451  601.9702
 452  583.0114
 453  627.9114
 454  661.0453
 455  601.1732
 456  645.5488
 457  722.4502
 458  644.2516
 459  557.709
 460  600.9432
 461  726.6047
 462  689.3247
 463  633.8524
 464  722.5932
 465  696.9111
 466  717.8384
 467  737.2891
 468  724.0122
 469  717.3953
 470  768.4564
 471  733.9901
 472  700.9695
 473  589.5355
 474  657.1873
 475  621.8804
 476  619.885
 477  671.0972
 478  640.4141
 479  671.6782
 480  614.7536
 481  568.1393
 482  557.8304
 483  628.4423
 484  589.3873
 485  586.8902
 486  735.4142
 487  696.5243
 488  645.1749
 489  695.836
 490  749.7922
 491  713.8395
 492  733.3279
 493  776.7316
 494  662.5799
 495  649.4947
 496  672.0406
 497  662.438
 498  671.2964
 499  648.0172
 500  641.9109
 501  687.9731
 502  749.0569
 503  686.5369
 504  747.3377
 505  835.9069
 506  793.6475
 507  804.9004
 508  875.5701
 509  996.1906
 510  1150.291
 511  1187.22
