# Input file       =  1208254407.118015_cleaned.dat
# Candidate        =  PSR_0332+5434
# Telescope        =  AR
# Epoch_topo       =  58228.426228217766
# Epoch_bary       =  N/A
# T_sample         =  0.002
# Data Folded      =  7340032
# Data Avg         =  0.292874024222589
# Data StdDev      =  6.23985733833636 
# Profile Bins     =  256
# Profile Avg      =  8397.42236787588 
# Profile StdDev   =  1056.5830869606  
# Reduced chi-sqr  =  1.629
# Prob(Noise)      <  8.64e-10   (~6.0 sigma)
# P_topo (ms)      =  714.555853517337  +/- 0.000399
# P'_topo (s/s)    =  -0                +/- 2.11e-10
# P''_topo (s/s^2) =  0                 +/- 9.3e-14
# P_bary (ms)      =  N/A
# P'_bary (s/s)    =  N/A
# P''_bary (s/s^2) =  N/A
# P_orb (s)        =  N/A
# asin(i)/c (s)    =  N/A
# eccentricity     =  N/A
# w (rad)          =  N/A
# T_peri           =  N/A
######################################################
   0  8895.471
   1  9899.694
   2  9985.169
   3  10052.22
   4  9710.504
   5  8934.082
   6  9100.319
   7  8481.784
   8  8785.555
   9  8762.225
  10  8681.304
  11  9206.644
  12  9076.138
  13  8931.611
  14  8534.71
  15  9131.181
  16  8392.442
  17  8446.662
  18  8157.197
  19  7606.635
  20  8278.974
  21  8778.495
  22  7869.384
  23  7458.104
  24  7746.205
  25  8187.378
  26  7401.199
  27  8172.042
  28  8084.744
  29  8297.49
  30  8067.568
  31  8494.755
  32  9833.616
  33  9700.656
  34  8668.414
  35  9623.429
  36  9890.101
  37  9511.786
  38  10064.14
  39  9187.196
  40  9243.062
  41  10129.91
  42  8945.636
  43  9236.014
  44  10147.15
  45  9764.79
  46  8933.883
  47  9154.772
  48  9128.367
  49  8792.817
  50  8580.167
  51  8430.692
  52  7964.389
  53  7923.894
  54  8687.387
  55  8428.752
  56  7181.251
  57  6654.454
  58  6863.585
  59  7443.429
  60  6965.754
  61  6264.68
  62  7002.082
  63  6380.544
  64  6390.519
  65  7186.359
  66  7047.914
  67  6815.901
  68  7378.59
  69  7880.157
  70  7166.042
  71  7922.043
  72  7883.726
  73  8030.364
  74  7534.158
  75  7792.425
  76  7431.797
  77  7412.722
  78  6840.168
  79  7042.639
  80  6999.262
  81  6939.806
  82  6878.586
  83  7054.655
  84  5173.383
  85  5670.98
  86  5668.743
  87  5380.698
  88  5515.262
  89  6745.232
  90  5981.024
  91  6838.649
  92  7530.331
  93  7202.296
  94  6483.869
  95  6368.472
  96  6680.551
  97  5699.737
  98  6456.65
  99  6110.901
 100  7228.021
 101  7234.055
 102  7643.08
 103  8352.436
 104  8647.011
 105  8610.589
 106  8572.597
 107  9077.995
 108  8953.744
 109  9694.33
 110  9999.28
 111  10107.54
 112  8928.088
 113  8798.492
 114  8347.712
 115  8258.839
 116  8236.521
 117  7690.694
 118  7409.611
 119  7788.205
 120  7728.543
 121  8403.097
 122  8427.007
 123  9190.85
 124  7660.017
 125  7789.894
 126  7350.444
 127  7520.984
 128  7700.337
 129  7365.04
 130  7896.96
 131  8016.249
 132  8699.497
 133  8863.034
 134  9052.306
 135  8866.174
 136  9580.649
 137  9937.69
 138  10042.17
 139  10067.21
 140  11141.04
 141  10742.03
 142  9879.003
 143  9473.61
 144  10223.6
 145  9881.73
 146  9559.992
 147  9859.722
 148  10565.64
 149  11357.34
 150  12478.34
 151  12701.47
 152  10275.47
 153  9087.01
 154  9627.457
 155  8181.517
 156  8203.252
 157  8730.016
 158  9799.143
 159  9695.071
 160  9090.072
 161  8792.554
 162  8827.643
 163  8391.943
 164  8672.037
 165  8842.976
 166  8759.011
 167  7752.428
 168  7545.121
 169  7592.643
 170  6601.725
 171  7391.467
 172  7228.238
 173  7666.298
 174  7317.095
 175  7697.911
 176  8814.56
 177  8727.819
 178  9507.342
 179  9814.294
 180  10483.39
 181  9544.414
 182  9848.542
 183  9387.698
 184  9539.656
 185  9334.425
 186  8885.124
 187  9742.836
 188  9608.718
 189  9330.358
 190  8853.446
 191  9075.148
 192  8790.245
 193  8806.162
 194  8511.519
 195  8564.022
 196  8499.933
 197  8527.235
 198  8479.045
 199  9882.678
 200  8868.832
 201  9019.896
 202  8696.798
 203  8458.842
 204  8778.284
 205  7795.236
 206  8202.262
 207  8785.286
 208  8567.881
 209  7955.483
 210  9068.619
 211  8850.338
 212  8066.754
 213  8660.682
 214  8988.882
 215  8793.839
 216  9106.252
 217  9270.467
 218  8900.885
 219  8651.141
 220  9011.337
 221  9497.85
 222  9295.343
 223  9301.244
 224  8806.861
 225  9104.608
 226  8174.848
 227  8255.289
 228  7672.933
 229  7944.291
 230  8017.777
 231  8027.659
 232  7285.051
 233  7247.954
 234  7607.954
 235  7214.978
 236  6889.919
 237  6850.155
 238  6510.127
 239  7105.854
 240  6907.515
 241  7231.459
 242  7732.848
 243  8606.318
 244  7925.455
 245  7794.595
 246  7555.679
 247  8763.911
 248  8436.776
 249  7783.302
 250  8259.803
 251  8559.402
 252  8510.474
 253  8800.103
 254  8858.638
 255  9308.643
