# Input file       =  1208355544.109267_cleaned.dat
# Candidate        =  PSR_0332+5434
# Telescope        =  AR
# Epoch_topo       =  58229.596795246143
# Epoch_bary       =  N/A
# T_sample         =  0.002
# Data Folded      =  7340032
# Data Avg         =  0.208007081171672
# Data StdDev      =  5.50304887076347 
# Profile Bins     =  256
# Profile Avg      =  5963.96609864386 
# Profile StdDev   =  931.820720939198 
# Reduced chi-sqr  =  1.550
# Prob(Noise)      <  4.03e-08   (~5.4 sigma)
# P_topo (ms)      =  714.555224473818  +/- 0.000264
# P'_topo (s/s)    =  -0                +/- 1.39e-10
# P''_topo (s/s^2) =  0                 +/- 6.15e-14
# P_bary (ms)      =  N/A
# P'_bary (s/s)    =  N/A
# P''_bary (s/s^2) =  N/A
# P_orb (s)        =  N/A
# asin(i)/c (s)    =  N/A
# eccentricity     =  N/A
# w (rad)          =  N/A
# T_peri           =  N/A
######################################################
   0  5083.463
   1  4462.217
   2  4598.806
   3  5197.092
   4  5414.469
   5  4624.53
   6  5728.437
   7  5819.486
   8  6120.108
   9  5867.309
  10  6506.164
  11  7242.293
  12  6925.838
  13  6925.788
  14  6829.524
  15  6186.981
  16  6296.894
  17  6256.873
  18  6274.382
  19  5602.623
  20  5751.261
  21  5473.595
  22  5195.864
  23  5624.125
  24  5634.865
  25  5320.564
  26  4981.256
  27  5367.952
  28  5654.923
  29  5143.523
  30  4654.567
  31  5442.3
  32  4587.804
  33  4876.51
  34  4580.132
  35  4990.826
  36  4830.806
  37  5073.428
  38  5278.726
  39  5810.474
  40  6219.048
  41  6717.937
  42  6651.911
  43  7005.271
  44  6310.929
  45  6430.516
  46  7042.634
  47  6415.411
  48  6975.105
  49  7375.438
  50  7480.731
  51  7263.677
  52  7306.34
  53  6900.573
  54  6961.559
  55  6157.521
  56  6700.221
  57  7345.229
  58  6544.214
  59  6322.415
  60  6862.715
  61  6632.92
  62  6034.773
  63  5275.75
  64  5035.314
  65  5392.715
  66  5307.733
  67  5987.715
  68  5943.942
  69  6315.545
  70  6489.547
  71  6517.917
  72  6052.135
  73  6715.681
  74  6070.39
  75  6521.03
  76  7985.104
  77  7385.401
  78  7110.832
  79  6377.463
  80  5897.92
  81  5737.85
  82  7988.734
  83  7494.851
  84  7946.958
  85  7707.513
  86  7537.589
  87  6626.244
  88  6888.677
  89  7062.135
  90  6599.408
  91  6048.433
  92  5327.462
  93  5477.894
  94  5341.33
  95  4627.961
  96  4882.41
  97  4457.73
  98  4815.21
  99  5311.255
 100  5111.824
 101  6012.707
 102  6457.846
 103  6254.55
 104  5619.017
 105  5819.896
 106  5314.761
 107  5819.832
 108  5809.672
 109  4907.019
 110  4586.4
 111  5880.786
 112  5723.672
 113  6131.658
 114  6275.708
 115  5733.248
 116  6846.54
 117  6968.316
 118  7636.191
 119  7695.417
 120  7198.504
 121  6879.994
 122  7439.712
 123  6991.745
 124  7072.704
 125  6320.451
 126  6342.696
 127  6379.261
 128  6707.313
 129  6196.201
 130  5683.22
 131  5619.123
 132  5566.378
 133  5376.544
 134  5247.981
 135  4967.254
 136  5023.521
 137  5583.339
 138  5845.46
 139  5281.325
 140  5590.107
 141  5700.524
 142  6550.546
 143  5331.762
 144  5918.269
 145  6254.582
 146  6050.835
 147  6416.564
 148  7578.275
 149  8300.273
 150  10684.29
 151  10077.24
 152  8013.145
 153  7868.351
 154  7173.054
 155  7463.259
 156  6910.447
 157  7467.776
 158  7605.321
 159  7445.737
 160  6470.926
 161  6100.41
 162  6620.041
 163  6147.146
 164  4787.548
 165  5791.737
 166  5167.755
 167  5377.28
 168  5826.262
 169  5405.539
 170  5082.373
 171  5575.416
 172  4859.066
 173  5285.19
 174  4691.975
 175  4965.05
 176  4884.536
 177  5272.211
 178  5029.214
 179  4497.489
 180  4417.582
 181  4585.767
 182  5547.917
 183  5129.153
 184  5603.86
 185  5669.503
 186  5217.619
 187  6292.322
 188  6289.988
 189  6996.913
 190  6703.582
 191  6435.92
 192  6662.404
 193  7182.446
 194  6467.383
 195  6568.556
 196  5892.293
 197  5661.506
 198  5805.741
 199  5661.416
 200  5975.049
 201  5342.771
 202  5106.507
 203  5537.606
 204  6037.221
 205  4546.618
 206  5674.466
 207  5501.542
 208  5314.774
 209  5215.283
 210  5645.093
 211  6149.967
 212  5161.039
 213  5787.15
 214  5316.213
 215  4200.829
 216  4491.312
 217  4327.062
 218  4990.636
 219  5212.378
 220  5777.43
 221  5853.304
 222  5832.183
 223  5568.424
 224  5678.012
 225  6314.959
 226  5858.935
 227  6124.504
 228  6427.13
 229  6641.406
 230  7061.188
 231  7109.965
 232  6437.914
 233  7003.802
 234  7270.07
 235  6997.067
 236  6260.072
 237  6659.394
 238  6761.919
 239  5541.409
 240  5148.577
 241  4432.483
 242  4467.088
 243  4395.542
 244  4307.89
 245  4520.755
 246  4537.125
 247  5321.255
 248  4488.223
 249  4299.813
 250  4603.479
 251  4187.584
 252  4340.389
 253  4709.783
 254  4146.699
 255  4643.204
