# Input file       =  1208584535.106913_cleaned.dat
# Candidate        =  PSR_0332+5434
# Telescope        =  AR
# Epoch_topo       =  58232.247154015196
# Epoch_bary       =  N/A
# T_sample         =  0.002
# Data Folded      =  7143424
# Data Avg         =  0.343325055565325
# Data StdDev      =  5.9593222658597  
# Profile Bins     =  1024
# Profile Avg      =  2395.00261323412 
# Profile StdDev   =  497.737208327605 
# Reduced chi-sqr  =  1.440
# Prob(Noise)      <  7.3e-19   (~8.8 sigma)
# P_topo (ms)      =  714.552626671264  +/- 2.58e-05
# P'_topo (s/s)    =  -0                +/- 1.4e-11
# P''_topo (s/s^2) =  0                 +/- 6.36e-15
# P_bary (ms)      =  N/A
# P'_bary (s/s)    =  N/A
# P''_bary (s/s^2) =  N/A
# P_orb (s)        =  N/A
# asin(i)/c (s)    =  N/A
# eccentricity     =  N/A
# w (rad)          =  N/A
# T_peri           =  N/A
######################################################
   0  2296.909
   1  2371.278
   2  2470.754
   3  2505.418
   4  2377.388
   5  2173.779
   6  2092.709
   7  2387.086
   8  2332.759
   9  2139.95
  10  2054.792
  11  2208.761
  12  2310.13
  13  2513.226
  14  2577.21
  15  2639.475
  16  2629.389
  17  2835.838
  18  2765.733
  19  2500.245
  20  2584.707
  21  2613.761
  22  2472.137
  23  2296.107
  24  2323.7
  25  2292.532
  26  2232.746
  27  2374.505
  28  2345.485
  29  2039.538
  30  1876.615
  31  1858.524
  32  1959.013
  33  2087.563
  34  2225.092
  35  2512.607
  36  2560.073
  37  2405.691
  38  2223.756
  39  2128.806
  40  2102.972
  41  1979.939
  42  2199.29
  43  2384.655
  44  2250.939
  45  2259.409
  46  2549.645
  47  2537.85
  48  2538.425
  49  2562.582
  50  2771.455
  51  2658.121
  52  2651.497
  53  2850.722
  54  2591.803
  55  2237.946
  56  2022.606
  57  2000.28
  58  1884.023
  59  1759.969
  60  1916.144
  61  1950.721
  62  1855.656
  63  1951.126
  64  1952.375
  65  2148.25
  66  2323.599
  67  2601.13
  68  2808.29
  69  2661.05
  70  2499.523
  71  2323.952
  72  2341.236
  73  2238.336
  74  2104.159
  75  2318.033
  76  2440.215
  77  2362.252
  78  2461.584
  79  2455.387
  80  2377.266
  81  2489.151
  82  2740.856
  83  2860.451
  84  2768.244
  85  2986.982
  86  2948.071
  87  2650.519
  88  2374.557
  89  2291.095
  90  2103.837
  91  2106.649
  92  2186.952
  93  2303.536
  94  2231.5
  95  2335.543
  96  2454.086
  97  2392.801
  98  2424.303
  99  2513.249
 100  2774.774
 101  2812.777
 102  2728.791
 103  2473.598
 104  2180.019
 105  2024.068
 106  1874.705
 107  1897.801
 108  2044.852
 109  2090.453
 110  2224.729
 111  2339.763
 112  2454.961
 113  2451.569
 114  2653.202
 115  2753.759
 116  2789.497
 117  2917.366
 118  3053.094
 119  2873.288
 120  2581.781
 121  2403.27
 122  2118.673
 123  1924.375
 124  1955.252
 125  2127.542
 126  2168.6
 127  2193.203
 128  2155.998
 129  1907.862
 130  1979.44
 131  2318.812
 132  2667.559
 133  2831.944
 134  2878.961
 135  2655.34
 136  2454.544
 137  2382.681
 138  2378.765
 139  2218.79
 140  2177.946
 141  2142.855
 142  2118.345
 143  2299.522
 144  2450.702
 145  2501.364
 146  2433.331
 147  2464.775
 148  2555.133
 149  2653.519
 150  2811.329
 151  2807.063
 152  2667.113
 153  2445.107
 154  2205.183
 155  1998.601
 156  1885.306
 157  1943.906
 158  1941.263
 159  2031.213
 160  2111.001
 161  2139.536
 162  1965.27
 163  1915.06
 164  2085.862
 165  2263.593
 166  2424.901
 167  2400.575
 168  2456.054
 169  2408.228
 170  2467.731
 171  2345.846
 172  2210.681
 173  2269.645
 174  2199.468
 175  2128.475
 176  2171.894
 177  2029.996
 178  2059.756
 179  2235.138
 180  2425.036
 181  2435.161
 182  2561.678
 183  2868.065
 184  2860.353
 185  2637.31
 186  2571.533
 187  2462.107
 188  2283.685
 189  2004.575
 190  1952.974
 191  2020.201
 192  2158.556
 193  2156.274
 194  1974.502
 195  1906.975
 196  1982.499
 197  2140.548
 198  2370.24
 199  2426.674
 200  2429.907
 201  2492.302
 202  2310.982
 203  1974.171
 204  1671.75
 205  1974.38
 206  2203.712
 207  2161.18
 208  2234.483
 209  2387.685
 210  2376.194
 211  2448.255
 212  2530.807
 213  2671.38
 214  2633.269
 215  2879.275
 216  3157.767
 217  3013.093
 218  3112.039
 219  2996.988
 220  2686.979
 221  2189.879
 222  1951.558
 223  2002.755
 224  2244.841
 225  2256.862
 226  2304.951
 227  2059.001
 228  2129.401
 229  2166.86
 230  2314.915
 231  2603.488
 232  2759.894
 233  2922.25
 234  2857.738
 235  2615.174
 236  2378.602
 237  2255.273
 238  2313.725
 239  2118.057
 240  2103.471
 241  2214.355
 242  2312.693
 243  2262.571
 244  2573.288
 245  2687.102
 246  2684.854
 247  2726.495
 248  2817.281
 249  2871.394
 250  2783.948
 251  2998.093
 252  2857.891
 253  2560.259
 254  2286.955
 255  2083.911
 256  2004.468
 257  2116.782
 258  2253.875
 259  2069.626
 260  1960.681
 261  2132.098
 262  2254.006
 263  2207.673
 264  2329.076
 265  2559.986
 266  2912.881
 267  3000.465
 268  2849.716
 269  2439.481
 270  2303.65
 271  2273.582
 272  2239.997
 273  2167
 274  2139.455
 275  2226.301
 276  2390.714
 277  2491.75
 278  2478.865
 279  2542.539
 280  2755.631
 281  2875.511
 282  2871.741
 283  3002.548
 284  3175.245
 285  2942.106
 286  2682.108
 287  2459.274
 288  2328.941
 289  2245.811
 290  2443.297
 291  2448.932
 292  2436.294
 293  2227.548
 294  2135.654
 295  1951.98
 296  2167.263
 297  2533.954
 298  2807.705
 299  2905.676
 300  2894.391
 301  2810.016
 302  2608.731
 303  2562.143
 304  2439.351
 305  2326.518
 306  2397.041
 307  2486.426
 308  2456.205
 309  2428.339
 310  2294.17
 311  2344.635
 312  2458.646
 313  2625.597
 314  2620.464
 315  2581.062
 316  2767.416
 317  2764.948
 318  2601.046
 319  2393.049
 320  2267.929
 321  2178.912
 322  2071.116
 323  2188.623
 324  2140.879
 325  2129.31
 326  2023.772
 327  1958.929
 328  1869.448
 329  1961.719
 330  2105.439
 331  2441.895
 332  2511.475
 333  2398.815
 334  2421.283
 335  2552.544
 336  2575.645
 337  2127.366
 338  2055.064
 339  2332.518
 340  2482.665
 341  2348.237
 342  2143.599
 343  2169.664
 344  2255.161
 345  2565.484
 346  2662.377
 347  2670.764
 348  2654.094
 349  2908.4
 350  2884.385
 351  2804.749
 352  2544.564
 353  2411.959
 354  2266.875
 355  2136.59
 356  1919.062
 357  1951.53
 358  2016.81
 359  2083.362
 360  1936.455
 361  2065.792
 362  2122.764
 363  2189.761
 364  2359.174
 365  2493.524
 366  2369.507
 367  2362.604
 368  2262.177
 369  2082.352
 370  1810.698
 371  1877.197
 372  2026.912
 373  2021.653
 374  2188.606
 375  2255.377
 376  2291.223
 377  2455.617
 378  2461.626
 379  2599.957
 380  2504.909
 381  2759.76
 382  2895.026
 383  2832.823
 384  2734.295
 385  2417.455
 386  2145.846
 387  2083.446
 388  2022.112
 389  2073.582
 390  2199.023
 391  2480.759
 392  2522.717
 393  2171.52
 394  2096.788
 395  2033.919
 396  2283.091
 397  2428.972
 398  2477.657
 399  2554.457
 400  2543.747
 401  2260.817
 402  1962.303
 403  1874.562
 404  2138.131
 405  2210.517
 406  2276.739
 407  2379.349
 408  2386.597
 409  2512.395
 410  2776.413
 411  2779.292
 412  2832.605
 413  2903.3
 414  3154.723
 415  3053.185
 416  2952.656
 417  2938.048
 418  2726.094
 419  2492.606
 420  2293.636
 421  2081.211
 422  2097.451
 423  2228.798
 424  2369.004
 425  2309.779
 426  2090.609
 427  2279.646
 428  2301.808
 429  2524.923
 430  2652.853
 431  2796.835
 432  2817.979
 433  2566.08
 434  2302.717
 435  2033.22
 436  1955.216
 437  2128.29
 438  2216.118
 439  2380.629
 440  2322.404
 441  2259.704
 442  2459.343
 443  2490.772
 444  2555.055
 445  2728.358
 446  2911.705
 447  2914.468
 448  2742.992
 449  2750.085
 450  2634.712
 451  2424.446
 452  2415.79
 453  2348.229
 454  2081.848
 455  2144.432
 456  2372.049
 457  2462.293
 458  2302.354
 459  2217.656
 460  2257.38
 461  2314.273
 462  2533.868
 463  2721.99
 464  2792.303
 465  2667.108
 466  2499.526
 467  2256.513
 468  2220.754
 469  2320.153
 470  2294.809
 471  2059.153
 472  2096.922
 473  2278.243
 474  2378.939
 475  2402.596
 476  2337.72
 477  2404.674
 478  2651.582
 479  2783.05
 480  2844.243
 481  2669.696
 482  2811.21
 483  2671.118
 484  2589.548
 485  2246.876
 486  1995.842
 487  1945.39
 488  2041.824
 489  1964.876
 490  1838.115
 491  1755.586
 492  1915.616
 493  1711.306
 494  1905.992
 495  2123.622
 496  2473.661
 497  2683.175
 498  2819.521
 499  2530.588
 500  2170.801
 501  2001.309
 502  2164.608
 503  2102.565
 504  2124.241
 505  2036.012
 506  1853.307
 507  1864.573
 508  1890.744
 509  2082.911
 510  2217.857
 511  2502.651
 512  2563.02
 513  2619.044
 514  2772.454
 515  2795.523
 516  2612.076
 517  2379.165
 518  2173.488
 519  1878.775
 520  1729.977
 521  1676.986
 522  1807.341
 523  1970.57
 524  2054.345
 525  2010.306
 526  1823.858
 527  1922.489
 528  2108.928
 529  2383.733
 530  2499.376
 531  2322.579
 532  2087.753
 533  1888.495
 534  1874.779
 535  1602.096
 536  1627.165
 537  1980.303
 538  2110.777
 539  1970.722
 540  1987.447
 541  2034.306
 542  2125.281
 543  2376.247
 544  2623.091
 545  2620.865
 546  2596.878
 547  2716.021
 548  2608.935
 549  2272.54
 550  2080.877
 551  1835.774
 552  1757.948
 553  1715.109
 554  1874.179
 555  2009.993
 556  2108.335
 557  2185.342
 558  2160.305
 559  2000.781
 560  2008.528
 561  2152.118
 562  2379.637
 563  2477.763
 564  2387.99
 565  2417.063
 566  2339.316
 567  2170.25
 568  2009.864
 569  2052.575
 570  2214.177
 571  2203.098
 572  2293.391
 573  2372.725
 574  2271.838
 575  2436.625
 576  2585.232
 577  2658.02
 578  2631.727
 579  2776.626
 580  2802.074
 581  2568.464
 582  2523.537
 583  2625.878
 584  2370.607
 585  2392.527
 586  2390.26
 587  2505.734
 588  2340.662
 589  2320.236
 590  2437.956
 591  2409.626
 592  2507.023
 593  2560.95
 594  2617.52
 595  2890.876
 596  3136.292
 597  3451.651
 598  3527.653
 599  3453.413
 600  3252.593
 601  3226.936
 602  3343.832
 603  3450.8
 604  3228.29
 605  3269.929
 606  3222.929
 607  3192.129
 608  3134.517
 609  2967.701
 610  2930.081
 611  2988.148
 612  3080.897
 613  2953.173
 614  2648.291
 615  2734.582
 616  2685.604
 617  2438.362
 618  2211.981
 619  2082.092
 620  2010.164
 621  2231.643
 622  2423.61
 623  2322.77
 624  2138.659
 625  2271.438
 626  2405.198
 627  2557.116
 628  2792.037
 629  2905.772
 630  2973.285
 631  2773.443
 632  2532.739
 633  2284.345
 634  2204.178
 635  2318.785
 636  2234.997
 637  2262.371
 638  2361.886
 639  2273.938
 640  2285.227
 641  2325.034
 642  2656.647
 643  2815.171
 644  2966.518
 645  3047.5
 646  3090.782
 647  3086.975
 648  3028.521
 649  2627.066
 650  2362.652
 651  2107.412
 652  1896.081
 653  1924.144
 654  1968.265
 655  2019.435
 656  1785.933
 657  1773.251
 658  1902.218
 659  1996.248
 660  2286.268
 661  2604.466
 662  2769.605
 663  2837.304
 664  2687.328
 665  2448.325
 666  2281.933
 667  2212.015
 668  2144.774
 669  1823.883
 670  1842.589
 671  1880.468
 672  1984.395
 673  2192.216
 674  2216.354
 675  2212.931
 676  2319.954
 677  2588.681
 678  2781.773
 679  2730.966
 680  2985.391
 681  2880.762
 682  2554.691
 683  2319.55
 684  2185.034
 685  2013.075
 686  2003.548
 687  2083.713
 688  2043.362
 689  1917.136
 690  1998.029
 691  2068.055
 692  2123.135
 693  2286.433
 694  2369.02
 695  2520.231
 696  2530.886
 697  2390.93
 698  2220.957
 699  2096.169
 700  2160.624
 701  2064.711
 702  2120.329
 703  2225.417
 704  2155.889
 705  2199.789
 706  2218.998
 707  2167.261
 708  2166.873
 709  2318.768
 710  2464.069
 711  2397.277
 712  2577.782
 713  2820.502
 714  2669.71
 715  2430.748
 716  2273.461
 717  2020.836
 718  1888.255
 719  1816.175
 720  2136.781
 721  2216.039
 722  2168.779
 723  2129.884
 724  1933.998
 725  2115.244
 726  2182.227
 727  2410.436
 728  2439.154
 729  2424.514
 730  2310.361
 731  2187.1
 732  2079.701
 733  1911.241
 734  1819.143
 735  2100.86
 736  2304.536
 737  2239.347
 738  2255.226
 739  2206.643
 740  2281.104
 741  2486.141
 742  2623.132
 743  2672.514
 744  2570.107
 745  2762.162
 746  2785.827
 747  2598.49
 748  2563.213
 749  2358.099
 750  2109.898
 751  1935.232
 752  2154.682
 753  2448.625
 754  2455.709
 755  2656.638
 756  2520.312
 757  2241.79
 758  2116.522
 759  2373.974
 760  2717.035
 761  2742.978
 762  2655.479
 763  2627.828
 764  2540.804
 765  2295.727
 766  1921.814
 767  1795.313
 768  2071.304
 769  2212.517
 770  2383.887
 771  2434.013
 772  2449.045
 773  2567.241
 774  2830.019
 775  2958.915
 776  2879.409
 777  2981.689
 778  3176.658
 779  3170.123
 780  2966.264
 781  2817.72
 782  2435.452
 783  2185.258
 784  1987.51
 785  1975.765
 786  1939.319
 787  2073.669
 788  2318.238
 789  2164.677
 790  2097.257
 791  2100.374
 792  2292.951
 793  2484.479
 794  2640.883
 795  2730.28
 796  2718.222
 797  2557.522
 798  2273.115
 799  1923.545
 800  1791.615
 801  1995.806
 802  2131.555
 803  2293.039
 804  2220.867
 805  2248.828
 806  2405.1
 807  2540.95
 808  2638.576
 809  2730.776
 810  3021.161
 811  3197.229
 812  3028.06
 813  2917.022
 814  2729.042
 815  2472.208
 816  2290.455
 817  2101.032
 818  2066.389
 819  2053.402
 820  2217.799
 821  2140.212
 822  1908.191
 823  1902.525
 824  1994.663
 825  2207.871
 826  2475.843
 827  2691.676
 828  2729.906
 829  2698.308
 830  2542.244
 831  2381.149
 832  2233.842
 833  2398.81
 834  2303.68
 835  2166.461
 836  2231.348
 837  2379.563
 838  2506.244
 839  2552.331
 840  2489.101
 841  2421.683
 842  2439.49
 843  2603.833
 844  2751.356
 845  2693.229
 846  2668.863
 847  2486.003
 848  2288.903
 849  2027.36
 850  1984.076
 851  2073.23
 852  2236.113
 853  2260.683
 854  1955.029
 855  1847.522
 856  1863.014
 857  1951.313
 858  2203.63
 859  2452.325
 860  2545.18
 861  2493.788
 862  2412.362
 863  2275.731
 864  1994.739
 865  1990.517
 866  2059.022
 867  1958.516
 868  2086.143
 869  2312.257
 870  2388.648
 871  2484.927
 872  2456.546
 873  2443.381
 874  2395.486
 875  2633.391
 876  2807.995
 877  2687.114
 878  2773.932
 879  2834.601
 880  2696.025
 881  2422.827
 882  2092.718
 883  2056.627
 884  2042.36
 885  2094.005
 886  2089.862
 887  1968.301
 888  1990.691
 889  1987.753
 890  2105.786
 891  2376.585
 892  2462.098
 893  2656.728
 894  2808.506
 895  2710.693
 896  2428.743
 897  2280.058
 898  2392.475
 899  2252.337
 900  2248.634
 901  2442.615
 902  2523.345
 903  2461.272
 904  2429.665
 905  2565.544
 906  2722.811
 907  3108.156
 908  3250.275
 909  3143.991
 910  3029.887
 911  3251.819
 912  3087.06
 913  2785.667
 914  2599.568
 915  2305.891
 916  2117.373
 917  2052.735
 918  2257.36
 919  2186.975
 920  2156.981
 921  2344.355
 922  2332.06
 923  2310.151
 924  2318.233
 925  2710.953
 926  3128.789
 927  3158.542
 928  2919.363
 929  2498.733
 930  2337.039
 931  2253.252
 932  2195.428
 933  2216.419
 934  2273.517
 935  2203.368
 936  2381.711
 937  2490.363
 938  2520.641
 939  2494.225
 940  2751.037
 941  2936.054
 942  3013.205
 943  3160.842
 944  3324.806
 945  3053.306
 946  2873.542
 947  2708.646
 948  2436.418
 949  2238.925
 950  2332.789
 951  2428.228
 952  2394.984
 953  2370.65
 954  2491.941
 955  2401.616
 956  2475.239
 957  2757.78
 958  3022.099
 959  3165.815
 960  3086.059
 961  3009.073
 962  2834.519
 963  2651.247
 964  2418.383
 965  2231.159
 966  2348.394
 967  2423.639
 968  2458.701
 969  2455.658
 970  2467.299
 971  2394.598
 972  2620.644
 973  2767.657
 974  2945.935
 975  3029.294
 976  3301.67
 977  3325.828
 978  3027.617
 979  2844.729
 980  2537.383
 981  2342.031
 982  2221.548
 983  2244.575
 984  2217.745
 985  2279.281
 986  2384.642
 987  2306.136
 988  2220.271
 989  2359.765
 990  2430.553
 991  2552.26
 992  2527.111
 993  2499.468
 994  2350.969
 995  2313.633
 996  2314.919
 997  2195.292
 998  2075.348
 999  2366.404
1000  2338.237
1001  2374.038
1002  2387.816
1003  2440.968
1004  2436.104
1005  2604.898
1006  2769.712
1007  2846.264
1008  2770.808
1009  2845.541
1010  2706.099
1011  2703.556
1012  2577.441
1013  2362.153
1014  2143.488
1015  2111.127
1016  2087.177
1017  2217.398
1018  2191.1
1019  2417.118
1020  2310.454
1021  2384.945
1022  2262.552
1023  2226.49
