# Input file       =  1208527894.109575_cleaned.dat
# Candidate        =  PSR_0332+5434
# Telescope        =  AR
# Epoch_topo       =  58231.591586916380
# Epoch_bary       =  N/A
# T_sample         =  0.002
# Data Folded      =  7340032
# Data Avg         =  0.43515243389577 
# Data StdDev      =  6.98746692167443 
# Profile Bins     =  512
# Profile Avg      =  6238.41058125516 
# Profile StdDev   =  836.630631114294 
# Reduced chi-sqr  =  1.310
# Prob(Noise)      <  2.79e-06   (~4.5 sigma)
# P_topo (ms)      =  714.553547890776  +/- 0.000474
# P'_topo (s/s)    =  -0                +/- 2.5e-10
# P''_topo (s/s^2) =  0                 +/- 1.1e-13
# P_bary (ms)      =  N/A
# P'_bary (s/s)    =  N/A
# P''_bary (s/s^2) =  N/A
# P_orb (s)        =  N/A
# asin(i)/c (s)    =  N/A
# eccentricity     =  N/A
# w (rad)          =  N/A
# T_peri           =  N/A
######################################################
   0  5104.224
   1  5690.974
   2  6015.053
   3  5957.363
   4  5752.504
   5  6266.982
   6  6193.806
   7  6384.013
   8  6709.949
   9  6706.475
  10  6548.227
  11  6544.561
  12  6673.527
  13  6244.741
  14  6306.857
  15  5996.487
  16  6181.218
  17  6183.311
  18  5799.658
  19  5550.064
  20  5266.667
  21  5686.644
  22  5516.197
  23  5474.816
  24  5714.083
  25  5712.124
  26  5246.403
  27  5418.375
  28  5315.112
  29  5310.371
  30  5190.149
  31  5521.973
  32  5783.06
  33  5524.769
  34  5288.333
  35  5482.197
  36  5714.025
  37  5388.38
  38  5183.731
  39  5160.062
  40  5556.081
  41  5466.241
  42  5435.016
  43  5375.168
  44  5405.371
  45  5015.456
  46  5192.321
  47  5265.829
  48  5674.224
  49  5828.421
  50  5953.918
  51  6027.007
  52  5841.621
  53  5366.43
  54  5574.104
  55  5697.525
  56  6124.775
  57  6221.484
  58  6192.43
  59  5965.029
  60  6071.386
  61  6334.875
  62  6190.206
  63  6262.567
  64  7121.688
  65  7284.649
  66  6938.366
  67  6329.573
  68  6740.626
  69  7326.875
  70  7025.488
  71  7126.918
  72  7545.15
  73  7409.806
  74  7204.232
  75  7785.059
  76  8104.375
  77  7934.282
  78  8047.973
  79  7714.031
  80  7549.268
  81  7902.103
  82  8158.729
  83  8509.116
  84  8694.761
  85  8278.336
  86  8156.285
  87  7987.778
  88  7938.122
  89  8423.856
  90  8062.985
  91  7757.837
  92  7780.811
  93  7680.587
  94  7449.782
  95  6902.844
  96  6740.412
  97  7016.823
  98  6975.176
  99  6999.965
 100  6697.167
 101  6803.149
 102  6817.556
 103  6754.978
 104  6667.903
 105  6750.4
 106  6275.442
 107  6245.842
 108  6063.292
 109  5980.368
 110  6304.352
 111  6206.843
 112  5982.542
 113  6000.407
 114  6578.815
 115  6639.363
 116  5704.235
 117  5644.063
 118  5794.557
 119  5566.528
 120  5564.014
 121  5798.412
 122  6049.994
 123  5569.202
 124  5827.818
 125  5640.808
 126  5509.661
 127  5733.566
 128  5511.567
 129  5620.674
 130  5787.994
 131  5882.513
 132  5626.108
 133  5397.104
 134  5384.874
 135  5820.449
 136  6185.073
 137  6358.456
 138  6479.579
 139  6158.899
 140  6374.021
 141  6483.943
 142  6856.675
 143  6812.38
 144  6466.897
 145  6477.204
 146  6428.771
 147  6829.202
 148  6697.904
 149  6318.977
 150  6076.444
 151  6338.592
 152  6588.819
 153  6559.685
 154  6379.836
 155  6401.63
 156  6409.728
 157  6099.39
 158  5984.249
 159  5881.877
 160  5873.14
 161  5669.833
 162  5736.514
 163  6058.97
 164  5963.856
 165  5533.138
 166  5308.675
 167  5604.765
 168  5707.915
 169  5806.247
 170  5847.232
 171  5635.743
 172  5728.123
 173  5941.92
 174  5686.96
 175  5697.263
 176  5969.724
 177  5905.675
 178  5975.787
 179  6023.15
 180  6010.296
 181  6229.488
 182  6269.688
 183  6156.296
 184  6154.724
 185  5851.082
 186  6108.761
 187  6303.695
 188  6158.369
 189  6207.812
 190  6405.819
 191  6139.716
 192  5695.702
 193  6215.987
 194  6350.588
 195  5975.861
 196  6081.325
 197  5849.885
 198  5661.017
 199  5245.48
 200  5541.87
 201  5891.542
 202  6578.565
 203  6230.719
 204  6161.917
 205  6287.489
 206  6383.465
 207  6421.459
 208  6711.747
 209  6691.381
 210  6574.36
 211  6738.857
 212  6836.32
 213  6706.953
 214  6839.92
 215  6565.611
 216  6484.459
 217  6652.246
 218  6741.748
 219  6594.473
 220  7094.682
 221  7083.933
 222  6904.507
 223  7072.277
 224  6869.926
 225  6725.959
 226  6900.456
 227  6909.326
 228  6858.735
 229  6776.494
 230  6401.195
 231  6323.919
 232  6281.034
 233  6328.31
 234  6684.398
 235  6531.656
 236  6520.341
 237  6360.588
 238  6222.835
 239  6488.44
 240  6251.549
 241  6064.094
 242  6267.698
 243  6207.738
 244  6365.036
 245  6161.887
 246  6172.292
 247  6542.312
 248  6551.501
 249  6055.347
 250  5873.863
 251  5640.397
 252  6161.953
 253  5893.743
 254  5726.215
 255  6032.983
 256  5808.268
 257  5810.519
 258  5898.02
 259  5780.856
 260  5801.689
 261  6159.206
 262  5963.133
 263  5905.497
 264  6495.208
 265  6082.386
 266  6254.904
 267  6560.654
 268  6663.319
 269  6725.931
 270  6805.358
 271  7071.169
 272  7037.953
 273  6702.924
 274  6801.4
 275  6628.642
 276  6578.728
 277  6499.842
 278  6239.865
 279  6146.921
 280  6127.949
 281  6213.295
 282  6286.463
 283  6150.695
 284  6173.68
 285  6216.194
 286  6330.083
 287  6333.042
 288  5948.947
 289  6314.248
 290  6524.166
 291  6698.207
 292  6376.001
 293  6363.967
 294  6354.815
 295  6845.892
 296  6971.339
 297  6728.534
 298  6523.987
 299  6554.362
 300  6765.146
 301  6688.787
 302  6765.77
 303  6298.976
 304  5900.614
 305  6189.549
 306  6252.855
 307  6137.795
 308  6308.293
 309  6088.704
 310  6012.435
 311  6029.096
 312  6389.097
 313  6249.065
 314  5902.557
 315  5708.728
 316  5957.243
 317  5977.041
 318  5839.011
 319  6016.636
 320  6115.515
 321  5842.062
 322  5522.334
 323  5470.663
 324  5836.469
 325  5675.45
 326  5919.098
 327  5991.289
 328  5576.601
 329  5941.303
 330  5922.907
 331  5548.708
 332  5150.708
 333  5614.008
 334  5789.701
 335  5546.644
 336  5609.131
 337  5704.403
 338  5498.392
 339  5351.497
 340  5222.907
 341  5142.462
 342  5579.773
 343  5550.319
 344  5609.033
 345  5497.563
 346  5464.07
 347  5761.448
 348  5602.491
 349  5711.697
 350  5730.49
 351  6038.949
 352  6068.924
 353  6007.622
 354  6231.911
 355  6371.661
 356  6546.409
 357  7135.319
 358  7221.735
 359  7172.539
 360  7397.104
 361  7589.523
 362  7645.035
 363  7796.006
 364  7608.543
 365  7476.95
 366  6950.187
 367  7271.801
 368  7066.384
 369  7025.352
 370  7317.276
 371  7039.095
 372  6708.438
 373  6544.518
 374  6562.078
 375  6908.758
 376  6936.133
 377  6852.122
 378  6770.418
 379  6926.13
 380  6754.559
 381  6465.637
 382  6564.792
 383  6536.343
 384  6557.677
 385  6824.169
 386  6945.234
 387  7004.342
 388  6558.424
 389  6576.149
 390  6656.229
 391  6449.875
 392  6607.582
 393  6462.609
 394  6317.906
 395  6517.351
 396  6934.496
 397  6710.289
 398  6548.162
 399  6416.456
 400  6644.315
 401  7141.167
 402  7213.372
 403  7139.702
 404  6646.249
 405  6133.562
 406  6512.755
 407  6931.119
 408  6417.019
 409  6479.368
 410  6365.728
 411  6355.34
 412  6525.985
 413  6243.512
 414  6393.702
 415  6628.811
 416  6675.191
 417  7115.306
 418  8126.859
 419  8706.381
 420  9140.991
 421  8569.453
 422  7299.411
 423  6467.063
 424  6292.441
 425  6321.981
 426  6210.414
 427  6175.936
 428  5952.978
 429  5912.216
 430  6034.306
 431  5976.713
 432  6156.777
 433  6168.03
 434  6195.812
 435  6357.861
 436  6191.586
 437  6265.847
 438  6279.155
 439  6229.186
 440  6448.438
 441  6430.849
 442  6750.473
 443  6863.134
 444  6800.906
 445  6463.4
 446  6568.584
 447  6320.264
 448  6388.206
 449  5705.816
 450  5934.748
 451  6214.055
 452  6202.869
 453  6385.932
 454  6271.789
 455  6215.99
 456  6029.843
 457  5986.793
 458  6019.096
 459  5816.464
 460  5767.376
 461  5447.452
 462  5602.75
 463  5434.489
 464  5533.703
 465  5602.294
 466  5759.892
 467  5486.016
 468  5817.474
 469  6139.476
 470  5736.466
 471  5493.908
 472  5549.124
 473  5383.787
 474  5078.477
 475  5175.138
 476  5354.867
 477  5395.306
 478  5250.979
 479  5010.265
 480  5104.977
 481  5287.627
 482  5144.765
 483  5187.301
 484  5438.469
 485  5415.123
 486  5132.628
 487  5071.568
 488  5314.282
 489  5127.076
 490  5470.739
 491  5664.304
 492  5649.578
 493  5159.296
 494  4821.969
 495  4955.43
 496  5143.295
 497  5375.524
 498  5904.639
 499  5919.141
 500  5366.362
 501  5134.716
 502  5159.586
 503  5526.667
 504  5451.289
 505  5384.961
 506  5552.426
 507  5361.878
 508  4951.065
 509  5197.709
 510  5199.051
 511  5142.953
