# Input file       =  1208584535.106913_cleaned.dat
# Candidate        =  PSR_0332+5434
# Telescope        =  AR
# Epoch_topo       =  58232.247154015196
# Epoch_bary       =  N/A
# T_sample         =  0.002
# Data Folded      =  7143424
# Data Avg         =  0.343325055565325
# Data StdDev      =  5.9593222658597  
# Profile Bins     =  256
# Profile Avg      =  9580.01045295719 
# Profile StdDev   =  995.47441665521  
# Reduced chi-sqr  =  1.875
# Prob(Noise)      <  9.26e-16   (~8.0 sigma)
# P_topo (ms)      =  714.55262646086   +/- 2.91e-05
# P'_topo (s/s)    =  -0                +/- 1.58e-11
# P''_topo (s/s^2) =  0                 +/- 7.17e-15
# P_bary (ms)      =  N/A
# P'_bary (s/s)    =  N/A
# P''_bary (s/s^2) =  N/A
# P_orb (s)        =  N/A
# asin(i)/c (s)    =  N/A
# eccentricity     =  N/A
# w (rad)          =  N/A
# T_peri           =  N/A
######################################################
   0  9503.354
   1  9048.697
   2  8862.493
   3  9844.046
   4  10821.08
   5  10088.85
   6  9091.035
   7  8418.741
   8  8451.403
   9  9520.726
  10  8549.828
  11  9510.99
  12  10507.02
  13  10558.01
  14  7850.073
  15  7575.663
  16  8667.797
  17  10474.75
  18  8998.885
  19  9668.729
  20  10252.79
  21  11490.43
  22  9124.518
  23  8879.108
  24  9715.268
  25  10868.51
  26  8223.965
  27  8487.073
  28  10096.93
  29  11616.54
  30  9482.041
  31  8313.237
  32  8254.237
  33  10894.94
  34  9669.033
  35  8667.221
  36  9770.261
  37  10691.53
  38  9723.826
  39  7725.237
  40  8232.328
  41  8935.405
  42  9727.493
  43  8871.096
  44  8438.672
  45  9962.479
  46  10789.88
  47  8456.083
  48  8227.557
  49  8694.709
  50  9464.161
  51  7868.665
  52  9310.862
  53  10455.51
  54  12290.78
  55  9289.648
  56  8861.699
  57  8914.101
  58  11207.5
  59  9315.98
  60  8757.117
  61  10427.14
  62  11350.63
  63  10271.29
  64  8504.195
  65  8416.909
  66  10409.3
  67  10232.17
  68  8790.274
  69  9741.057
  70  11256.88
  71  11573.52
  72  9473.45
  73  8981.86
  74  9949.58
  75  11025.77
  76  9707.112
  77  9589.403
  78  10155.81
  79  10663.34
  80  8772.638
  81  8420.141
  82  8081.56
  83  9812.325
  84  9172.014
  85  9272.787
  86  9921.789
  87  11202.56
  88  9677.224
  89  7995.206
  90  8210.876
  91  9569.307
  92  8202.926
  93  8343.299
  94  9636.066
  95  10897.93
  96  9759.946
  97  8523.895
  98  9049.46
  99  9516.913
 100  8968.465
 101  8758.967
 102  10246.59
 103  11834.69
 104  11388.36
 105  8791.563
 106  9043.851
 107  10010.68
 108  10135.4
 109  8511.358
 110  9456.018
 111  10918.33
 112  10765.92
 113  9128.896
 114  9346.662
 115  9545.303
 116  10480.77
 117  8979.8
 118  9012.27
 119  9931.807
 120  11090.5
 121  9097.088
 122  7745.72
 123  7409.641
 124  10388.37
 125  8583.168
 126  8016.331
 127  8352.934
 128  10641.74
 129  9506.726
 130  7073.007
 131  7852.29
 132  9198.122
 133  7780.116
 134  7473.585
 135  8306.088
 136  10393.22
 137  9265.077
 138  7243.146
 139  8492.422
 140  8757.412
 141  9506.156
 142  8419.161
 143  9221.183
 144  10519.81
 145  10598.01
 146  9720.487
 147  9564.979
 148  10286.82
 149  13331.74
 150  13318.39
 151  13026.18
 152  12081.05
 153  11540.6
 154  9793.371
 155  8863.938
 156  9204.945
 157  11380.6
 158  9553.338
 159  9172.251
 160  9795.865
 161  12066.15
 162  10627.82
 163  7858.812
 164  7446.201
 165  10064.49
 166  9930.791
 167  7850.892
 168  8433.65
 169  10160.39
 170  11001.49
 171  8374.484
 172  8033.265
 173  9039.069
 174  9484.896
 175  8508.02
 176  8774.074
 177  9251.138
 178  10459.1
 179  8277.768
 180  8545.076
 181  8449.948
 182  9511.335
 183  7913.724
 184  8979.025
 185  9849.215
 186  10755.31
 187  9274.903
 188  9333.961
 189  9374.924
 190  10680.78
 191  8940.768
 192  8810.612
 193  10503.04
 194  12132.49
 195  10934.33
 196  7963.208
 197  8665.095
 198  9845.447
 199  9924.208
 200  7963.828
 201  9315.005
 202  11271.43
 203  11518.77
 204  8681.214
 205  8253.448
 206  8980.912
 207  10520.79
 208  9198.289
 209  9498.235
 210  9894.873
 211  10696.09
 212  8532.04
 213  8455.806
 214  8134.866
 215  9870.197
 216  8118.356
 217  8997.303
 218  9853.279
 219  11045.46
 220  9642.692
 221  8254.043
 222  8208.023
 223  10563.44
 224  9562.815
 225  9493.322
 226  10496.03
 227  12624.35
 228  11309.82
 229  8660.03
 230  9031.94
 231  10939.98
 232  10452.03
 233  8896.567
 234  9700.913
 235  11515.95
 236  12262.07
 237  9562.006
 238  9678.7
 239  11007.72
 240  11847.56
 241  9543.77
 242  9794.521
 243  11020.7
 244  12636.69
 245  9600.624
 246  9227.765
 247  9373.478
 248  9800.334
 249  8912.74
 250  9529.286
 251  10494.13
 252  11063.71
 253  9500.638
 254  8739.905
 255  9293.903
