# Input file       =  1208096954.114999_cleaned.dat
# Candidate        =  PSR_0332+5434
# Telescope        =  AR
# Epoch_topo       =  58226.603855497677
# Epoch_bary       =  N/A
# T_sample         =  0.002
# Data Folded      =  7340032
# Data Avg         =  0.205173934440869
# Data StdDev      =  5.48250911301007 
# Profile Bins     =  1024
# Profile Avg      =  1470.69855621753 
# Profile StdDev   =  464.171381557439 
# Reduced chi-sqr  =  0.705
# Prob(Noise)      <  1   (~0.0 sigma)
# P_topo (ms)      =  714.557675036197  +/- 0.000421
# P'_topo (s/s)    =  -0                +/- 2.22e-10
# P''_topo (s/s^2) =  0                 +/- 9.8e-14
# P_bary (ms)      =  N/A
# P'_bary (s/s)    =  N/A
# P''_bary (s/s^2) =  N/A
# P_orb (s)        =  N/A
# asin(i)/c (s)    =  N/A
# eccentricity     =  N/A
# w (rad)          =  N/A
# T_peri           =  N/A
######################################################
   0  1364.047
   1  1449.916
   2  1404.654
   3  1259.729
   4  1075.759
   5  1040.113
   6  1142.472
   7  1164.394
   8  1165.916
   9  1127.997
  10  1235.665
  11  1255.214
  12  1220.525
  13  1247.983
  14  1330.056
  15  1520.499
  16  1522.672
  17  1484.856
  18  1356.535
  19  1278.678
  20  1346.629
  21  1431.497
  22  1413.86
  23  1470.581
  24  1391.37
  25  1487.247
  26  1437.863
  27  1387.212
  28  1482.992
  29  1577.117
  30  1631.645
  31  1572.408
  32  1553.578
  33  1608.483
  34  1605.237
  35  1685.426
  36  1650.662
  37  1582.553
  38  1438.671
  39  1251.544
  40  1183.951
  41  1214.017
  42  1402.674
  43  1493.194
  44  1506.932
  45  1559.523
  46  1631.922
  47  1596.702
  48  1477.455
  49  1484.093
  50  1491.7
  51  1532.312
  52  1468.508
  53  1488.951
  54  1512.22
  55  1445.057
  56  1377.689
  57  1382.199
  58  1481.461
  59  1462.759
  60  1372.375
  61  1390.211
  62  1481.347
  63  1625.499
  64  1678.883
  65  1797.706
  66  1765.44
  67  1723.736
  68  1636.051
  69  1533.221
  70  1590.954
  71  1606.177
  72  1691.026
  73  1705.893
  74  1621.446
  75  1584.167
  76  1563.822
  77  1578.594
  78  1501.639
  79  1555.578
  80  1472.711
  81  1484.346
  82  1452.545
  83  1545.207
  84  1542.893
  85  1599.969
  86  1661.137
  87  1599.669
  88  1616.794
  89  1554.159
  90  1539.78
  91  1572.745
  92  1683.633
  93  1772.422
  94  1721.268
  95  1733.264
  96  1642.902
  97  1574.491
  98  1609.018
  99  1830.654
 100  1958.163
 101  1927.845
 102  1769.233
 103  1673.868
 104  1647.631
 105  1490.633
 106  1408.686
 107  1394.556
 108  1470.288
 109  1604.719
 110  1840.031
 111  2007.432
 112  1946.059
 113  1834.749
 114  1671.831
 115  1618.644
 116  1505.491
 117  1524.726
 118  1435.276
 119  1393.337
 120  1474.553
 121  1400.443
 122  1432.377
 123  1478.929
 124  1671.894
 125  1722.464
 126  1644.817
 127  1428.544
 128  1398.974
 129  1456.556
 130  1664.554
 131  1676.332
 132  1596.941
 133  1566.738
 134  1461.599
 135  1521.961
 136  1421.294
 137  1287.852
 138  1177.358
 139  1239.954
 140  1378.725
 141  1366.83
 142  1352.731
 143  1112.378
 144  1012.463
 145  1001.325
 146  1048.928
 147  1080.595
 148  1146.385
 149  1293.713
 150  1350.772
 151  1311.617
 152  1282.2
 153  1174.504
 154  1195.344
 155  1135.867
 156  1132.119
 157  1148.056
 158  1107.61
 159  1083.017
 160  1139.962
 161  1134.947
 162  1087.615
 163  939.2723
 164  907.5537
 165  973.6964
 166  1164.128
 167  1154.289
 168  1172.152
 169  1121.382
 170  1058.073
 171  1022.116
 172  953.8365
 173  962.5161
 174  866.4296
 175  800.8282
 176  865.816
 177  974.7204
 178  1080.826
 179  1105.555
 180  1184.64
 181  1256.333
 182  1143.837
 183  1120.675
 184  1068.582
 185  1155.493
 186  1098.01
 187  1084.306
 188  1184.094
 189  1340.076
 190  1348.978
 191  1348.356
 192  1205.867
 193  1243.203
 194  1335.404
 195  1370.225
 196  1213.514
 197  1083.318
 198  1224
 199  1389.645
 200  1553.248
 201  1551.719
 202  1649.887
 203  1720.731
 204  1829.973
 205  1824.142
 206  1657.846
 207  1637.082
 208  1613.388
 209  1606.133
 210  1540.828
 211  1546.161
 212  1652.77
 213  1755.645
 214  1932.854
 215  2099.572
 216  2035.16
 217  1833.911
 218  1767.766
 219  1830.589
 220  1974.248
 221  2152.572
 222  2149.159
 223  1941.706
 224  1677.777
 225  1596.598
 226  1730.678
 227  1719.016
 228  1660.267
 229  1499.053
 230  1552.386
 231  1512.697
 232  1580.129
 233  1672.974
 234  1788.688
 235  1816.283
 236  1788.878
 237  1668.335
 238  1582.908
 239  1640.435
 240  1729.746
 241  1659.459
 242  1552.441
 243  1498.791
 244  1563.606
 245  1550.173
 246  1490.4
 247  1408.789
 248  1348.645
 249  1405.773
 250  1422.231
 251  1345.512
 252  1212.676
 253  1316.036
 254  1388.166
 255  1333.689
 256  1294.454
 257  1382.25
 258  1638.75
 259  1667.145
 260  1449.404
 261  1300.037
 262  1276.66
 263  1387.25
 264  1411.252
 265  1417.772
 266  1381.51
 267  1373.112
 268  1470.047
 269  1490.926
 270  1467.004
 271  1412.326
 272  1414.958
 273  1435.727
 274  1401.932
 275  1391.639
 276  1256.597
 277  1198.115
 278  1118.496
 279  1229.581
 280  1170.079
 281  1188.985
 282  1300.944
 283  1383.888
 284  1236.666
 285  1108.447
 286  1024.026
 287  1165.118
 288  1272.241
 289  1423.581
 290  1477.049
 291  1469.911
 292  1395.881
 293  1435.933
 294  1518.154
 295  1641.841
 296  1718.286
 297  1707.883
 298  1622.836
 299  1517.074
 300  1520.093
 301  1441.62
 302  1366.318
 303  1305.255
 304  1308.405
 305  1322.752
 306  1416.162
 307  1492.194
 308  1560.851
 309  1601.47
 310  1544.848
 311  1554.256
 312  1387.24
 313  1496.794
 314  1461.361
 315  1522.583
 316  1386.421
 317  1327.933
 318  1394.395
 319  1391.013
 320  1379.441
 321  1249.015
 322  1354.459
 323  1354.676
 324  1424.589
 325  1417.527
 326  1360.398
 327  1343.503
 328  1421.296
 329  1427.838
 330  1431.754
 331  1270.345
 332  1286.426
 333  1232.853
 334  1248.397
 335  1177.367
 336  1175.648
 337  1279.968
 338  1251.971
 339  1217.681
 340  1248.481
 341  1315.375
 342  1506.013
 343  1581.151
 344  1608.548
 345  1638.511
 346  1687.48
 347  1571.942
 348  1531.452
 349  1443.376
 350  1382.74
 351  1437.876
 352  1557.224
 353  1803.704
 354  1852.788
 355  1722.308
 356  1595.893
 357  1602.099
 358  1675.463
 359  1618.853
 360  1597.547
 361  1637.745
 362  1679.295
 363  1647.287
 364  1690.21
 365  1727.488
 366  1605.517
 367  1555.862
 368  1588.375
 369  1614.934
 370  1660.817
 371  1650.859
 372  1619.641
 373  1677.658
 374  1623.668
 375  1736.434
 376  1741.264
 377  1770.107
 378  1803.574
 379  1775.212
 380  1781.021
 381  1926.855
 382  1915.676
 383  1799.98
 384  1608.153
 385  1650.614
 386  1631.395
 387  1512.587
 388  1480.684
 389  1552.814
 390  1380.343
 391  1301.68
 392  1463.849
 393  1673.073
 394  1668.768
 395  1621.665
 396  1676.413
 397  1695.556
 398  1603.219
 399  1526.969
 400  1505.587
 401  1509.695
 402  1474.193
 403  1335.771
 404  1291.089
 405  1239.155
 406  1260.44
 407  1317.403
 408  1381.646
 409  1287.529
 410  1363.251
 411  1392.637
 412  1499.039
 413  1397.91
 414  1315.079
 415  1252.241
 416  1351.848
 417  1395.911
 418  1485.773
 419  1544.111
 420  1632.572
 421  1662.392
 422  1540.684
 423  1600.815
 424  1737.485
 425  1739.919
 426  1599.328
 427  1477.709
 428  1623.926
 429  1578.31
 430  1571.083
 431  1469.712
 432  1406.422
 433  1350.731
 434  1415.877
 435  1563.838
 436  1597.268
 437  1532.84
 438  1471.58
 439  1582.652
 440  1630.55
 441  1636.625
 442  1496.565
 443  1448.154
 444  1425.135
 445  1433.825
 446  1479.908
 447  1539.417
 448  1581.905
 449  1558.011
 450  1451.92
 451  1437.718
 452  1316.304
 453  1477.146
 454  1619.938
 455  1590.394
 456  1552.515
 457  1448.123
 458  1424.173
 459  1369.141
 460  1441.681
 461  1477.96
 462  1395.736
 463  1528.747
 464  1723.539
 465  1835.923
 466  1708.05
 467  1600.064
 468  1551.121
 469  1535.904
 470  1524.593
 471  1479.314
 472  1469.899
 473  1420.081
 474  1465.799
 475  1517.338
 476  1658.402
 477  1658.286
 478  1559.966
 479  1534.732
 480  1508.709
 481  1647.491
 482  1710.418
 483  1697.646
 484  1706.034
 485  1691.318
 486  1612.968
 487  1519.714
 488  1557.105
 489  1653.571
 490  1697.42
 491  1635.566
 492  1541.108
 493  1576.177
 494  1456.915
 495  1498.773
 496  1463.118
 497  1615.808
 498  1520.871
 499  1471.035
 500  1451.86
 501  1413.849
 502  1456.318
 503  1500.414
 504  1569.165
 505  1411.909
 506  1371.308
 507  1635.506
 508  1790.529
 509  1901.121
 510  1743.254
 511  1628.889
 512  1501.163
 513  1512.608
 514  1703.603
 515  1662.355
 516  1622.152
 517  1535.42
 518  1637.121
 519  1578.55
 520  1599.058
 521  1623.584
 522  1721.515
 523  1751.609
 524  1812.207
 525  1718.554
 526  1658.601
 527  1530.953
 528  1505.13
 529  1589.585
 530  1606.091
 531  1510.158
 532  1340.347
 533  1258.874
 534  1348.825
 535  1292.665
 536  1189.907
 537  1168.969
 538  1172.692
 539  1206.507
 540  1250.024
 541  1337.255
 542  1346.762
 543  1305.568
 544  1423.327
 545  1422.303
 546  1394.637
 547  1272.907
 548  1218.692
 549  1159.629
 550  1185.545
 551  1169.115
 552  1330.101
 553  1343.684
 554  1279.165
 555  1138.463
 556  1206.881
 557  1221.132
 558  1236.747
 559  1247.185
 560  1313.652
 561  1336.599
 562  1160.647
 563  1131.33
 564  973.8377
 565  967.7122
 566  1009.88
 567  986.3597
 568  871.9155
 569  861.6648
 570  1033.564
 571  1223.071
 572  1113.775
 573  1052.904
 574  1236.847
 575  1265.819
 576  1353.421
 577  1227.885
 578  1115.841
 579  1052.493
 580  1092.009
 581  1141.079
 582  1219.248
 583  1282.933
 584  1585.973
 585  1571.708
 586  1434.733
 587  1273.8
 588  1243.407
 589  1222.598
 590  1218.224
 591  1239.463
 592  1275.775
 593  1257.767
 594  1353.855
 595  1541.726
 596  1700.005
 597  1909.281
 598  1997.814
 599  2178.888
 600  2175.347
 601  2303.665
 602  2219.939
 603  2254.966
 604  2239.073
 605  2182.061
 606  2007.685
 607  1829.359
 608  1649.657
 609  1496.185
 610  1499.392
 611  1553.892
 612  1657.37
 613  1586.417
 614  1509.214
 615  1415.688
 616  1335.126
 617  1355.468
 618  1314.15
 619  1341.989
 620  1359.67
 621  1451.666
 622  1529.489
 623  1437.351
 624  1488.064
 625  1631.868
 626  1673.405
 627  1595.763
 628  1590.053
 629  1817.761
 630  1751.911
 631  1675.311
 632  1494.5
 633  1546.558
 634  1497.95
 635  1461.726
 636  1494.588
 637  1441.876
 638  1488.794
 639  1450.863
 640  1519.412
 641  1531.66
 642  1624.186
 643  1628.924
 644  1745.985
 645  1731.317
 646  1716.184
 647  1728.317
 648  1683.263
 649  1643.141
 650  1609.393
 651  1555.535
 652  1619.449
 653  1579.574
 654  1721.912
 655  1837.844
 656  1994.654
 657  2005.782
 658  1974.921
 659  1867.392
 660  1704.263
 661  1654.603
 662  1705.536
 663  1815.777
 664  2021.598
 665  1947.718
 666  1937.049
 667  1783.828
 668  1914.674
 669  1899.854
 670  1782.79
 671  1651.572
 672  1623.332
 673  1650.221
 674  1696.369
 675  1728.61
 676  1746.813
 677  1711.521
 678  1740.695
 679  1620.772
 680  1622.261
 681  1589.58
 682  1679.655
 683  1563.971
 684  1585.301
 685  1563.271
 686  1656.032
 687  1462.688
 688  1337.208
 689  1320.743
 690  1318.953
 691  1355.784
 692  1467.089
 693  1473.888
 694  1288.434
 695  1154.663
 696  1228.358
 697  1402.46
 698  1409.323
 699  1337.208
 700  1305.799
 701  1349.492
 702  1353.262
 703  1439.275
 704  1475.009
 705  1541.997
 706  1420.17
 707  1499.588
 708  1559.264
 709  1584.474
 710  1526.118
 711  1432.378
 712  1375.389
 713  1266.236
 714  1237.951
 715  1342.567
 716  1425.523
 717  1450.898
 718  1445.079
 719  1482.392
 720  1530.249
 721  1508.604
 722  1443.217
 723  1393.791
 724  1400.357
 725  1451.838
 726  1454.776
 727  1425.325
 728  1481.18
 729  1450.299
 730  1432.329
 731  1316.14
 732  1285.874
 733  1237.724
 734  1369.377
 735  1401.431
 736  1327.451
 737  1148.977
 738  1084.662
 739  1224.009
 740  1232.782
 741  1233.685
 742  1163.486
 743  1229.881
 744  1330.531
 745  1394.653
 746  1412.363
 747  1297.831
 748  1321.271
 749  1387.959
 750  1526.697
 751  1541.478
 752  1440.419
 753  1369.278
 754  1317.138
 755  1280.238
 756  1328.009
 757  1247.805
 758  1261.165
 759  1212.124
 760  1252.564
 761  1196.828
 762  1210.46
 763  1208.292
 764  1311.396
 765  1453.239
 766  1598.961
 767  1511.728
 768  1345.199
 769  1380.761
 770  1469.153
 771  1509.097
 772  1391.203
 773  1336.42
 774  1374.563
 775  1449.874
 776  1423.784
 777  1407.515
 778  1426.593
 779  1432.14
 780  1370.221
 781  1409.599
 782  1535.349
 783  1639.068
 784  1610.358
 785  1551.387
 786  1629.945
 787  1595.237
 788  1581.444
 789  1602.942
 790  1680.588
 791  1590.564
 792  1457.39
 793  1309.506
 794  1398.684
 795  1504.149
 796  1623.386
 797  1549.393
 798  1550.582
 799  1580.335
 800  1673.605
 801  1625.747
 802  1596.979
 803  1535.23
 804  1477.891
 805  1478.635
 806  1555.763
 807  1648.151
 808  1618.774
 809  1653.286
 810  1612.798
 811  1597.135
 812  1557.831
 813  1586.393
 814  1757.534
 815  1699.392
 816  1735.271
 817  1703.643
 818  1747.963
 819  1778.199
 820  1623.811
 821  1494.024
 822  1432.171
 823  1521.511
 824  1664.499
 825  1635.533
 826  1575.156
 827  1538.217
 828  1622.873
 829  1793.456
 830  1693.064
 831  1552.545
 832  1549.975
 833  1764.876
 834  1867.462
 835  1890.472
 836  1735.106
 837  1652.735
 838  1587.455
 839  1634.499
 840  1580.174
 841  1433.392
 842  1331.371
 843  1363.38
 844  1355.884
 845  1291.846
 846  1220.049
 847  1312.533
 848  1335.876
 849  1384.833
 850  1363.723
 851  1228.117
 852  1275.659
 853  1284.332
 854  1281.191
 855  1237.71
 856  1189.917
 857  1244.678
 858  1292.326
 859  1392.02
 860  1248.654
 861  1165.072
 862  1233.433
 863  1332.423
 864  1293.126
 865  1235.673
 866  1301.665
 867  1231.936
 868  1188.877
 869  1356.227
 870  1458.947
 871  1487.63
 872  1299.839
 873  1312.4
 874  1230.244
 875  1378.284
 876  1437.163
 877  1334.264
 878  1308.492
 879  1311.144
 880  1382.624
 881  1303.666
 882  1310.258
 883  1405.248
 884  1377.58
 885  1246.956
 886  1221.786
 887  1390.249
 888  1509.147
 889  1538.409
 890  1496.883
 891  1430.519
 892  1338.865
 893  1297.579
 894  1375.59
 895  1362.435
 896  1281.366
 897  1200.892
 898  1244.465
 899  1306.567
 900  1416.945
 901  1452.876
 902  1477.521
 903  1375.944
 904  1422.201
 905  1487.016
 906  1587.64
 907  1547.374
 908  1482.502
 909  1490.815
 910  1503.762
 911  1471.575
 912  1616.648
 913  1668.489
 914  1623.282
 915  1409.005
 916  1381.04
 917  1551.635
 918  1684.428
 919  1627.038
 920  1571.987
 921  1604.512
 922  1596.753
 923  1545.273
 924  1518.628
 925  1545.031
 926  1545.964
 927  1413.05
 928  1337.343
 929  1404.312
 930  1597.515
 931  1605.425
 932  1605.28
 933  1572.854
 934  1718.594
 935  1848.919
 936  1774.844
 937  1758.096
 938  1768.113
 939  1866.387
 940  1825.135
 941  1687.008
 942  1658.272
 943  1706.462
 944  1622.655
 945  1598.765
 946  1543.293
 947  1479.91
 948  1388.28
 949  1451.444
 950  1575.89
 951  1637.202
 952  1649.449
 953  1728.063
 954  1714.045
 955  1693.002
 956  1588.056
 957  1723.923
 958  1696.5
 959  1586.182
 960  1450.103
 961  1441.995
 962  1561.118
 963  1578.339
 964  1533.141
 965  1471.685
 966  1511.886
 967  1641.529
 968  1670.418
 969  1651.058
 970  1424.688
 971  1394.347
 972  1430.883
 973  1487.173
 974  1561.939
 975  1495.173
 976  1491.143
 977  1333.441
 978  1319.421
 979  1299.738
 980  1388.97
 981  1344.193
 982  1481.499
 983  1456.998
 984  1340.871
 985  1306.848
 986  1301.75
 987  1379.889
 988  1394.32
 989  1476.505
 990  1393.925
 991  1318.473
 992  1298.259
 993  1191.38
 994  1184.362
 995  1028.43
 996  1128.598
 997  1131.279
 998  1162.198
 999  1042.105
1000  1020.698
1001  1105.226
1002  1248.496
1003  1335.621
1004  1300.181
1005  1274.475
1006  1299.8
1007  1284.586
1008  1252.644
1009  1259.446
1010  1338.843
1011  1236.818
1012  1189.972
1013  1112.048
1014  1202.256
1015  1215.267
1016  1221.831
1017  1242.417
1018  1184.9
1019  1232.407
1020  1157.72
1021  1251.332
1022  1202.999
1023  1331.191
