# Input file       =  1208843057.118752_cleaned.dat
# Candidate        =  PSR_0332+5434
# Telescope        =  AR
# Epoch_topo       =  58235.239306930001
# Epoch_bary       =  N/A
# T_sample         =  0.002
# Data Folded      =  7208960
# Data Avg         =  0.0578155346266429
# Data StdDev      =  1.00039667639609 
# Profile Bins     =  512
# Profile Avg      =  814.041758280792 
# Profile StdDev   =  118.706245087747 
# Reduced chi-sqr  =  1.316
# Prob(Noise)      <  1.97e-06   (~4.6 sigma)
# P_topo (ms)      =  714.55004310013   +/- 0.000205
# P'_topo (s/s)    =  -0                +/- 1.1e-10
# P''_topo (s/s^2) =  0                 +/- 4.96e-14
# P_bary (ms)      =  N/A
# P'_bary (s/s)    =  N/A
# P''_bary (s/s^2) =  N/A
# P_orb (s)        =  N/A
# asin(i)/c (s)    =  N/A
# eccentricity     =  N/A
# w (rad)          =  N/A
# T_peri           =  N/A
######################################################
   0  1422.772
   1  1409.091
   2  1190.133
   3  997.235
   4  823.1672
   5  739.2472
   6  837.562
   7  865.4625
   8  971.6832
   9  850.3594
  10  892.8522
  11  767.6199
  12  757.142
  13  816.4642
  14  790.4942
  15  834.3701
  16  747.6507
  17  774.701
  18  830.6741
  19  678.7092
  20  733.8239
  21  845.9125
  22  845.1758
  23  887.7941
  24  740.6242
  25  786.5882
  26  877.1165
  27  838.3635
  28  894.4969
  29  835.0727
  30  818.7379
  31  834.4614
  32  792.907
  33  847.3023
  34  823.481
  35  765.6506
  36  790.9423
  37  760.7468
  38  747.5074
  39  792.2755
  40  793.9374
  41  769.2758
  42  882.8687
  43  778.2789
  44  799.5766
  45  893.7014
  46  925.3677
  47  1031.898
  48  898.3856
  49  864.8311
  50  758.397
  51  801.5027
  52  944.5749
  53  941.7493
  54  922.6713
  55  911.8972
  56  981.3548
  57  840.8073
  58  877.8405
  59  926.1846
  60  850.8809
  61  811.7728
  62  777.7716
  63  754.7866
  64  798.1939
  65  826.6176
  66  972.0793
  67  865.7784
  68  706.1104
  69  801.5462
  70  846.5439
  71  777.0905
  72  738.8956
  73  847.6606
  74  816.7397
  75  765.1515
  76  754.4553
  77  742.8773
  78  835.5494
  79  931.7772
  80  880.7529
  81  737.0068
  82  746.9649
  83  807.2249
  84  782.0639
  85  815.2771
  86  848.1606
  87  804.7712
  88  750.4744
  89  673.7009
  90  803.5781
  91  852.2055
  92  840.395
  93  816.277
  94  770.0364
  95  864.2961
  96  810.5845
  97  758.4674
  98  919.1404
  99  1014.888
 100  901.9135
 101  935.466
 102  777.2265
 103  707.3578
 104  805.5939
 105  809.8283
 106  709.9088
 107  871.9604
 108  786.423
 109  785.1498
 110  722.1582
 111  843.889
 112  872.4927
 113  836.4269
 114  854.7579
 115  857.5585
 116  778.5878
 117  754.1582
 118  752.4588
 119  744.0494
 120  766.1533
 121  719.2975
 122  763.699
 123  744.7452
 124  767.0286
 125  824.2957
 126  800.5771
 127  731.5952
 128  743.5303
 129  746.9574
 130  829.2919
 131  916.2571
 132  848.7541
 133  700.9249
 134  772.4491
 135  844.9441
 136  802.2315
 137  828.1946
 138  796.8972
 139  780.9504
 140  748.564
 141  894.2535
 142  922.6586
 143  854.549
 144  816.7228
 145  848.1305
 146  763.6345
 147  765.9897
 148  804.3442
 149  784.1533
 150  724.5618
 151  727.1058
 152  752.5781
 153  755.5451
 154  763.0856
 155  810.9791
 156  835.639
 157  846.9229
 158  819.0139
 159  753.7267
 160  708.313
 161  723.1157
 162  716.1937
 163  782.5056
 164  871.8206
 165  863.5822
 166  807.2413
 167  883.5691
 168  829.2509
 169  868.8389
 170  708.65
 171  732.5428
 172  842.6912
 173  764.8461
 174  859.6071
 175  881.6798
 176  915.1784
 177  802.2451
 178  758.4774
 179  841.8691
 180  816.3629
 181  820.5288
 182  924.4142
 183  827.3356
 184  776.8517
 185  786.3068
 186  619.696
 187  722.9534
 188  764.0798
 189  780.3572
 190  750.8521
 191  742.8197
 192  791.2654
 193  712.4282
 194  737.5027
 195  688.8751
 196  779.0088
 197  798.3904
 198  769.3246
 199  748.7292
 200  777.0314
 201  860.6641
 202  928.0635
 203  877.4124
 204  797.2929
 205  808.9629
 206  764.4695
 207  901.4785
 208  878.8605
 209  894.7623
 210  759.8541
 211  701.9935
 212  888.1996
 213  840.4787
 214  764.2842
 215  791.1752
 216  818.2205
 217  779.8441
 218  779.2189
 219  816.7213
 220  787.988
 221  717.1024
 222  818.9847
 223  821.7277
 224  745.6893
 225  799.5938
 226  754.5057
 227  885.4301
 228  972.816
 229  900.3719
 230  807.0153
 231  906.8659
 232  849.138
 233  819.8585
 234  891.2136
 235  852.7075
 236  871.6727
 237  889.5452
 238  882.7713
 239  872.5328
 240  807.9886
 241  889.3192
 242  853.2768
 243  889.4396
 244  847.4277
 245  898.1289
 246  1003.957
 247  950.9088
 248  890.1761
 249  833.2264
 250  876.9266
 251  707.6581
 252  740.1172
 253  822.4388
 254  915.1598
 255  1016.602
 256  909.4143
 257  927.3955
 258  982.3292
 259  926.8071
 260  796.7191
 261  909.3328
 262  975.8654
 263  874.2197
 264  791.282
 265  834.4409
 266  898.8203
 267  893.7801
 268  712.2777
 269  732.1565
 270  783.5377
 271  908.393
 272  897.1675
 273  944.6823
 274  935.7368
 275  884.4579
 276  869.6093
 277  776.7157
 278  844.6346
 279  890.8441
 280  837.2314
 281  735.1684
 282  723.2858
 283  703.8807
 284  761.0687
 285  716.7381
 286  644.3462
 287  713.1329
 288  859.0084
 289  905.1739
 290  890.8136
 291  882.7039
 292  916.27
 293  787.2737
 294  736.6425
 295  804.8746
 296  803.3797
 297  741.944
 298  853.4015
 299  884.257
 300  864.8217
 301  771.029
 302  670.3837
 303  725.1738
 304  840.4175
 305  693.2151
 306  785.4064
 307  842.3139
 308  845.5359
 309  788.5744
 310  876.0047
 311  945.3574
 312  1002.305
 313  911.4937
 314  818.5142
 315  811.5789
 316  771.1113
 317  746.6826
 318  701.8858
 319  805.0869
 320  820.287
 321  809.2868
 322  866.3812
 323  816.1712
 324  850.4993
 325  806.1945
 326  765.915
 327  740.5801
 328  891.7066
 329  885.0782
 330  924.6331
 331  893.6128
 332  835.6437
 333  924.7758
 334  788.277
 335  682.7801
 336  731.9971
 337  749.4667
 338  862.2808
 339  830.2313
 340  837.8395
 341  835.0413
 342  777.9357
 343  739.0598
 344  784.9248
 345  848.4965
 346  861.044
 347  781.4118
 348  795.4407
 349  899.5194
 350  863.636
 351  822.0593
 352  942.303
 353  1060.643
 354  934.7373
 355  863.4191
 356  952.6031
 357  898.8785
 358  845.8917
 359  839.6826
 360  857.3834
 361  819.0405
 362  781.3306
 363  835.7354
 364  814.779
 365  942.1554
 366  814.4693
 367  900.4785
 368  863.6107
 369  839.097
 370  902.8019
 371  906.4396
 372  842.9996
 373  774.0568
 374  813.5151
 375  877.1924
 376  783.2441
 377  734.3334
 378  781.2835
 379  795.1476
 380  889.3732
 381  1033.431
 382  957.5336
 383  828.1613
 384  765.6051
 385  762.9265
 386  753.5036
 387  723.1968
 388  782.4289
 389  741.6111
 390  712.2717
 391  846.3137
 392  862.1959
 393  879.2313
 394  648.5452
 395  715.0906
 396  730.6172
 397  798.8367
 398  796.1101
 399  627.2909
 400  775.0814
 401  788.8136
 402  808.3349
 403  674.0078
 404  655.8748
 405  654.8612
 406  675.525
 407  718.0872
 408  611.1049
 409  631.0047
 410  719.2822
 411  752.7551
 412  789.2698
 413  691.0019
 414  644.0408
 415  629.7462
 416  810.5118
 417  788.2953
 418  669.7863
 419  843.8007
 420  862.2523
 421  691.1257
 422  730.4331
 423  854.6332
 424  833.3347
 425  722.6716
 426  734.33
 427  821.5907
 428  694.2206
 429  668.5602
 430  811.5375
 431  774.1254
 432  704.0226
 433  661.1449
 434  736.5563
 435  767.9861
 436  807.0775
 437  636.3824
 438  591.0563
 439  676.4449
 440  662.6544
 441  757.178
 442  667.5956
 443  741.0926
 444  815.7946
 445  799.4235
 446  834.2513
 447  725.367
 448  709.9377
 449  734.233
 450  632.1486
 451  671.8148
 452  767.4039
 453  747.4875
 454  645.05
 455  736.2729
 456  807.7251
 457  852.7142
 458  788.5494
 459  818.7518
 460  766.2343
 461  746.5583
 462  815.9543
 463  797.1042
 464  800.6611
 465  821.2892
 466  763.6118
 467  795.239
 468  769.9072
 469  737.1996
 470  643.0537
 471  724.9957
 472  781.4952
 473  769.5721
 474  760.7103
 475  610.5649
 476  807.3647
 477  822.4495
 478  867.9049
 479  814.9615
 480  883.037
 481  744.4781
 482  682.3297
 483  734.8693
 484  694.7673
 485  730.5831
 486  813.0339
 487  731.6379
 488  709.6359
 489  762.7941
 490  862.6331
 491  767.0609
 492  875.4679
 493  844.2365
 494  827.7781
 495  868.5596
 496  846.0323
 497  792.3846
 498  744.3806
 499  768.6686
 500  763.2164
 501  729.631
 502  737.2165
 503  826.6002
 504  843.4619
 505  836.5023
 506  878.2781
 507  880.9794
 508  938.4528
 509  1148.281
 510  1408.155
 511  1571.563
