# Input file       =  1208254407.118015_cleaned.dat
# Candidate        =  PSR_0332+5434
# Telescope        =  AR
# Epoch_topo       =  58228.426228217766
# Epoch_bary       =  N/A
# T_sample         =  0.002
# Data Folded      =  7340032
# Data Avg         =  0.0439468157511305
# Data StdDev      =  1.00000767243793 
# Profile Bins     =  512
# Profile Avg      =  630.031931809005 
# Profile StdDev   =  119.733955021055 
# Reduced chi-sqr  =  1.608
# Prob(Noise)      <  6.72e-17   (~8.3 sigma)
# P_topo (ms)      =  714.555852763692  +/- 0.000437
# P'_topo (s/s)    =  -0                +/- 2.31e-10
# P''_topo (s/s^2) =  0                 +/- 1.02e-13
# P_bary (ms)      =  N/A
# P'_bary (s/s)    =  N/A
# P''_bary (s/s^2) =  N/A
# P_orb (s)        =  N/A
# asin(i)/c (s)    =  N/A
# eccentricity     =  N/A
# w (rad)          =  N/A
# T_peri           =  N/A
######################################################
   0  1167.565
   1  1089.953
   2  953.3003
   3  766.8499
   4  677.3442
   5  708.6777
   6  783.6356
   7  722.9462
   8  667.0724
   9  609.6158
  10  567.9037
  11  643.3452
  12  667.0788
  13  676.6514
  14  780.8257
  15  768.5464
  16  787.7321
  17  756.6982
  18  675.1996
  19  649.6655
  20  632.59
  21  620.7589
  22  627.3103
  23  654.7175
  24  644.9592
  25  623.5712
  26  665.8545
  27  675.9282
  28  644.0941
  29  657.8591
  30  669.5812
  31  668.4321
  32  573.6512
  33  583.7178
  34  563.3477
  35  537.8699
  36  548.0165
  37  549.9507
  38  523.2819
  39  436.3903
  40  509.139
  41  571.5976
  42  565.4305
  43  499.3316
  44  513.5043
  45  560.7132
  46  589.3959
  47  527.8477
  48  530.7795
  49  560.629
  50  647.7775
  51  624.9144
  52  563.7665
  53  621.3281
  54  673.6624
  55  726.054
  56  647.6219
  57  691.4137
  58  792.8848
  59  713.2643
  60  565.3053
  61  658.2331
  62  656.2194
  63  684.7393
  64  656.9895
  65  653.0867
  66  675.3036
  67  719.4169
  68  779.6862
  69  689.5169
  70  613.0667
  71  642.925
  72  649.9312
  73  712.1936
  74  720.0753
  75  647.6199
  76  681.8532
  77  639.5132
  78  658.0433
  79  602.1274
  80  628.7795
  81  638.8527
  82  661.6085
  83  624.0217
  84  668.4324
  85  597.8016
  86  598.1682
  87  594.5524
  88  601.7366
  89  580.7525
  90  553.4554
  91  591.6078
  92  615.3264
  93  593.9622
  94  561.357
  95  592.7051
  96  670.653
  97  732.4066
  98  621.2753
  99  582.3256
 100  595.9565
 101  659.0164
 102  629.8126
 103  605.9539
 104  587.1549
 105  617.3207
 106  639.6666
 107  598.192
 108  493.8262
 109  494.7498
 110  539.6813
 111  589.8984
 112  582.7869
 113  648.5736
 114  628.0198
 115  547.2171
 116  542.9056
 117  562.975
 118  652.6785
 119  646.3312
 120  670.1095
 121  657.4287
 122  536.5727
 123  609.9861
 124  598.5742
 125  617.7465
 126  672.1717
 127  662.0843
 128  690.005
 129  619.6475
 130  617.145
 131  686.9158
 132  657.8394
 133  686.0459
 134  646.8005
 135  660.083
 136  709.0344
 137  649.9717
 138  590.4092
 139  701.6252
 140  787.6387
 141  698.1581
 142  680.838
 143  701.4492
 144  698.5968
 145  677.0342
 146  643.1297
 147  678.4866
 148  671.0683
 149  684.4413
 150  635.873
 151  564.1232
 152  546.0488
 153  587.3846
 154  584.8993
 155  580.9337
 156  606.4482
 157  610.5094
 158  585.3168
 159  545.7124
 160  658.9838
 161  596.0236
 162  516.9951
 163  553.3436
 164  536.7418
 165  546.3786
 166  582.7246
 167  576.1178
 168  595.598
 169  548.0785
 170  528.7971
 171  595.5907
 172  509.8015
 173  578.4468
 174  557.9074
 175  456.2251
 176  485.0343
 177  567.3422
 178  491.3566
 179  528.2389
 180  490.0287
 181  545.8886
 182  631.5757
 183  557.9056
 184  617.0619
 185  691.9022
 186  624.2826
 187  574.3072
 188  591.5184
 189  541.4471
 190  538.7691
 191  570.4787
 192  667.7665
 193  699.4521
 194  660.2015
 195  643.3389
 196  585.4074
 197  595.1055
 198  642.0794
 199  573.8087
 200  575.9526
 201  612.4225
 202  649.0313
 203  661.6041
 204  694.5576
 205  722.8923
 206  703.2827
 207  661.8863
 208  669.3967
 209  722.0934
 210  680.2565
 211  650.63
 212  726.2612
 213  812.926
 214  781.1199
 215  789.912
 216  729.2745
 217  763.0997
 218  751.2754
 219  694.1484
 220  682.1396
 221  678.5656
 222  711.2014
 223  734.4368
 224  685.814
 225  611.6655
 226  693.5107
 227  595.7784
 228  634.9941
 229  663.2913
 230  641.5171
 231  661.1628
 232  671.1208
 233  688.6615
 234  691.798
 235  629.0516
 236  696.6777
 237  682.2476
 238  593.8663
 239  616.3645
 240  677.2813
 241  697.2867
 242  652.9303
 243  593.0483
 244  673.9747
 245  597.2811
 246  598.0237
 247  600.9307
 248  560.454
 249  511.9761
 250  584.5267
 251  662.9933
 252  646.3065
 253  701.7789
 254  639.0048
 255  607.3656
 256  538.3741
 257  642.8192
 258  651.0858
 259  601.9545
 260  621.7849
 261  671.5527
 262  627.4926
 263  518.4933
 264  561.8728
 265  652.7824
 266  656.7091
 267  583.4724
 268  607.2698
 269  642.9661
 270  619.1104
 271  590.259
 272  596.8072
 273  624.4222
 274  736.0481
 275  783.0732
 276  758.9169
 277  703.0554
 278  591.2861
 279  645.5386
 280  744.7816
 281  744.7042
 282  788.6797
 283  808.5376
 284  756.4379
 285  730.8794
 286  774.8348
 287  825.5768
 288  787.8376
 289  688.0587
 290  675.0327
 291  763.6665
 292  810.0403
 293  822.0717
 294  730.4343
 295  684.0349
 296  623.9204
 297  740.8541
 298  823.3143
 299  745.2827
 300  769.4283
 301  748.6166
 302  719.2636
 303  687.5475
 304  708.9636
 305  721.2693
 306  758.2324
 307  693.299
 308  714.6673
 309  642.8227
 310  653.5724
 311  632.64
 312  652.8876
 313  668.8999
 314  660.251
 315  706.8523
 316  663.1421
 317  674.9747
 318  709.145
 319  759.3175
 320  691.9019
 321  667.6714
 322  628.6819
 323  558.9135
 324  525.4315
 325  534.7863
 326  526.553
 327  562.5866
 328  613.4526
 329  631.7014
 330  628.9548
 331  566.6564
 332  432.3787
 333  499.1288
 334  546.9828
 335  556.586
 336  518.7601
 337  496.902
 338  510.4321
 339  496.4841
 340  547.3447
 341  501.7823
 342  462.6256
 343  457.1419
 344  433.4729
 345  428.0401
 346  471.6935
 347  502.7172
 348  550.2048
 349  566.2405
 350  499.1817
 351  455.2362
 352  485.6808
 353  626.3979
 354  554.9893
 355  537.1118
 356  563.6502
 357  538.7006
 358  529.987
 359  452.2504
 360  534.0674
 361  530.0616
 362  546.9283
 363  510.8361
 364  455.6629
 365  526.8456
 366  495.7229
 367  443.1625
 368  417.9256
 369  525.1519
 370  482.8714
 371  469.1563
 372  503.6818
 373  471.159
 374  432.9255
 375  456.2055
 376  520.1431
 377  485.9169
 378  334.2924
 379  305.2653
 380  354.5552
 381  405.2835
 382  378.1019
 383  381.7941
 384  377.8958
 385  352.2301
 386  330.7811
 387  342.3312
 388  438.0602
 389  521.3729
 390  480.289
 391  387.5636
 392  430.9669
 393  485.9425
 394  547.8109
 395  519.5383
 396  480.9497
 397  573.9687
 398  491.0699
 399  483.3911
 400  451.8704
 401  487.0344
 402  550.5433
 403  494.9697
 404  377.993
 405  464.5337
 406  490.2894
 407  499.8967
 408  461.3192
 409  454.2039
 410  522.1125
 411  588.3799
 412  568.1153
 413  570.6121
 414  563.3479
 415  600.8574
 416  622.5726
 417  668.392
 418  677.714
 419  684.7852
 420  655.2575
 421  663.329
 422  675.3991
 423  611.2496
 424  663.0248
 425  693.3807
 426  666.8284
 427  684.3032
 428  777.515
 429  785.9126
 430  761.3033
 431  795.1298
 432  827.8786
 433  810.9689
 434  710.4428
 435  735.6702
 436  737.9707
 437  676.2967
 438  684.7161
 439  702.2784
 440  688.5669
 441  683.6923
 442  698.9144
 443  693.7865
 444  641.3571
 445  634.2323
 446  670.0222
 447  553.8423
 448  602.7878
 449  612.4617
 450  598.5969
 451  586.4876
 452  607.8138
 453  696.4048
 454  573.4407
 455  640.1683
 456  695.6129
 457  650.9139
 458  640.5576
 459  541.0532
 460  536.4371
 461  648.4606
 462  561.9717
 463  540.8294
 464  536.4509
 465  597.2448
 466  610.4868
 467  597.7628
 468  597.8223
 469  571.9369
 470  545.5794
 471  625.2406
 472  572.4953
 473  627.8986
 474  627.5655
 475  704.3346
 476  682.1083
 477  642.3026
 478  686.1478
 479  730.3509
 480  710.4621
 481  673.2066
 482  687.8683
 483  738.2648
 484  748.3533
 485  749.7478
 486  729.0098
 487  748.6418
 488  780.1046
 489  730.8521
 490  756.8401
 491  864.2269
 492  858.856
 493  801.0244
 494  757.6239
 495  769.4561
 496  717.8109
 497  740.748
 498  775.5555
 499  835.1448
 500  814.5004
 501  777.8733
 502  790.3063
 503  791.4518
 504  833.48
 505  796.8243
 506  810.4813
 507  892.2872
 508  926.4342
 509  963.0797
 510  1052.488
 511  1154.336
