# Input file       =  1208756838.127308_cleaned.dat
# Candidate        =  PSR_0332+5434
# Telescope        =  AR
# Epoch_topo       =  58234.241401936437
# Epoch_bary       =  N/A
# T_sample         =  0.002
# Data Folded      =  7208960
# Data Avg         =  0.138963679636998
# Data StdDev      =  5.50248574593447 
# Profile Bins     =  512
# Profile Avg      =  1956.3964688693  
# Profile StdDev   =  652.920423428234 
# Reduced chi-sqr  =  0.521
# Prob(Noise)      <  1   (~0.0 sigma)
# P_topo (ms)      =  714.550912393901  +/- 0.000104
# P'_topo (s/s)    =  -0                +/- 5.59e-11
# P''_topo (s/s^2) =  0                 +/- 2.51e-14
# P_bary (ms)      =  N/A
# P'_bary (s/s)    =  N/A
# P''_bary (s/s^2) =  N/A
# P_orb (s)        =  N/A
# asin(i)/c (s)    =  N/A
# eccentricity     =  N/A
# w (rad)          =  N/A
# T_peri           =  N/A
######################################################
   0  2290.705
   1  1766.941
   2  1462.814
   3  1547.756
   4  1790.146
   5  1728.671
   6  2350.234
   7  2326.511
   8  1840.961
   9  1740.742
  10  1524.463
  11  1548.373
  12  1789.617
  13  2042.323
  14  2161.705
  15  1732.129
  16  1630.357
  17  1971.465
  18  1607.516
  19  1924.061
  20  1999.807
  21  1952.434
  22  1491.505
  23  1659.269
  24  1638.349
  25  1948.342
  26  1817.679
  27  2023.24
  28  2052.328
  29  2204.136
  30  2097.409
  31  2014.702
  32  1976.997
  33  2065.432
  34  1751.033
  35  1838.143
  36  1744.069
  37  1769.082
  38  1799.653
  39  1953.51
  40  2238.731
  41  2111.898
  42  2038.24
  43  1992.762
  44  2070.366
  45  2229.278
  46  1958.033
  47  2069.09
  48  2324.842
  49  2133.613
  50  1753.479
  51  1460.359
  52  1552.777
  53  1317.617
  54  1584.405
  55  1900.801
  56  1775.563
  57  2191.232
  58  1927.92
  59  1448.645
  60  1554.912
  61  1704.499
  62  2017.238
  63  2335.558
  64  2040.737
  65  1638.377
  66  1700.067
  67  2064.29
  68  1725.626
  69  1520.064
  70  1474.068
  71  1970.143
  72  2136.021
  73  2262.817
  74  2369.187
  75  2100.352
  76  1713.927
  77  2151.067
  78  2302.84
  79  2234.78
  80  2115.872
  81  1565.827
  82  1648.618
  83  1732.443
  84  2138.318
  85  2228.906
  86  1962.677
  87  1970.098
  88  1873.609
  89  1638.767
  90  1425.405
  91  2126.344
  92  2208.205
  93  2033.479
  94  2022.432
  95  1987.525
  96  1580.06
  97  1617.744
  98  1436.813
  99  1649.271
 100  1870.009
 101  1777.661
 102  2425.636
 103  2054.527
 104  1828.205
 105  1831.335
 106  1838.408
 107  1968.429
 108  1893.577
 109  1575.029
 110  1851.877
 111  2137.795
 112  1837.913
 113  1372.49
 114  1725.13
 115  1702.24
 116  1704.147
 117  1667.415
 118  1489.961
 119  1621.655
 120  1881.665
 121  1776.6
 122  1666.199
 123  1527.785
 124  2000.179
 125  2123.149
 126  1900.017
 127  1584.6
 128  1694.239
 129  1978.801
 130  1783.693
 131  1734.219
 132  1884.954
 133  1672.487
 134  1641.675
 135  1475.042
 136  1593.319
 137  2224.757
 138  2172.763
 139  2152.174
 140  2153.527
 141  1631.112
 142  1657.564
 143  1745.737
 144  2128.288
 145  1947.786
 146  2037.867
 147  2112.469
 148  1721.385
 149  1786.266
 150  1400.695
 151  1785.864
 152  2045.736
 153  1961.046
 154  1953.16
 155  1648.782
 156  1950.325
 157  2201.589
 158  2153.969
 159  2083.768
 160  1533.34
 161  1566.7
 162  1857.151
 163  1686.145
 164  1892.397
 165  1909.666
 166  1719.684
 167  1552.134
 168  2013.021
 169  2454.42
 170  2190.613
 171  1961.37
 172  1932.545
 173  2005.315
 174  1951.887
 175  2034.617
 176  2225.065
 177  2373.582
 178  2176.804
 179  1864.399
 180  1984.21
 181  1983.674
 182  1805.573
 183  1962.477
 184  2353.8
 185  1787.107
 186  1760.217
 187  1568.715
 188  1804.196
 189  1575.977
 190  2022.587
 191  2267.077
 192  1827.185
 193  1814.466
 194  1933.702
 195  1796.314
 196  1795.47
 197  1793.029
 198  1930.824
 199  1727.687
 200  1673.482
 201  1810.009
 202  1812.24
 203  1829.372
 204  1589.964
 205  1612.305
 206  1864.191
 207  1766.867
 208  2037.166
 209  2265.208
 210  2130.566
 211  1927.982
 212  2159.221
 213  2471.141
 214  1875.062
 215  1905.117
 216  1686.847
 217  1518.222
 218  1715.115
 219  2040.132
 220  2544.602
 221  2327.976
 222  2112.812
 223  1881.509
 224  1589.16
 225  1796.718
 226  1931.04
 227  1679.249
 228  1942.248
 229  2055.284
 230  2206.11
 231  1902.044
 232  2018.74
 233  2020.835
 234  2178.213
 235  2266.585
 236  1699.779
 237  1277.141
 238  1656.519
 239  1873.889
 240  2073.564
 241  1997.105
 242  2188.356
 243  2002.426
 244  1735.915
 245  2182.891
 246  1680.285
 247  1969.908
 248  1862.034
 249  1720.039
 250  1648.2
 251  1357.684
 252  2001.476
 253  2059.336
 254  1755.342
 255  1746.578
 256  2014.16
 257  1762.124
 258  2114.385
 259  2140.646
 260  2147.574
 261  1888.576
 262  1672.945
 263  1703.681
 264  1663.248
 265  1788.874
 266  1797.71
 267  1799.509
 268  1670.938
 269  1665.318
 270  1751.042
 271  1850.205
 272  2262.448
 273  2332.265
 274  2318.205
 275  1964.791
 276  1876.795
 277  1795.509
 278  1732.967
 279  2226.936
 280  1814.86
 281  1771.665
 282  2018.311
 283  1665.794
 284  1935.269
 285  2087.531
 286  1854.948
 287  1906.684
 288  1808.971
 289  1941.479
 290  2006.314
 291  1940.761
 292  1710.74
 293  1984.007
 294  2792.657
 295  2425.124
 296  2025.781
 297  1902.983
 298  1884.476
 299  1934.622
 300  2037.51
 301  1947.427
 302  2008.565
 303  1635.467
 304  2436.715
 305  2321.715
 306  1790.065
 307  1582.985
 308  1895.542
 309  2143.603
 310  2083.566
 311  2435.46
 312  2045.818
 313  1538.396
 314  1617.292
 315  1791.405
 316  2016.619
 317  2201.789
 318  2254.589
 319  2032.525
 320  1734.623
 321  1720.314
 322  1783.802
 323  1806.604
 324  2048.379
 325  1939.331
 326  1743.296
 327  1680.871
 328  1945.31
 329  2082.483
 330  2101.145
 331  2357.271
 332  1807.832
 333  1564.347
 334  2008.312
 335  2015.794
 336  1897.086
 337  1723.339
 338  2537.488
 339  2434.228
 340  1501.863
 341  1250.268
 342  1764.682
 343  2056.686
 344  1877.957
 345  2282.474
 346  2436.211
 347  2286.938
 348  1998.633
 349  2001.365
 350  2186.463
 351  2148.837
 352  2020.961
 353  1879.011
 354  1917.847
 355  1801.554
 356  1866.742
 357  1916.17
 358  2622.07
 359  2269.835
 360  1971.394
 361  2203.504
 362  2214.849
 363  2019.619
 364  2053.446
 365  2171.615
 366  1913.027
 367  1993.743
 368  2089.397
 369  2015.258
 370  2124.292
 371  2217.514
 372  2100.047
 373  1393.744
 374  1185.04
 375  1894.59
 376  2512.576
 377  2256.624
 378  2546.885
 379  2506.995
 380  2126.827
 381  2084.213
 382  1831.148
 383  2256.783
 384  2148.005
 385  1606.774
 386  1724.529
 387  1766.404
 388  1837.714
 389  1856.93
 390  2320.329
 391  2421.405
 392  1788.342
 393  1738.038
 394  2067.589
 395  1793.95
 396  1867.06
 397  2174.303
 398  2065.376
 399  2006.857
 400  1639.239
 401  1863.871
 402  1898.756
 403  2313.786
 404  2155.108
 405  2208.869
 406  2287.069
 407  1913.049
 408  1761.528
 409  2046.477
 410  2237.141
 411  1822.022
 412  2404.015
 413  2617.302
 414  2317.72
 415  1940.607
 416  2281.106
 417  2822.803
 418  2817.324
 419  3293.473
 420  4269.673
 421  4516.399
 422  4455.822
 423  3403.718
 424  2835.521
 425  2075.475
 426  2288.598
 427  2780.712
 428  2391.438
 429  2058.524
 430  1932.6
 431  1672.597
 432  1655.837
 433  1757.146
 434  2315.666
 435  2668.165
 436  2393.996
 437  2289.003
 438  2361.226
 439  1735.802
 440  1437.913
 441  2034.148
 442  2502.076
 443  2281.489
 444  2255.969
 445  2184.482
 446  1997.657
 447  1767.638
 448  2412.734
 449  1749.695
 450  1964.55
 451  2242.019
 452  2150.808
 453  1979.966
 454  2284.92
 455  2006.591
 456  2178.883
 457  2356.125
 458  1842.069
 459  1656.727
 460  1726.446
 461  2001.496
 462  2035.35
 463  2223.435
 464  1873.081
 465  1600
 466  1583.967
 467  2009.702
 468  1733.806
 469  1504.766
 470  2179.394
 471  2299.31
 472  1965.461
 473  1743.099
 474  1943.91
 475  2179.644
 476  1870.351
 477  2098.637
 478  1960.692
 479  1703.782
 480  1722.759
 481  1825.698
 482  1820.567
 483  1345.335
 484  1516.487
 485  1727.261
 486  1964.615
 487  2016.759
 488  1972.246
 489  1630.293
 490  1769.816
 491  1701.373
 492  1895.086
 493  1941.515
 494  2044.862
 495  2104.175
 496  1811.636
 497  1474.489
 498  1673.883
 499  1884.575
 500  2194.515
 501  2032.009
 502  1585.4
 503  1341.54
 504  1864.355
 505  1824.196
 506  1380.896
 507  1737.774
 508  1981.188
 509  2239.063
 510  2055.861
 511  2107.887
