# Input file       =  1208010727.122757_cleaned.dat
# Candidate        =  PSR_0332+5434
# Telescope        =  AR
# Epoch_topo       =  58225.605857902279
# Epoch_bary       =  N/A
# T_sample         =  0.002
# Data Folded      =  7340032
# Data Avg         =  0.193024169115233
# Data StdDev      =  5.45282332785306 
# Profile Bins     =  1024
# Profile Avg      =  1383.58532871844 
# Profile StdDev   =  461.658062997466 
# Reduced chi-sqr  =  1.037
# Prob(Noise)      <  0.2   (~0.8 sigma)
# P_topo (ms)      =  714.558472309909  +/- 0.000644
# P'_topo (s/s)    =  -0                +/- 3.4e-10
# P''_topo (s/s^2) =  0                 +/- 1.5e-13
# P_bary (ms)      =  N/A
# P'_bary (s/s)    =  N/A
# P''_bary (s/s^2) =  N/A
# P_orb (s)        =  N/A
# asin(i)/c (s)    =  N/A
# eccentricity     =  N/A
# w (rad)          =  N/A
# T_peri           =  N/A
######################################################
   0  1330.083
   1  1389.784
   2  1383.075
   3  1378.8
   4  1417.425
   5  1496.581
   6  1548.791
   7  1497.093
   8  1451.038
   9  1461.866
  10  1367.234
  11  1329.079
  12  1378.785
  13  1526.826
  14  1592.43
  15  1668.716
  16  1490.23
  17  1507.518
  18  1494.423
  19  1521.672
  20  1364.186
  21  1201.746
  22  1146.351
  23  1219.97
  24  1149.314
  25  1120.958
  26  1093.261
  27  1222.766
  28  1287.375
  29  1326.072
  30  1334.849
  31  1417.076
  32  1469.671
  33  1498.437
  34  1500.89
  35  1457.249
  36  1349.839
  37  1373.37
  38  1269.609
  39  1327.185
  40  1343.519
  41  1499.111
  42  1418.441
  43  1455.574
  44  1514.436
  45  1588.92
  46  1600.912
  47  1539.146
  48  1592.016
  49  1689.151
  50  1673.084
  51  1593.518
  52  1568.407
  53  1803.664
  54  1865.856
  55  1929.293
  56  1877.557
  57  1765.905
  58  1621.769
  59  1619.668
  60  1634.754
  61  1652.767
  62  1566.503
  63  1608.719
  64  1623.393
  65  1712.097
  66  1544.517
  67  1518.838
  68  1600.531
  69  1651.857
  70  1594.105
  71  1555.413
  72  1574.199
  73  1582.655
  74  1646.509
  75  1621.262
  76  1591.924
  77  1570.073
  78  1548.719
  79  1482.696
  80  1484.181
  81  1565.331
  82  1646.809
  83  1787.742
  84  1881.173
  85  1879.913
  86  1837.524
  87  1783.813
  88  1730.479
  89  1784.885
  90  1928.354
  91  1937.369
  92  2064.455
  93  1988.899
  94  1796.216
  95  1617.985
  96  1597.393
  97  1707.962
  98  1628.766
  99  1538.697
 100  1542.349
 101  1429.97
 102  1473.219
 103  1436.65
 104  1621.229
 105  1608.927
 106  1465.633
 107  1445.291
 108  1396.97
 109  1452.818
 110  1339.397
 111  1377.881
 112  1462.17
 113  1499.62
 114  1389.703
 115  1256.278
 116  1226.9
 117  1202.779
 118  1088.124
 119  1095.335
 120  1034.154
 121  1116.826
 122  1180.594
 123  1392.14
 124  1405.36
 125  1378.967
 126  1291.696
 127  1277.592
 128  1379.532
 129  1450.791
 130  1519.618
 131  1470.423
 132  1424.715
 133  1329.126
 134  1262.901
 135  1046.715
 136  1007.669
 137  975.1418
 138  1043.458
 139  1034.639
 140  1097.551
 141  1123.563
 142  1286.659
 143  1325.072
 144  1328.564
 145  1336.583
 146  1309.109
 147  1382.376
 148  1349.807
 149  1329.632
 150  1333.879
 151  1449.457
 152  1457.747
 153  1287.61
 154  1172.145
 155  1221.625
 156  1324.965
 157  1253.816
 158  1228.68
 159  1272.979
 160  1380.339
 161  1389.252
 162  1351.237
 163  1450.238
 164  1474.349
 165  1395.106
 166  1365.326
 167  1225.86
 168  1139.965
 169  1148.344
 170  1293.398
 171  1555.743
 172  1583.573
 173  1605.699
 174  1657.423
 175  1678.553
 176  1553.624
 177  1444.24
 178  1416.383
 179  1461.66
 180  1418.376
 181  1380.954
 182  1394.368
 183  1532.954
 184  1615.667
 185  1614.616
 186  1572.01
 187  1477.958
 188  1447.348
 189  1437.143
 190  1592.612
 191  1666.001
 192  1636.871
 193  1561.593
 194  1491.063
 195  1436.402
 196  1423.223
 197  1384.991
 198  1399.296
 199  1320.824
 200  1312.253
 201  1363.804
 202  1404.031
 203  1452.726
 204  1493.326
 205  1703.136
 206  1786.572
 207  1627.275
 208  1360.157
 209  1323.297
 210  1351.357
 211  1409.824
 212  1481.936
 213  1559.534
 214  1450.993
 215  1317.204
 216  1401.605
 217  1543.16
 218  1544.966
 219  1515.577
 220  1526.89
 221  1545.355
 222  1475.947
 223  1409.54
 224  1414.442
 225  1435.374
 226  1469.046
 227  1509.715
 228  1468.758
 229  1413.14
 230  1486.061
 231  1620.447
 232  1691.29
 233  1588.427
 234  1410.162
 235  1410.37
 236  1418.854
 237  1519.022
 238  1523.091
 239  1609.164
 240  1601.508
 241  1530.749
 242  1417.688
 243  1393.367
 244  1356.795
 245  1388.828
 246  1386.958
 247  1536.047
 248  1553.382
 249  1553.55
 250  1533.161
 251  1466.44
 252  1342.326
 253  1366.15
 254  1391.136
 255  1480.512
 256  1488.843
 257  1363.17
 258  1277.847
 259  1347.631
 260  1547.768
 261  1518.228
 262  1443.048
 263  1360.415
 264  1397.425
 265  1288.562
 266  1260.204
 267  1229.896
 268  1124.502
 269  1119.566
 270  1242.736
 271  1274.401
 272  1332.351
 273  1266.476
 274  1190.798
 275  1151.602
 276  1122.474
 277  1143.232
 278  1039.944
 279  1015.036
 280  1110.176
 281  1213.328
 282  1146.721
 283  1092.349
 284  1032.377
 285  1000.316
 286  982.4306
 287  958.9792
 288  1113.57
 289  1066.33
 290  1196.323
 291  1060.811
 292  963.0627
 293  823.8502
 294  1022.448
 295  1172.726
 296  1172.999
 297  1259.403
 298  1261.422
 299  1354.349
 300  1345.281
 301  1267.744
 302  1289.789
 303  1367.542
 304  1491.801
 305  1510.176
 306  1475.139
 307  1546.886
 308  1680.331
 309  1679.225
 310  1664.64
 311  1611.164
 312  1726.583
 313  1591.223
 314  1546.186
 315  1484.06
 316  1637.01
 317  1576.11
 318  1671.243
 319  1585.38
 320  1593.482
 321  1637.41
 322  1799.531
 323  1858.313
 324  1825.645
 325  1737.157
 326  1639.434
 327  1685.549
 328  1590.775
 329  1574.487
 330  1551.631
 331  1544.339
 332  1429.802
 333  1255.798
 334  1234.417
 335  1355.05
 336  1460.498
 337  1605.411
 338  1753.303
 339  1710.517
 340  1714.985
 341  1566.43
 342  1478.856
 343  1311.454
 344  1240.514
 345  1242.745
 346  1348.016
 347  1341.395
 348  1287.766
 349  1212.145
 350  1210.589
 351  1175.027
 352  1222.505
 353  1234.488
 354  1256.899
 355  1210.003
 356  1141.087
 357  1168.104
 358  1211.541
 359  1260.604
 360  1345.568
 361  1348.272
 362  1278.39
 363  1154.083
 364  1091.664
 365  1150.559
 366  1177.479
 367  1283.759
 368  1282.197
 369  1333.4
 370  1401.694
 371  1611.388
 372  1632.739
 373  1691.073
 374  1519.409
 375  1505.891
 376  1343.672
 377  1304.206
 378  1353.933
 379  1356.395
 380  1414.081
 381  1413.721
 382  1439.562
 383  1421.889
 384  1449.345
 385  1519.734
 386  1479.9
 387  1504.732
 388  1540.839
 389  1590.162
 390  1704.125
 391  1784.174
 392  1860.262
 393  1773.132
 394  1757.943
 395  1708.885
 396  1682.614
 397  1697.609
 398  1635.67
 399  1653.857
 400  1595.146
 401  1548.742
 402  1675.619
 403  1640.855
 404  1617.98
 405  1525.084
 406  1443.033
 407  1577.011
 408  1599.625
 409  1741.718
 410  1557.515
 411  1485.068
 412  1303.095
 413  1378.962
 414  1413.065
 415  1552.008
 416  1592.915
 417  1585.344
 418  1586.106
 419  1573.132
 420  1686.599
 421  1677.294
 422  1622.163
 423  1572.153
 424  1415.112
 425  1299.57
 426  1228.875
 427  1271.406
 428  1311.943
 429  1255.745
 430  1233.733
 431  1359.052
 432  1381.745
 433  1455.981
 434  1374.693
 435  1409.298
 436  1270.924
 437  1292.201
 438  1283.651
 439  1309.13
 440  1190.637
 441  1224.857
 442  1279.881
 443  1314.306
 444  1142.179
 445  1257.539
 446  1422.919
 447  1456.272
 448  1425.846
 449  1356.663
 450  1313.149
 451  1133.852
 452  1156.462
 453  1348.162
 454  1557.58
 455  1604.056
 456  1587.346
 457  1475.806
 458  1286.826
 459  1214.92
 460  1229.74
 461  1399.536
 462  1386.687
 463  1403.318
 464  1321.876
 465  1419.201
 466  1300.935
 467  1261.148
 468  1263.769
 469  1383.816
 470  1439.481
 471  1559.431
 472  1640.891
 473  1666.883
 474  1692.933
 475  1748.569
 476  1754.383
 477  1747.676
 478  1793.435
 479  1832.984
 480  1798.955
 481  1731.575
 482  1627.758
 483  1621.8
 484  1609.833
 485  1643.378
 486  1711.268
 487  1675.959
 488  1624.333
 489  1645.395
 490  1789.024
 491  1854.795
 492  1887.653
 493  1744.487
 494  1608.388
 495  1476.865
 496  1540.745
 497  1628.713
 498  1675.791
 499  1776.285
 500  1896.346
 501  1985.644
 502  1878.526
 503  1787.852
 504  1785.074
 505  1822.746
 506  1839.708
 507  1778.516
 508  1681.4
 509  1615.049
 510  1565.574
 511  1578.7
 512  1587.713
 513  1533.36
 514  1496.106
 515  1547.995
 516  1524.069
 517  1623.118
 518  1565.436
 519  1674.206
 520  1646.67
 521  1701.395
 522  1623.1
 523  1671.838
 524  1725.981
 525  1865.843
 526  1898.402
 527  1992.089
 528  1880.123
 529  1835.649
 530  1648.139
 531  1532.872
 532  1576.314
 533  1592.511
 534  1594.903
 535  1633.69
 536  1815.845
 537  1969.354
 538  1885.021
 539  1655.869
 540  1634.39
 541  1587.28
 542  1616.193
 543  1554.461
 544  1592.867
 545  1588.303
 546  1519.968
 547  1587.05
 548  1585.902
 549  1651.245
 550  1701.1
 551  1724.533
 552  1677.578
 553  1633.488
 554  1633.872
 555  1641.833
 556  1576.52
 557  1458.473
 558  1327.054
 559  1366.436
 560  1430.91
 561  1402.818
 562  1497.955
 563  1566.974
 564  1599.781
 565  1546.853
 566  1492.493
 567  1461.702
 568  1440.183
 569  1380.12
 570  1275.125
 571  1188.494
 572  1147.229
 573  1208.686
 574  1213.386
 575  1227.97
 576  1148.712
 577  1186.546
 578  1276.272
 579  1257.42
 580  1212.814
 581  1218.123
 582  1247.052
 583  1337.612
 584  1353.05
 585  1392.953
 586  1402.966
 587  1484.649
 588  1436.258
 589  1255.856
 590  1204.416
 591  1280.933
 592  1436.371
 593  1335.059
 594  1319.115
 595  1420.167
 596  1560.493
 597  1716.608
 598  1851.636
 599  2039.715
 600  2279.584
 601  2479.805
 602  2558.583
 603  2472.902
 604  2384.474
 605  2301.937
 606  2027.022
 607  1826.087
 608  1731.276
 609  1616.985
 610  1564.707
 611  1440.53
 612  1486.147
 613  1482.84
 614  1561.679
 615  1590.257
 616  1672.621
 617  1571.254
 618  1570.11
 619  1536.494
 620  1641.427
 621  1558.378
 622  1477.42
 623  1510.733
 624  1477.423
 625  1439.542
 626  1456.453
 627  1605.999
 628  1707.009
 629  1702.269
 630  1589.557
 631  1540.414
 632  1353.762
 633  1495.484
 634  1587.122
 635  1560.055
 636  1522.118
 637  1549.511
 638  1581.473
 639  1629.722
 640  1653.434
 641  1697.043
 642  1638.267
 643  1622.875
 644  1535.705
 645  1458.527
 646  1463.118
 647  1540.109
 648  1559.176
 649  1622.721
 650  1647.628
 651  1684.295
 652  1681.297
 653  1599.829
 654  1551.786
 655  1542.105
 656  1648.115
 657  1601.14
 658  1383.236
 659  1400.022
 660  1450.426
 661  1680.201
 662  1642.052
 663  1593.677
 664  1475.214
 665  1430.181
 666  1501.318
 667  1483.419
 668  1526.084
 669  1566.731
 670  1623.813
 671  1671.036
 672  1632.248
 673  1504.396
 674  1574.601
 675  1528.742
 676  1442.109
 677  1335.661
 678  1404.729
 679  1484.749
 680  1479.269
 681  1480.005
 682  1414.647
 683  1442.665
 684  1528.068
 685  1494.913
 686  1497.207
 687  1403.146
 688  1420.733
 689  1385.136
 690  1329.004
 691  1342.557
 692  1396.374
 693  1419.425
 694  1387.269
 695  1345.968
 696  1358.021
 697  1352.49
 698  1483.159
 699  1454.769
 700  1349.206
 701  1261.968
 702  1271.89
 703  1274.449
 704  1301.056
 705  1364.458
 706  1367.243
 707  1248.049
 708  1065.848
 709  966.9351
 710  1007.063
 711  1113.165
 712  1110.138
 713  1117.229
 714  1011.161
 715  953.0814
 716  1027.716
 717  1279.741
 718  1261.881
 719  1158.719
 720  942.2479
 721  879.9603
 722  813.7292
 723  943.3552
 724  987.7823
 725  1072.205
 726  1106.982
 727  1135.204
 728  1259.022
 729  1284.846
 730  1265.953
 731  1092.034
 732  939.3906
 733  886.9638
 734  915.8246
 735  990.4403
 736  1049.99
 737  911.2491
 738  821.3828
 739  856.4215
 740  834.1017
 741  837.7451
 742  918.4791
 743  1037.343
 744  1089.267
 745  1061.202
 746  1072.369
 747  1054.742
 748  1118.744
 749  1155.554
 750  1053.977
 751  894.6758
 752  763.6994
 753  794.5353
 754  758.3697
 755  791.7205
 756  782.3785
 757  857.4029
 758  995.6752
 759  1049.667
 760  1059.852
 761  1015.582
 762  1062.386
 763  977.1588
 764  926.4136
 765  921.3039
 766  997.3674
 767  1199.184
 768  997.4427
 769  870.0729
 770  631.7438
 771  799.2137
 772  828.4418
 773  957.0096
 774  904.504
 775  858.4992
 776  968.0623
 777  1187.95
 778  1274.834
 779  1112.619
 780  991.8672
 781  1015.95
 782  1144.234
 783  1162.504
 784  1166.937
 785  1189.692
 786  1259.871
 787  1175.688
 788  1084.985
 789  1129.031
 790  1172.812
 791  1131.788
 792  1142.743
 793  1097.723
 794  1069.947
 795  935.1556
 796  915.9382
 797  954.2076
 798  917.7382
 799  998.1806
 800  986.4305
 801  1028.97
 802  989.0629
 803  1038.024
 804  984.463
 805  947.4373
 806  1002.798
 807  1132.093
 808  1232.388
 809  1238.435
 810  1229.538
 811  1334.405
 812  1315.072
 813  1320.293
 814  1291.402
 815  1265.458
 816  1472.904
 817  1544.94
 818  1542.942
 819  1380.104
 820  1243.323
 821  1236.213
 822  1233.983
 823  1327.351
 824  1386.039
 825  1341.163
 826  1338.358
 827  1465.956
 828  1550.951
 829  1689.415
 830  1519.527
 831  1534.326
 832  1492.528
 833  1507.991
 834  1416.056
 835  1569.995
 836  1414.845
 837  1359.41
 838  1309.071
 839  1401.614
 840  1331.538
 841  1265.278
 842  1225.39
 843  1340.393
 844  1322.28
 845  1265.849
 846  1178.807
 847  1108.513
 848  1151.934
 849  1202.483
 850  1347.682
 851  1325.875
 852  1325.095
 853  1213.157
 854  1191.828
 855  1154.687
 856  1171.236
 857  1153.438
 858  1160.288
 859  1294.964
 860  1256.021
 861  1330.512
 862  1252.974
 863  1312.477
 864  1119.212
 865  1054.156
 866  1041.45
 867  1193.292
 868  1174.885
 869  1001.18
 870  908.3005
 871  823.4652
 872  815.9728
 873  817.7866
 874  978.8244
 875  1113.375
 876  1210.873
 877  1190.652
 878  1139.562
 879  1182.851
 880  1023.76
 881  854.179
 882  711.6007
 883  820.0992
 884  891.5191
 885  858.8084
 886  933.9286
 887  1025.599
 888  1103.654
 889  960.5347
 890  911.9841
 891  908.4848
 892  899.0179
 893  895.3687
 894  961.1816
 895  1019.279
 896  1078.417
 897  940.1336
 898  879.092
 899  719.5352
 900  779.8176
 901  686.0768
 902  662.6456
 903  823.1974
 904  905.9323
 905  894.4814
 906  840.5201
 907  841.2229
 908  906.2164
 909  887.4777
 910  1032.123
 911  1050.238
 912  935.4707
 913  807.8561
 914  879.562
 915  902.9472
 916  992.3033
 917  1035.946
 918  1032.09
 919  1079.768
 920  1071.648
 921  1105.952
 922  1057.951
 923  1019.325
 924  1053.171
 925  1116.609
 926  1139.276
 927  1063.429
 928  1067.914
 929  1095.486
 930  1234.799
 931  1223.13
 932  1256.053
 933  1387.293
 934  1470.271
 935  1542.864
 936  1446.554
 937  1493.513
 938  1483.583
 939  1409.409
 940  1409.016
 941  1389.451
 942  1303.497
 943  1182.769
 944  1226.412
 945  1247.549
 946  1241.369
 947  1319.406
 948  1380.791
 949  1382.131
 950  1237.841
 951  1202.106
 952  1050.914
 953  1191.913
 954  1240.882
 955  1230.726
 956  1207.36
 957  1291.715
 958  1396.185
 959  1298.746
 960  1240.225
 961  1253.903
 962  1283.662
 963  1257.632
 964  1294.563
 965  1450.338
 966  1564.34
 967  1478.185
 968  1345.603
 969  1368.395
 970  1380.749
 971  1452.113
 972  1421.633
 973  1441.029
 974  1328.917
 975  1331.848
 976  1383.754
 977  1515.555
 978  1522.037
 979  1437.497
 980  1442.866
 981  1547.086
 982  1504.829
 983  1546.954
 984  1457.517
 985  1444.071
 986  1337.244
 987  1370.573
 988  1435.28
 989  1448.251
 990  1521.156
 991  1499.779
 992  1462.173
 993  1325.012
 994  1317.083
 995  1264.504
 996  1314.262
 997  1288.266
 998  1349.002
 999  1383.847
1000  1309.403
1001  1282.386
1002  1253.477
1003  1408.154
1004  1500.26
1005  1394.369
1006  1280.148
1007  1212.781
1008  1284.02
1009  1209.687
1010  1117.843
1011  1118.031
1012  1134.577
1013  1359.768
1014  1567.305
1015  1657.104
1016  1543.159
1017  1392.245
1018  1376.504
1019  1380.143
1020  1410.526
1021  1505.642
1022  1490.24
1023  1465.398
