# Input file       =  1208584535.106913_cleaned.dat
# Candidate        =  PSR_0332+5434
# Telescope        =  AR
# Epoch_topo       =  58232.247154015196
# Epoch_bary       =  N/A
# T_sample         =  0.002
# Data Folded      =  7143424
# Data Avg         =  0.046800175536668
# Data StdDev      =  1.00002143611501 
# Profile Bins     =  512
# Profile Avg      =  652.928934429297 
# Profile StdDev   =  118.121116485429 
# Reduced chi-sqr  =  2.117
# Prob(Noise)      <  4.42e-43   (~13.7 sigma)
# P_topo (ms)      =  714.552625871656  +/- 0.000119
# P'_topo (s/s)    =  -0                +/- 6.45e-11
# P''_topo (s/s^2) =  0                 +/- 2.93e-14
# P_bary (ms)      =  N/A
# P'_bary (s/s)    =  N/A
# P''_bary (s/s^2) =  N/A
# P_orb (s)        =  N/A
# asin(i)/c (s)    =  N/A
# eccentricity     =  N/A
# w (rad)          =  N/A
# T_peri           =  N/A
######################################################
   0  1531.316
   1  1417.679
   2  1167.786
   3  948.6501
   4  832.1296
   5  723.3254
   6  737.5787
   7  772.3779
   8  586.1718
   9  640.5064
  10  651.2365
  11  694.6118
  12  750.1046
  13  838.0942
  14  834.1998
  15  697.5995
  16  695.5598
  17  692.3055
  18  637.3679
  19  599.7728
  20  792.076
  21  756.8851
  22  810.4303
  23  711.3753
  24  636.2975
  25  715.1144
  26  652.7048
  27  511.7865
  28  592.1321
  29  721.8702
  30  768.3637
  31  659.0493
  32  635.4815
  33  558.7582
  34  441.0758
  35  551.084
  36  577.6345
  37  634.7601
  38  620.8486
  39  741.4009
  40  661.3987
  41  618.0208
  42  610.85
  43  574.3116
  44  634.3442
  45  673.2311
  46  663.7733
  47  699.3655
  48  635.393
  49  577.291
  50  614.4113
  51  585.3804
  52  536.5026
  53  618.4076
  54  565.3369
  55  679.0401
  56  686.9485
  57  532.5151
  58  491.5797
  59  637.847
  60  513.2318
  61  529.4603
  62  642.2578
  63  623.2401
  64  596.602
  65  542.7154
  66  558.6174
  67  589.0688
  68  514.187
  69  599.522
  70  585.6001
  71  573.368
  72  579.6221
  73  525.3354
  74  465.4672
  75  659.0017
  76  784.9759
  77  630.8372
  78  584.3207
  79  649.6538
  80  659.1905
  81  539.101
  82  421.9612
  83  613.7189
  84  697.4368
  85  674.3805
  86  815.7454
  87  736.5277
  88  761.9901
  89  776.6118
  90  617.2498
  91  506.0072
  92  563.3964
  93  610.6141
  94  539.6014
  95  587.0451
  96  695.8566
  97  638.1328
  98  451.5602
  99  525.4285
 100  624.3215
 101  539.2808
 102  625.897
 103  627.1326
 104  755.5176
 105  718.692
 106  696.1292
 107  616.9736
 108  620.4214
 109  607.3409
 110  511.6455
 111  599.4439
 112  695.9943
 113  649.0733
 114  645.9457
 115  670.912
 116  642.8342
 117  715.9316
 118  742.3217
 119  588.4791
 120  625.681
 121  653.4896
 122  617.9283
 123  608.2062
 124  657.8102
 125  642.2911
 126  494.5062
 127  597.6967
 128  764.5324
 129  639.2869
 130  658.2783
 131  531.4983
 132  563.6207
 133  694.3278
 134  705.1558
 135  672.1282
 136  697.6711
 137  740.6581
 138  652.2213
 139  590.4658
 140  518.0168
 141  519.53
 142  471.4152
 143  553.7568
 144  708.3516
 145  722.6039
 146  707.856
 147  716.4188
 148  797.4278
 149  751.0959
 150  684.3942
 151  716.5907
 152  881.472
 153  859.1528
 154  797.2432
 155  710.0085
 156  674.0314
 157  649.7618
 158  639.7729
 159  677.366
 160  654.4154
 161  746.6171
 162  964.0215
 163  682.1566
 164  611.1307
 165  636.7531
 166  650.0057
 167  739.9879
 168  720.8101
 169  904.7205
 170  972.8021
 171  858.434
 172  739.9863
 173  703.899
 174  737.9281
 175  725.5378
 176  803.9327
 177  876.4033
 178  916.9553
 179  902.952
 180  889.7746
 181  787.2571
 182  747.5583
 183  761.8776
 184  763.8019
 185  777.3022
 186  887.1459
 187  891.2086
 188  852.0114
 189  782.4472
 190  777.1556
 191  763.1575
 192  656.0995
 193  685.1334
 194  667.7995
 195  607.2875
 196  563.3041
 197  622.404
 198  671.0176
 199  671.1755
 200  697.8292
 201  772.0111
 202  828.9099
 203  679.6201
 204  644.762
 205  673.5641
 206  606.2469
 207  677.5753
 208  711.0931
 209  815.2527
 210  697.9267
 211  621.5543
 212  674.5027
 213  643.4628
 214  731.9467
 215  599.3619
 216  593.0227
 217  632.2006
 218  657.4937
 219  732.4908
 220  615.684
 221  642.6915
 222  650.4661
 223  693.5916
 224  745.4338
 225  613.2249
 226  485.6916
 227  531.7555
 228  670.2868
 229  648.9515
 230  633.5342
 231  622.9559
 232  657.2834
 233  624.4791
 234  726.1497
 235  552.7144
 236  569.9897
 237  605.5637
 238  530.7767
 239  565.7687
 240  456.8257
 241  482.4298
 242  489.4912
 243  504.5929
 244  555.2182
 245  577.0493
 246  595.0617
 247  595.3618
 248  617.7123
 249  710.0823
 250  646.5862
 251  560.6915
 252  690.9599
 253  698.9605
 254  602.8434
 255  575.2911
 256  596.9888
 257  700.5806
 258  710.9017
 259  629.5221
 260  578.5383
 261  707.7335
 262  635.5261
 263  489.379
 264  540.6959
 265  564.3719
 266  651.7817
 267  587.9792
 268  645.6022
 269  742.1974
 270  673.4635
 271  542.1704
 272  473.8695
 273  544.6954
 274  529.0049
 275  521.2964
 276  689.3563
 277  822.5233
 278  652.4178
 279  610.3353
 280  675.9406
 281  506.1608
 282  580.0575
 283  738.426
 284  621.5475
 285  654.1607
 286  637.4573
 287  537.7003
 288  438.6473
 289  469.894
 290  596.505
 291  624.3813
 292  606.1262
 293  572.3998
 294  586.538
 295  624.6776
 296  689.7822
 297  584.3644
 298  556.3057
 299  538.4182
 300  617.9095
 301  656.6064
 302  687.0364
 303  604.6653
 304  617.0122
 305  585.9138
 306  590.7834
 307  637.2711
 308  553.5682
 309  592.1122
 310  624.7488
 311  633.292
 312  440.5811
 313  531.9232
 314  679.679
 315  727.3901
 316  746.4379
 317  793.7047
 318  781.0397
 319  781.309
 320  811.1377
 321  578.1497
 322  566.1848
 323  663.7973
 324  534.0836
 325  566.8718
 326  715.6223
 327  815.1301
 328  766.2169
 329  762.9758
 330  670.1985
 331  576.501
 332  634.4951
 333  711.9244
 334  613.5087
 335  632.611
 336  720.4964
 337  691.3227
 338  566.876
 339  651.561
 340  576.1653
 341  621.4899
 342  576.5001
 343  621.3641
 344  786.0562
 345  704.0079
 346  624.515
 347  679.6085
 348  579.0145
 349  680.3102
 350  715.0724
 351  754.2273
 352  742.5983
 353  750.8957
 354  743.5855
 355  803.5087
 356  764.1025
 357  670.6775
 358  559.0025
 359  671.9584
 360  729.5353
 361  803.3386
 362  775.8649
 363  718.9291
 364  665.1013
 365  672.3004
 366  672.7239
 367  678.8328
 368  647.4344
 369  689.645
 370  563.2495
 371  578.2913
 372  649.7358
 373  622.2463
 374  565.2023
 375  657.265
 376  700.534
 377  579.5156
 378  656.2894
 379  644.0325
 380  735.4849
 381  699.9703
 382  558.0989
 383  728.9683
 384  697.7919
 385  696.6631
 386  679.0204
 387  698.3635
 388  698.7812
 389  557.4902
 390  537.784
 391  601.9529
 392  506.0693
 393  560.0844
 394  629.2977
 395  596.1814
 396  442.9715
 397  449.3497
 398  500.4528
 399  617.0714
 400  561.0403
 401  608.097
 402  742.8923
 403  569.7706
 404  544.3145
 405  636.3616
 406  705.7778
 407  653.6114
 408  541.8145
 409  671.1717
 410  689.8849
 411  626.4684
 412  530.4551
 413  590.8593
 414  632.0684
 415  668.5233
 416  716.3027
 417  764.383
 418  823.9534
 419  781.8188
 420  695.7652
 421  548.2042
 422  547.0823
 423  592.8986
 424  545.1531
 425  624.373
 426  684.2197
 427  577.9987
 428  467.5172
 429  622.424
 430  705.7783
 431  635.8014
 432  615.2494
 433  666.6108
 434  697.9522
 435  655.0658
 436  638.7738
 437  698.1542
 438  682.7248
 439  737.3204
 440  646.1363
 441  718.5934
 442  767.4771
 443  597.0042
 444  560.0366
 445  669.7373
 446  595.2541
 447  634.336
 448  658.9842
 449  655.4258
 450  680.8539
 451  620.6736
 452  670.9075
 453  592.1566
 454  605.608
 455  535.2361
 456  503.3551
 457  483.6435
 458  592.9368
 459  753.5569
 460  654.7711
 461  523.0201
 462  597.1965
 463  507.2777
 464  462.4481
 465  560.1262
 466  701.7272
 467  680.7279
 468  685.3794
 469  575.1833
 470  508.1358
 471  498.9908
 472  627.7933
 473  538.1753
 474  522.4134
 475  608.1902
 476  515.5175
 477  450.6629
 478  402.246
 479  505.1557
 480  436.0833
 481  421.5486
 482  557.4924
 483  667.8343
 484  584.2131
 485  422.2078
 486  378.7435
 487  426.7433
 488  568.5404
 489  572.9467
 490  588.1796
 491  591.1761
 492  673.048
 493  651.219
 494  607.261
 495  551.6061
 496  549.9068
 497  548.2681
 498  584.434
 499  648.9985
 500  709.3477
 501  684.668
 502  671.4456
 503  697.2674
 504  754.2803
 505  638.3827
 506  699.1497
 507  819.2708
 508  953.2593
 509  1246.031
 510  1394.581
 511  1454.702
