# Input file       =  1208599147.109118_cleaned.dat
# Candidate        =  PSR_0332+5434
# Telescope        =  AR
# Epoch_topo       =  58232.416274411087
# Epoch_bary       =  N/A
# T_sample         =  0.002
# Data Folded      =  7340032
# Data Avg         =  -0.0208512496309201
# Data StdDev      =  6.5654755486382  
# Profile Bins     =  1024
# Profile Avg      =  -150.262910120073
# Profile StdDev   =  555.859697298305 
# Reduced chi-sqr  =  1.503
# Prob(Noise)      <  2.07e-23   (~9.9 sigma)
# P_topo (ms)      =  714.55250661248   +/- 0.000377
# P'_topo (s/s)    =  -0                +/- 1.99e-10
# P''_topo (s/s^2) =  0                 +/- 8.77e-14
# P_bary (ms)      =  N/A
# P'_bary (s/s)    =  N/A
# P''_bary (s/s^2) =  N/A
# P_orb (s)        =  N/A
# asin(i)/c (s)    =  N/A
# eccentricity     =  N/A
# w (rad)          =  N/A
# T_peri           =  N/A
######################################################
   0  -25.60348
   1  -85.57494
   2  46.53694
   3  105.0898
   4  166.3506
   5  93.71809
   6  190.2216
   7  82.5777
   8  -20.24802
   9  -105.0566
  10  -56.47708
  11  44.82475
  12  13.65712
  13  86.68263
  14  3.573976
  15  -60.64001
  16  -116.7603
  17  -221.1707
  18  -172.328
  19  -168.8636
  20  -129.7634
  21  -240.4978
  22  -208.2401
  23  -194.7304
  24  -222.1637
  25  -209.4927
  26  -197.5195
  27  -261.2995
  28  -151.1319
  29  -290.0524
  30  -284.9633
  31  -339.9204
  32  -214.2062
  33  -113.3372
  34  -104.4889
  35  -159.928
  36  -248.2221
  37  -310.4236
  38  -323.4229
  39  -362.0816
  40  -478.0928
  41  -542.2557
  42  -535.6954
  43  -309.2838
  44  -294.6114
  45  -233.5258
  46  -241.2156
  47  -239.318
  48  -415.7655
  49  -421.7048
  50  -409.0856
  51  -371.7708
  52  -318.8448
  53  -421.4828
  54  -498.5277
  55  -471.1538
  56  -413.6493
  57  -339.983
  58  -265.5976
  59  -185.2337
  60  -121.4561
  61  -95.07257
  62  87.89738
  63  54.05663
  64  -140.3601
  65  -209.4613
  66  -264.2452
  67  -376.2743
  68  -367.2235
  69  -190.9756
  70  -51.87084
  71  -10.1125
  72  -16.32114
  73  -6.72002
  74  -187.613
  75  -150.6089
  76  -99.72932
  77  -21.17587
  78  67.92995
  79  136.7684
  80  120.7207
  81  -108.0691
  82  -130.2787
  83  -167.5004
  84  -10.11461
  85  -41.54979
  86  -16.36306
  87  -20.48947
  88  65.09892
  89  62.26544
  90  65.99137
  91  -61.38551
  92  6.336585
  93  100.3571
  94  243.6787
  95  243.9638
  96  277.3473
  97  108.2973
  98  190.691
  99  345.125
 100  406.0162
 101  376.6325
 102  380.3676
 103  463.7209
 104  412.6858
 105  510.1638
 106  487.0972
 107  461.3953
 108  263.5825
 109  293.3928
 110  283.6261
 111  270.9084
 112  363.8214
 113  531.0994
 114  654.1682
 115  620.2098
 116  450.4573
 117  328.0481
 118  354.071
 119  356.9688
 120  535.551
 121  524.7844
 122  478.1833
 123  429.1272
 124  429.0527
 125  509.1505
 126  511.0238
 127  566.041
 128  594.4821
 129  623.6852
 130  566.7362
 131  537.8708
 132  514.8859
 133  417.3449
 134  254.9924
 135  174.2029
 136  222.3109
 137  108.6965
 138  -21.69238
 139  26.26942
 140  58.0231
 141  169.2032
 142  105.2066
 143  69.30078
 144  91.88041
 145  -5.069237
 146  -65.93963
 147  -47.49173
 148  -104.2009
 149  -158.1778
 150  -194.7307
 151  -136.2857
 152  -72.15129
 153  8.212923
 154  31.6374
 155  -138.5339
 156  -228.768
 157  -138.6724
 158  -180.5523
 159  -161.2032
 160  -244.5058
 161  -358.1548
 162  -527.0135
 163  -545.3857
 164  -483.8685
 165  -365.2411
 166  -251.9604
 167  -309.4709
 168  -229.7916
 169  -163.1848
 170  -111.4048
 171  -266.0351
 172  -360.9177
 173  -340.2568
 174  -403.8331
 175  -352.9119
 176  -399.8058
 177  -387.7347
 178  -419.7956
 179  -430.4854
 180  -287.2605
 181  -333.9206
 182  -544.4732
 183  -760.2997
 184  -818.1215
 185  -710.6053
 186  -569.0466
 187  -582.2452
 188  -694.3645
 189  -847.1601
 190  -984.7126
 191  -892.0898
 192  -888.288
 193  -738.9656
 194  -699.0284
 195  -774.0082
 196  -809.6845
 197  -820.0847
 198  -766.2679
 199  -787.492
 200  -808.5695
 201  -781.6525
 202  -875.5875
 203  -926.204
 204  -896.0607
 205  -858.8641
 206  -812.9901
 207  -801.1068
 208  -818.173
 209  -883.5333
 210  -805.8336
 211  -825.2714
 212  -733.7514
 213  -787.2982
 214  -701.7148
 215  -725.8146
 216  -653.9113
 217  -636.834
 218  -574.5251
 219  -661.5685
 220  -655.8578
 221  -697.6609
 222  -665.5294
 223  -648.322
 224  -720.5939
 225  -754.8832
 226  -688.1943
 227  -749.0268
 228  -666.98
 229  -662.4574
 230  -543.7872
 231  -707.3636
 232  -794.934
 233  -898.8077
 234  -793.8131
 235  -664.5819
 236  -564.5949
 237  -656.7567
 238  -769.9457
 239  -768.1592
 240  -929.1482
 241  -1022.785
 242  -881.8465
 243  -598.6179
 244  -485.4662
 245  -544.0865
 246  -328.028
 247  -248.4451
 248  -292.5876
 249  -412.5444
 250  -437.272
 251  -245.281
 252  -114.4493
 253  -113.7077
 254  -235.5362
 255  -439.928
 256  -495.4305
 257  -553.7992
 258  -570.1644
 259  -458.9255
 260  -349.7921
 261  -265.082
 262  -341.2307
 263  -319.0836
 264  -209.8038
 265  -269.4928
 266  -321.4319
 267  -278.0638
 268  -282.6126
 269  -465.7156
 270  -535.5768
 271  -488.402
 272  -424.2395
 273  -532.4033
 274  -699.847
 275  -645.9154
 276  -617.8134
 277  -635.2649
 278  -616.6441
 279  -552.2417
 280  -476.3702
 281  -524.1431
 282  -551.7415
 283  -488.7375
 284  -441.7273
 285  -478.284
 286  -450.623
 287  -479.7558
 288  -365.1189
 289  -396.0025
 290  -446.3274
 291  -477.1154
 292  -551.4947
 293  -416.7653
 294  -342.7531
 295  -363.6673
 296  -477.2002
 297  -564.4466
 298  -499.6776
 299  -300.6419
 300  -206.7168
 301  -224.0449
 302  -241.7988
 303  -258.0789
 304  -332.2246
 305  -399.6319
 306  -362.4622
 307  -346.0247
 308  -418.7682
 309  -391.8358
 310  -521.2674
 311  -375.5859
 312  -301.0057
 313  -211.4552
 314  -406.2145
 315  -572.3839
 316  -597.3109
 317  -518.7792
 318  -315.6974
 319  -159.211
 320  -14.5377
 321  -65.71124
 322  -341.1289
 323  -592.6409
 324  -555.6753
 325  -430.9857
 326  -224.8056
 327  -274.6563
 328  -340.3572
 329  -519.7074
 330  -526.5548
 331  -612.0481
 332  -597.46
 333  -542.516
 334  -444.7637
 335  -325.5682
 336  -293.4315
 337  -380.4642
 338  -472.8061
 339  -437.3545
 340  -224.3314
 341  -160.7821
 342  -117.4276
 343  -154.4499
 344  -97.83018
 345  -277.3882
 346  -291.553
 347  -333.7611
 348  -347.3264
 349  -320.5349
 350  -365.9613
 351  -364.6711
 352  -495.8538
 353  -382.3147
 354  -300.7878
 355  -258.5394
 356  -327.9733
 357  -399.0876
 358  -477.3196
 359  -579.7518
 360  -560.3177
 361  -451.0137
 362  -393.1409
 363  -399.327
 364  -358.2139
 365  -253.3998
 366  -164.3093
 367  -177.1081
 368  -190.3139
 369  -153.6772
 370  -13.73423
 371  1.581753
 372  -99.81178
 373  -128.6314
 374  -56.97068
 375  -34.38964
 376  100.5441
 377  86.93484
 378  45.6305
 379  -27.71315
 380  -41.1496
 381  4.726989
 382  4.437356
 383  73.78252
 384  160.7248
 385  144.0339
 386  215.1933
 387  166.9739
 388  221.8377
 389  95.99819
 390  122.6056
 391  156.3928
 392  3.806378
 393  -30.69026
 394  8.394046
 395  44.93483
 396  89.91574
 397  172.2601
 398  387.1542
 399  587.8517
 400  507.6551
 401  397.5407
 402  363.6861
 403  380.5321
 404  381.5458
 405  284.4327
 406  277.1612
 407  196.6792
 408  121.1697
 409  217.7075
 410  207.004
 411  278.3012
 412  204.8748
 413  115.5826
 414  164.0222
 415  266.0772
 416  335.545
 417  213.497
 418  130.7925
 419  64.43758
 420  -98.29356
 421  -34.48563
 422  94.76928
 423  277.6285
 424  196.4334
 425  141.295
 426  19.16372
 427  143.2685
 428  48.26295
 429  -24.93966
 430  -267.1953
 431  -129.0327
 432  48.43238
 433  262.2934
 434  285.6964
 435  175.5436
 436  297.3681
 437  284.3121
 438  250.4755
 439  273.3442
 440  361.0413
 441  380.6715
 442  211.3762
 443  -8.259768
 444  -261.657
 445  -304.0441
 446  -156.1884
 447  -63.91478
 448  -137.5023
 449  -56.40419
 450  -108.4371
 451  -81.62736
 452  -183.8839
 453  -210.2131
 454  -308.438
 455  -265.566
 456  -267.2214
 457  -264.0312
 458  -192.191
 459  -121.8491
 460  -58.53608
 461  -23.07885
 462  -105.3084
 463  -248.3401
 464  -103.4683
 465  117.9201
 466  215.5562
 467  45.32327
 468  -121.7692
 469  -192.2725
 470  -329.2941
 471  -377.1579
 472  -298.3085
 473  -148.7383
 474  -134.2459
 475  -98.47704
 476  44.61557
 477  148.9352
 478  -54.06577
 479  -209.8705
 480  -319.544
 481  -251.7148
 482  -191.2611
 483  -180.6083
 484  -229.8364
 485  -285.8047
 486  -160.9469
 487  -155.6908
 488  -219.5997
 489  -386.7437
 490  -366.6231
 491  -249.4052
 492  -321.457
 493  -357.1645
 494  -375.187
 495  -379.3221
 496  -443.2248
 497  -371.6396
 498  -341.0132
 499  -337.5682
 500  -422.9806
 501  -253.7538
 502  -144.1635
 503  -153.6007
 504  -285.2932
 505  -362.9423
 506  -275.1387
 507  -254.7738
 508  -257.4259
 509  -285.963
 510  -333.2176
 511  -248.869
 512  -324.0398
 513  -270.1868
 514  -221.8545
 515  -204.9443
 516  -155.5125
 517  -98.58429
 518  -222.4776
 519  -223.7572
 520  -280.8009
 521  -149.6003
 522  -263.8013
 523  -337.1959
 524  -284.4904
 525  -213.9675
 526  -177.4921
 527  -235.1982
 528  -308.612
 529  -225.854
 530  -145.0066
 531  -47.53928
 532  -110.8441
 533  -189.751
 534  -120.6094
 535  -1.839077
 536  -139.2092
 537  -233.7413
 538  -239.2886
 539  5.408279
 540  13.23617
 541  83.22189
 542  62.6893
 543  63.09875
 544  46.02274
 545  -65.08154
 546  16.04738
 547  33.84855
 548  -52.98349
 549  -46.56002
 550  -73.978
 551  -104.191
 552  -133.1518
 553  -81.6497
 554  -43.00537
 555  -7.069098
 556  -64.20555
 557  -206.8399
 558  -312.9055
 559  -178.321
 560  -61.17981
 561  -13.37082
 562  17.29326
 563  -60.99531
 564  -93.58984
 565  -130.5002
 566  -85.76366
 567  -21.01332
 568  -151.7502
 569  -151.6149
 570  -196.0043
 571  -45.8201
 572  -78.8717
 573  -169.3559
 574  -78.31422
 575  -59.95902
 576  -42.38314
 577  -99.21329
 578  -191.6569
 579  -152.5513
 580  -65.6656
 581  94.37343
 582  64.03683
 583  -60.62321
 584  -53.71395
 585  -156.5604
 586  -97.58448
 587  -108.8722
 588  -92.22656
 589  -3.458118
 590  -17.93661
 591  -52.66341
 592  -122.4938
 593  -241.3119
 594  -182.7503
 595  46.44029
 596  225.9473
 597  323.6085
 598  493.1516
 599  633.6125
 600  674.077
 601  585.0388
 602  694.0156
 603  785.3752
 604  849.3365
 605  737.4968
 606  600.4212
 607  458.3148
 608  206.3902
 609  99.21571
 610  80.20362
 611  11.2309
 612  -87.24022
 613  -137.9629
 614  -96.70058
 615  -164.7709
 616  -267.5711
 617  -318.7345
 618  -192.2842
 619  -78.25952
 620  7.225215
 621  64.18107
 622  143.0825
 623  42.02977
 624  26.82209
 625  67.45088
 626  3.322285
 627  -70.11444
 628  -59.65456
 629  59.38118
 630  145.5707
 631  129.452
 632  127.1316
 633  23.29773
 634  -55.85623
 635  -143.4089
 636  -88.21407
 637  -21.12342
 638  14.20796
 639  -110.0973
 640  -85.18185
 641  -65.10236
 642  -30.98081
 643  -116.6351
 644  -243.149
 645  -242.6724
 646  -310.6675
 647  -190.1127
 648  -165.5416
 649  -242.6821
 650  -238.8861
 651  -303.7684
 652  -278.2081
 653  -200.3016
 654  -146.2943
 655  -168.4053
 656  -155.068
 657  -31.98991
 658  -106.6795
 659  -205.1541
 660  -300.1334
 661  -206.8949
 662  -136.9007
 663  -60.06501
 664  -47.10553
 665  -116.4498
 666  -66.50915
 667  -114.1703
 668  -102.6926
 669  -3.962161
 670  29.21395
 671  57.10556
 672  73.45311
 673  14.44777
 674  137.9688
 675  69.88864
 676  151.504
 677  182.0969
 678  168.3161
 679  253.1147
 680  405.3837
 681  560.0759
 682  633.7458
 683  560.3997
 684  408.4902
 685  385.033
 686  352.8342
 687  347.2678
 688  383.9519
 689  472.7036
 690  548.3572
 691  596.2044
 692  504.3445
 693  517.1337
 694  455.5364
 695  480.7285
 696  443.5958
 697  446.7138
 698  409.3221
 699  422.7131
 700  557.7928
 701  567.0287
 702  407.2677
 703  278.8941
 704  356.9657
 705  374.937
 706  285.7317
 707  252.7182
 708  172.9284
 709  177.6685
 710  163.9321
 711  242.0012
 712  314.4757
 713  239.8082
 714  201.5406
 715  201.6745
 716  231.9765
 717  199.2145
 718  73.68083
 719  111.804
 720  100.4983
 721  119.7364
 722  78.28828
 723  -110.0373
 724  -120.8915
 725  -108.2891
 726  14.7916
 727  17.02434
 728  44.99743
 729  218.1893
 730  98.06398
 731  58.24365
 732  -102.6762
 733  -134.8092
 734  -139.6714
 735  -89.5761
 736  -159.3121
 737  -158.9077
 738  -175.6123
 739  -26.02427
 740  -46.02226
 741  -122.9625
 742  -106.6433
 743  -72.1969
 744  26.06177
 745  -89.09888
 746  -93.80367
 747  -122.8815
 748  -215.5112
 749  -347.342
 750  -478.234
 751  -559.3564
 752  -644.7786
 753  -619.2472
 754  -513.8434
 755  -349.1422
 756  -274.9533
 757  -272.9001
 758  -248.8529
 759  -335.3498
 760  -325.5658
 761  -547.7059
 762  -579.8088
 763  -632.6591
 764  -660.2201
 765  -645.2446
 766  -737.5782
 767  -736.7341
 768  -758.8984
 769  -689.5215
 770  -650.3813
 771  -587.7185
 772  -560.5168
 773  -559.9366
 774  -528.6243
 775  -568.8545
 776  -674.1893
 777  -800.0634
 778  -865.1178
 779  -940.4863
 780  -840.4186
 781  -744.545
 782  -642.4978
 783  -692.5437
 784  -664.7802
 785  -664.007
 786  -626.2679
 787  -595.1732
 788  -631.1528
 789  -654.4114
 790  -652.3398
 791  -689.7659
 792  -740.0599
 793  -771.2829
 794  -702.6333
 795  -536.6138
 796  -430.3795
 797  -494.2278
 798  -630.3776
 799  -733.0705
 800  -592.1516
 801  -478.9271
 802  -446.2355
 803  -477.0098
 804  -578.3223
 805  -641.6295
 806  -618.0898
 807  -713.5834
 808  -604.9275
 809  -616.6523
 810  -640.5713
 811  -580.1553
 812  -582.6241
 813  -528.5196
 814  -601.5933
 815  -627.7699
 816  -708.751
 817  -700.9415
 818  -501.7012
 819  -350.8685
 820  -334.9083
 821  -587.0435
 822  -607.832
 823  -534.4583
 824  -476.1733
 825  -546.1144
 826  -530.0103
 827  -609.8013
 828  -655.4365
 829  -654.6198
 830  -481.4219
 831  -533.5721
 832  -647.489
 833  -583.9777
 834  -440.1235
 835  -439.4052
 836  -488.0111
 837  -406.5392
 838  -214.4303
 839  -157.6746
 840  -169.3395
 841  -195.5479
 842  -77.9891
 843  -83.68027
 844  -159.7639
 845  -134.4892
 846  -217.3116
 847  -305.5585
 848  -357.7446
 849  -330.2122
 850  -250.1189
 851  -467.089
 852  -574.817
 853  -608.5844
 854  -519.6553
 855  -542.1074
 856  -561.4687
 857  -537.5606
 858  -379.4272
 859  -404.0567
 860  -452.3692
 861  -520.1197
 862  -533.3859
 863  -526.101
 864  -464.2568
 865  -482.1037
 866  -396.2125
 867  -386.6208
 868  -414.6412
 869  -535.793
 870  -613.3447
 871  -527.0127
 872  -480.1231
 873  -508.9305
 874  -553.7191
 875  -507.1036
 876  -544.5865
 877  -675.3005
 878  -759.0472
 879  -592.8019
 880  -529.7502
 881  -519.9775
 882  -490.5767
 883  -441.8845
 884  -406.5229
 885  -454.9268
 886  -451.1177
 887  -435.0042
 888  -353.7224
 889  -187.8996
 890  -124.3208
 891  -262.8789
 892  -447.4522
 893  -362.3565
 894  -232.3897
 895  -61.2389
 896  -70.26595
 897  -90.59772
 898  -272.1421
 899  -230.3979
 900  -267.3406
 901  -328.0741
 902  -273.4935
 903  -358.1079
 904  -420.297
 905  -494.9809
 906  -567.7455
 907  -365.2588
 908  -183.7302
 909  -149.0272
 910  -374.7008
 911  -514.1832
 912  -563.4434
 913  -458.1001
 914  -442.6499
 915  -310.1023
 916  -258.3354
 917  -415.0409
 918  -542.1249
 919  -593.6938
 920  -462.6008
 921  -365.8572
 922  -439.1985
 923  -363.507
 924  -548.6826
 925  -698.7816
 926  -654.0716
 927  -506.6518
 928  -394.9128
 929  -530.6464
 930  -477.7841
 931  -490.3859
 932  -392.342
 933  -500.7865
 934  -492.4671
 935  -532.1295
 936  -532.5451
 937  -364.752
 938  -375.8913
 939  -387.579
 940  -266.5904
 941  -190.231
 942  -149.7634
 943  -311.153
 944  -229.4033
 945  -81.24138
 946  89.03371
 947  71.80428
 948  55.5635
 949  14.99239
 950  125.2428
 951  99.00036
 952  146.1547
 953  254.6265
 954  326.8796
 955  242.9959
 956  150.5026
 957  109.9296
 958  220.433
 959  267.3114
 960  372.2967
 961  566.8694
 962  572.5921
 963  577.363
 964  501.7819
 965  513.0169
 966  455.9238
 967  422.9471
 968  434.2513
 969  379.3866
 970  355.1684
 971  427.5251
 972  563.6027
 973  604.9415
 974  650.1473
 975  711.8731
 976  709.0569
 977  613.6671
 978  612.3304
 979  660.0333
 980  707.3399
 981  756.4571
 982  701.9485
 983  643.5024
 984  602.3302
 985  790.5758
 986  947.2444
 987  952.4557
 988  774.1722
 989  822.0889
 990  967.7788
 991  905.4224
 992  794.5616
 993  794.7081
 994  791.8873
 995  743.1106
 996  759.5407
 997  832.7725
 998  810.9934
 999  779.281
1000  628.0618
1001  613.8107
1002  627.4505
1003  709.0178
1004  569.299
1005  496.308
1006  385.2891
1007  459.075
1008  352.3167
1009  194.875
1010  169.0585
1011  292.2844
1012  260.3348
1013  329.9673
1014  247.0556
1015  353.7013
1016  358.869
1017  371.2941
1018  360.9323
1019  286.4577
1020  316.9756
1021  303.205
1022  295.1153
1023  157.0768
