# Input file       =  1208325940.125452_cleaned.dat
# Candidate        =  PSR_0332+5434
# Telescope        =  AR
# Epoch_topo       =  58229.254156544586
# Epoch_bary       =  N/A
# T_sample         =  0.002
# Data Folded      =  7208960
# Data Avg         =  0.140275432885921
# Data StdDev      =  4.87597427266863 
# Profile Bins     =  1024
# Profile Avg      =  987.475583816758 
# Profile StdDev   =  409.11719684999  
# Reduced chi-sqr  =  2.026
# Prob(Noise)      <  1.34e-73   (~18.1 sigma)
# P_topo (ms)      =  714.555147245551  +/- 1.76e-05
# P'_topo (s/s)    =  -0                +/- 9.47e-12
# P''_topo (s/s^2) =  0                 +/- 4.26e-15
# P_bary (ms)      =  N/A
# P'_bary (s/s)    =  N/A
# P''_bary (s/s^2) =  N/A
# P_orb (s)        =  N/A
# asin(i)/c (s)    =  N/A
# eccentricity     =  N/A
# w (rad)          =  N/A
# T_peri           =  N/A
######################################################
   0  1155.468
   1  1008.133
   2  882.2472
   3  1103.772
   4  1294.758
   5  1414.754
   6  1297.62
   7  1052.022
   8  718.429
   9  838.3196
  10  802.1963
  11  907.2816
  12  673.3806
  13  644.1361
  14  891.8137
  15  912.1635
  16  1167.933
  17  1279.682
  18  1379.441
  19  1467.069
  20  1448.294
  21  1588.947
  22  1436.798
  23  1279.502
  24  1086.722
  25  891.5973
  26  853.7714
  27  863.3523
  28  935.1147
  29  1007.116
  30  1072.446
  31  1235.505
  32  1178.646
  33  1176.256
  34  1161.42
  35  1160.251
  36  1197.796
  37  1236.443
  38  1186.282
  39  1137.542
  40  920.3844
  41  895.2819
  42  836.7464
  43  824.6813
  44  991.8927
  45  920.7991
  46  937.0243
  47  815.4717
  48  1017.072
  49  1200.461
  50  1314.764
  51  1421.878
  52  1448.937
  53  1417.504
  54  1445.745
  55  1316.644
  56  1280.317
  57  1019.952
  58  1063.526
  59  916.1042
  60  874.4872
  61  831.5982
  62  879.4136
  63  977.2899
  64  1092.738
  65  1286.385
  66  1368.057
  67  1076.816
  68  982.61
  69  979.6634
  70  1041.188
  71  1044.245
  72  965.4756
  73  881.9251
  74  698.423
  75  512.1719
  76  522.6806
  77  429.2523
  78  473.9376
  79  647.1721
  80  822.5455
  81  1120.699
  82  1182.791
  83  1314.72
  84  1403.232
  85  1414.026
  86  1346.839
  87  1092.501
  88  970.3277
  89  856.5168
  90  679.7823
  91  521.48
  92  407.0257
  93  507.6912
  94  732.1312
  95  848.1646
  96  1088.273
  97  1112.636
  98  1270.969
  99  1305.383
 100  1269.295
 101  1217.195
 102  1107.754
 103  949.4102
 104  786.9271
 105  536.7186
 106  323.2614
 107  152.8311
 108  218.9828
 109  360.2685
 110  346.7838
 111  345.7924
 112  503.252
 113  607.0362
 114  848.8254
 115  987.6269
 116  1175.763
 117  1311.227
 118  1353.461
 119  1323.595
 120  974.7678
 121  826.4792
 122  713.9713
 123  604.0687
 124  641.0272
 125  407.8097
 126  373.2013
 127  302.5817
 128  513.7239
 129  761.4458
 130  849.914
 131  926.1859
 132  1028.477
 133  1126.563
 134  1181.478
 135  1065.097
 136  1055.731
 137  1098.787
 138  900.1444
 139  766.3378
 140  525.2909
 141  432.5478
 142  351.6524
 143  208.8841
 144  255.3934
 145  200.8782
 146  473.0638
 147  832.1684
 148  920.1206
 149  1042.359
 150  1096.378
 151  1262.741
 152  1257.281
 153  1079.425
 154  1124.415
 155  1049.249
 156  870.8834
 157  757.7764
 158  570.9268
 159  579.205
 160  587.9351
 161  761.8945
 162  943.2204
 163  1047.053
 164  1215.132
 165  1146.162
 166  974.2703
 167  994.5532
 168  1079.902
 169  1347.313
 170  1334.888
 171  1142.734
 172  1024.405
 173  819.4539
 174  832.211
 175  665.3711
 176  426.2753
 177  469.0144
 178  499.0565
 179  820.7812
 180  692.0587
 181  738.7665
 182  926.8068
 183  1130.465
 184  1335.384
 185  1381.99
 186  1346.59
 187  1363.081
 188  1104.54
 189  1054.394
 190  729.6746
 191  733.8209
 192  832.7093
 193  951.6049
 194  948.5947
 195  942.8475
 196  1012.481
 197  1067.417
 198  1006.37
 199  1188.784
 200  1330.183
 201  1282.03
 202  1276.119
 203  1188.539
 204  1126.718
 205  998.8558
 206  739.6891
 207  548.4327
 208  349.5467
 209  441.8565
 210  601.2173
 211  631.8073
 212  715.0708
 213  765.1716
 214  1035.613
 215  1136.926
 216  1186.402
 217  1155.957
 218  1093.248
 219  1072.202
 220  997.7327
 221  884.6313
 222  818.5586
 223  711.5336
 224  878.3
 225  828.9546
 226  862.5475
 227  920.6678
 228  1110.366
 229  1177.558
 230  1197.8
 231  1246.968
 232  1284.557
 233  1153.461
 234  997.04
 235  953.4332
 236  871.6784
 237  845.0112
 238  636.7294
 239  508.5825
 240  403.4859
 241  491.2097
 242  728.7712
 243  902.0186
 244  946.3546
 245  1124.262
 246  1120.222
 247  1194.869
 248  1120.111
 249  1257.274
 250  1316.208
 251  1228.761
 252  1122.582
 253  887.9319
 254  695.2875
 255  547.6633
 256  672.9761
 257  905.2397
 258  891.6595
 259  964.5408
 260  1119.651
 261  1391.857
 262  1455.711
 263  1443.34
 264  1474.533
 265  1399.702
 266  1398.506
 267  1291.188
 268  1091.871
 269  947.7817
 270  866.5444
 271  736.8614
 272  465.2791
 273  251.2654
 274  233.9675
 275  373.2892
 276  373.5754
 277  567.6481
 278  795.8219
 279  1140.328
 280  1234.844
 281  1238.116
 282  1326.316
 283  1257.492
 284  1179.273
 285  1194.221
 286  1097.507
 287  1000.642
 288  908.7087
 289  866.4382
 290  848.6254
 291  699.1584
 292  852.6665
 293  781.1143
 294  821.3248
 295  944.2471
 296  997.2886
 297  1201.58
 298  1116.617
 299  1152.437
 300  1130.397
 301  1093.049
 302  1205.246
 303  1155.182
 304  1025.7
 305  852.2684
 306  679.5765
 307  612.9412
 308  430.1038
 309  307.4166
 310  348.9096
 311  402.6563
 312  884.4346
 313  1156.05
 314  1242.716
 315  1147.422
 316  1367.072
 317  1661.684
 318  1705.948
 319  1392.323
 320  1235.178
 321  1014.294
 322  972.8204
 323  666.4161
 324  440.9999
 325  589.8968
 326  670.4487
 327  964.5874
 328  995.7376
 329  1122.897
 330  1333.029
 331  1293.974
 332  1324.314
 333  1177.085
 334  1119.039
 335  1234.359
 336  1036.385
 337  958.6403
 338  824.0523
 339  732.0961
 340  595.9796
 341  511.0338
 342  566.5906
 343  703.3022
 344  735.5958
 345  1027.282
 346  993.6438
 347  1083.021
 348  1232.298
 349  1535.498
 350  1768.374
 351  1652.119
 352  1591.907
 353  1421.319
 354  1125.052
 355  880.1916
 356  617.4232
 357  675.8552
 358  773.243
 359  907.8495
 360  945.7372
 361  1020.74
 362  1213.618
 363  1352.037
 364  1323.091
 365  1307.85
 366  1344.652
 367  1336.546
 368  1410.739
 369  1221.676
 370  1145.529
 371  825.3611
 372  717.418
 373  775.3482
 374  710.769
 375  885.1525
 376  800.3407
 377  889.9637
 378  886.2556
 379  884.8257
 380  1130.971
 381  1337.148
 382  1380.286
 383  1255.349
 384  1132.446
 385  1157.748
 386  1118.861
 387  1144.379
 388  1093.443
 389  1040.466
 390  1017.094
 391  989.3483
 392  851.067
 393  1038.796
 394  1313.373
 395  1508.575
 396  1360.764
 397  1259.202
 398  1266.576
 399  1143.556
 400  1105.863
 401  1053.422
 402  928.752
 403  828.7889
 404  765.6564
 405  911.8978
 406  839.324
 407  745.7455
 408  871.6501
 409  1014.076
 410  1197.35
 411  1128.339
 412  1348.499
 413  1404.11
 414  1348.815
 415  1237.532
 416  1065.425
 417  972.8726
 418  1021.365
 419  1024.528
 420  901.1736
 421  723.9977
 422  756.017
 423  850.8638
 424  801.7326
 425  886.4202
 426  1090.926
 427  1293.429
 428  1464.181
 429  1440.016
 430  1471.206
 431  1353.062
 432  1361.776
 433  1407.876
 434  1132.993
 435  792.6155
 436  533.0831
 437  444.1926
 438  369.3362
 439  308.9519
 440  500.7508
 441  687.8379
 442  854.3176
 443  1011.974
 444  1050.591
 445  1299.818
 446  1545.097
 447  1479.023
 448  1307.784
 449  1130.51
 450  1368.392
 451  1403.196
 452  1322.548
 453  1173.612
 454  932.3397
 455  931.0374
 456  711.9329
 457  775.712
 458  751.8256
 459  858.7702
 460  1094.845
 461  1349.255
 462  1606.59
 463  1689.765
 464  1536.644
 465  1473.802
 466  1262.557
 467  1109.08
 468  1063.02
 469  852.2897
 470  784.9769
 471  703.2396
 472  802.2392
 473  869.7421
 474  713.6539
 475  641.7174
 476  704.8572
 477  894.9608
 478  1193.514
 479  1316.64
 480  1428.277
 481  1432.991
 482  1362.892
 483  1508.276
 484  1412.22
 485  1489.765
 486  1265.175
 487  918.3622
 488  670.1511
 489  423.0228
 490  541.3915
 491  697.4815
 492  763.517
 493  1003.747
 494  929.8265
 495  1097.578
 496  1127.641
 497  1313.219
 498  1442.743
 499  1319.594
 500  1374.931
 501  1465.768
 502  1249.257
 503  996.6392
 504  702.6816
 505  706.6755
 506  592.5253
 507  455.463
 508  615.0742
 509  766.431
 510  987.6139
 511  1194.133
 512  1193.141
 513  1332.348
 514  1355.872
 515  1512.332
 516  1492.824
 517  1262.128
 518  1248.363
 519  1041.258
 520  997.3784
 521  833.2141
 522  706.8685
 523  709.7967
 524  808.6709
 525  932.6379
 526  1078.413
 527  1053.904
 528  1334.301
 529  1380.227
 530  1411.306
 531  1173.927
 532  1096.208
 533  1224.547
 534  1075.4
 535  822.4879
 536  649.1051
 537  602.7897
 538  602.5106
 539  639.676
 540  607.8239
 541  746.369
 542  673.7061
 543  1037.937
 544  1073.59
 545  1035.671
 546  1038.733
 547  924.6135
 548  987.2379
 549  898.7694
 550  1021.522
 551  1099.4
 552  1066.505
 553  975.571
 554  788.3629
 555  821.4952
 556  968.8829
 557  1043.993
 558  1020.202
 559  1089.487
 560  1183.729
 561  1386.977
 562  1195.356
 563  1162.93
 564  1021.519
 565  1026.927
 566  1016.111
 567  829.0167
 568  708.3789
 569  539.5856
 570  599.0948
 571  679.7259
 572  520.9978
 573  511.2095
 574  693.7235
 575  869.801
 576  966.9229
 577  868.2315
 578  993.2874
 579  1082.378
 580  996.444
 581  886.5318
 582  676.4714
 583  725.44
 584  842.4327
 585  918.8688
 586  747.5455
 587  593.7745
 588  837.5861
 589  1018.029
 590  1096.09
 591  1150.093
 592  1308.699
 593  1539.563
 594  1585.423
 595  1688.802
 596  1653.403
 597  1689.742
 598  1885.531
 599  2023.295
 600  2053.969
 601  2103.107
 602  1904.79
 603  1772.984
 604  1561.389
 605  1461.54
 606  1467.842
 607  1371.492
 608  1447.503
 609  1389.885
 610  1307.452
 611  1356.385
 612  1321.437
 613  1441.28
 614  1279.748
 615  1155.105
 616  1169.428
 617  1116.652
 618  870.3559
 619  373.8854
 620  373.6474
 621  439.5418
 622  501.4558
 623  480.5908
 624  708.9724
 625  1127.66
 626  1510.342
 627  1527.187
 628  1578.2
 629  1559.381
 630  1681.773
 631  1815.377
 632  1548.008
 633  1254.549
 634  870.1259
 635  803.4216
 636  724.0359
 637  460.0869
 638  253.3053
 639  349.0474
 640  470.1516
 641  706.8862
 642  790.0025
 643  1147.164
 644  1443.492
 645  1564.523
 646  1538.822
 647  1426.946
 648  1308.322
 649  1274.35
 650  999.0177
 651  858.7122
 652  559.6109
 653  562.802
 654  650.7609
 655  552.7349
 656  575.5671
 657  577.8412
 658  922.3422
 659  1207.23
 660  1187.099
 661  1332.454
 662  1394.338
 663  1602.648
 664  1586.837
 665  1212.661
 666  1148.269
 667  963.5364
 668  867.0615
 669  623.8045
 670  466.9676
 671  536.4673
 672  597.0034
 673  621.7126
 674  860.0413
 675  881.6524
 676  1146.785
 677  1219.829
 678  1299.905
 679  1295.578
 680  1276.242
 681  1394.825
 682  1307.136
 683  1072.229
 684  960.8666
 685  735.2561
 686  807.934
 687  737.2375
 688  808.585
 689  917.7127
 690  907.7911
 691  1055.058
 692  1105.116
 693  1221.93
 694  1284.076
 695  1237.941
 696  1290.421
 697  1103.351
 698  1025.571
 699  1100.177
 700  929.4639
 701  805.5557
 702  489.1965
 703  607.0859
 704  827.947
 705  924.76
 706  933.675
 707  957.9097
 708  977.2544
 709  1142.156
 710  1023.693
 711  1181.959
 712  1231.067
 713  1374.811
 714  1455.296
 715  1292.994
 716  1139.44
 717  902.425
 718  877.5773
 719  923.5923
 720  857.0082
 721  917.9928
 722  978.2748
 723  973.6583
 724  1057.906
 725  1136.184
 726  1197.73
 727  1183.963
 728  1044.793
 729  881.277
 730  705.6708
 731  897.9756
 732  1079.357
 733  881.7527
 734  565.4908
 735  469.4649
 736  465.3887
 737  539.8486
 738  516.1093
 739  774.47
 740  747.1664
 741  862.3492
 742  1023.935
 743  1213.444
 744  1289.226
 745  1187.353
 746  1183.782
 747  1160.355
 748  1138.613
 749  1155.509
 750  1053.383
 751  914.7789
 752  704.1432
 753  592.6609
 754  594.2622
 755  556.4189
 756  754.9395
 757  962.0529
 758  1082.349
 759  1172.511
 760  1031.89
 761  1135.23
 762  1026.176
 763  1026.014
 764  1030.082
 765  947.3121
 766  804.8389
 767  618.0449
 768  520.9934
 769  516.4641
 770  379.6025
 771  404.9221
 772  615.4739
 773  790.1359
 774  996.1768
 775  923.95
 776  1062.212
 777  1135.791
 778  1305.754
 779  1411.752
 780  1260.685
 781  1075.923
 782  1005.839
 783  848.7169
 784  756.8644
 785  481.5671
 786  542.7366
 787  524.0417
 788  487.2964
 789  553.0229
 790  502.0448
 791  761.838
 792  995.5843
 793  1220.495
 794  1286.694
 795  1060.963
 796  1057.08
 797  943.0392
 798  821.6709
 799  610.4955
 800  397.2109
 801  243.7547
 802  173.5226
 803  208.2863
 804  288.5619
 805  379.512
 806  588.4173
 807  910.5576
 808  918.101
 809  1204.37
 810  1414.566
 811  1594.203
 812  1245.629
 813  891.4352
 814  912.1381
 815  893.2666
 816  830.2693
 817  749.8105
 818  668.769
 819  664.5044
 820  518.0002
 821  585.0992
 822  648.7872
 823  851.2917
 824  1091.623
 825  1131.916
 826  1076.729
 827  992.2466
 828  1125.16
 829  1258.524
 830  971.9867
 831  799.0883
 832  764.1596
 833  608.3627
 834  397.9904
 835  121.9884
 836  115.0016
 837  259.7425
 838  397.0695
 839  651.506
 840  634.0806
 841  790.0104
 842  1049.872
 843  1255.286
 844  1337.955
 845  1225.087
 846  1169.315
 847  1251.504
 848  1147.208
 849  1041.11
 850  730.7734
 851  546.4761
 852  558.3015
 853  669.9025
 854  787.0542
 855  843.6056
 856  912.385
 857  1059.142
 858  968.5015
 859  1002.175
 860  1038.415
 861  1166.769
 862  1307.27
 863  1205.12
 864  1086.596
 865  1042.948
 866  919.2882
 867  931.0726
 868  754.6501
 869  714.5001
 870  655.6932
 871  571.1274
 872  732.9805
 873  670.4255
 874  890.7139
 875  1037.58
 876  1209.147
 877  1224.719
 878  1135.774
 879  1196.336
 880  1237.595
 881  1057.967
 882  978.001
 883  754.3164
 884  797.7467
 885  797.6757
 886  902.9965
 887  1002.696
 888  1028.288
 889  1122.724
 890  1182.801
 891  1137.51
 892  1157.469
 893  1073.057
 894  1111.495
 895  1100.922
 896  1077.936
 897  1133.58
 898  1044.889
 899  949.965
 900  689.8307
 901  624.5792
 902  753.4695
 903  877.0157
 904  1007.789
 905  1171.876
 906  1184.238
 907  1241.165
 908  1084.32
 909  1169.618
 910  1177.289
 911  1271.668
 912  1298.009
 913  1255.757
 914  1109.375
 915  1124.384
 916  1132.625
 917  1144.047
 918  842.9049
 919  888.8519
 920  1044.524
 921  1195.147
 922  1272.588
 923  1321.53
 924  1482.762
 925  1381.939
 926  1288.512
 927  1327.268
 928  1318.112
 929  1371.209
 930  1401.565
 931  1314.346
 932  1001.205
 933  736.088
 934  672.1442
 935  791.5252
 936  585.1142
 937  565.5892
 938  715.3311
 939  1004.885
 940  1307.638
 941  1429.364
 942  1529.638
 943  1514.531
 944  1485.445
 945  1395.271
 946  1099.929
 947  1020.579
 948  932.2722
 949  964.5751
 950  812.9812
 951  666.7371
 952  843.1609
 953  834.3229
 954  861.5677
 955  878.659
 956  1068.836
 957  1431.91
 958  1387.925
 959  1507.06
 960  1390.479
 961  1288.198
 962  1233.654
 963  1032.886
 964  850.7116
 965  644.6176
 966  439.0332
 967  393.2652
 968  366.448
 969  428.6242
 970  597.2076
 971  686.7343
 972  886.6489
 973  939.637
 974  1094.012
 975  1317.9
 976  1369.255
 977  1389.43
 978  1215.608
 979  1017.442
 980  917.8789
 981  781.0318
 982  797.4696
 983  646.6198
 984  545.7733
 985  591.7455
 986  611.3579
 987  970.7212
 988  1019.97
 989  1331.672
 990  1495.29
 991  1586.761
 992  1563.323
 993  1415.33
 994  1296.702
 995  1214.367
 996  999.0736
 997  904.7016
 998  719.1661
 999  551.2859
1000  438.7649
1001  245.8961
1002  253.901
1003  367.2103
1004  583.4661
1005  894.1349
1006  995.9709
1007  1229.597
1008  1359.857
1009  1505.337
1010  1590.012
1011  1573.92
1012  1520.221
1013  1382.598
1014  1215.34
1015  1033.723
1016  730.546
1017  628.0694
1018  719.3524
1019  709.0885
1020  704.5661
1021  757.0773
1022  1156.047
1023  1352.524
