# Input file       =  1208786440.114979_cleaned.dat
# Candidate        =  PSR_0332+5434
# Telescope        =  AR
# Epoch_topo       =  58234.584017534478
# Epoch_bary       =  N/A
# T_sample         =  0.002
# Data Folded      =  7340032
# Data Avg         =  0.318804461138955
# Data StdDev      =  6.1667371148165  
# Profile Bins     =  512
# Profile Avg      =  4570.44410674112 
# Profile StdDev   =  738.362159294278 
# Reduced chi-sqr  =  0.921
# Prob(Noise)      <  0.899   (~0.0 sigma)
# P_topo (ms)      =  714.55098000573   +/- 0.000678
# P'_topo (s/s)    =  -0                +/- 3.58e-10
# P''_topo (s/s^2) =  0                 +/- 1.58e-13
# P_bary (ms)      =  N/A
# P'_bary (s/s)    =  N/A
# P''_bary (s/s^2) =  N/A
# P_orb (s)        =  N/A
# asin(i)/c (s)    =  N/A
# eccentricity     =  N/A
# w (rad)          =  N/A
# T_peri           =  N/A
######################################################
   0  4375.406
   1  4556.964
   2  4607.993
   3  4467.407
   4  4624.442
   5  4575.014
   6  4542.935
   7  4877.172
   8  4982.983
   9  5004.546
  10  5252.899
  11  5361.505
  12  5000.851
  13  4729.607
  14  4505.584
  15  4342.081
  16  4525.098
  17  4649.855
  18  4647.931
  19  4441.394
  20  4951.985
  21  5031.925
  22  5048.695
  23  4724.221
  24  4493.384
  25  4036.672
  26  4150.076
  27  4561.749
  28  4466.514
  29  4546.467
  30  3912.867
  31  4055.502
  32  4278.971
  33  4037.325
  34  3861.178
  35  4036.005
  36  4193.258
  37  4042.104
  38  3866.722
  39  3572.794
  40  3217.468
  41  3688.372
  42  4011.01
  43  4082.956
  44  3952.649
  45  3949.254
  46  3642.987
  47  3250.154
  48  3275.449
  49  3646.987
  50  3693.225
  51  3606.038
  52  3898.577
  53  4079.625
  54  3823.489
  55  4091.313
  56  3956.097
  57  3831.603
  58  3693.556
  59  3735.648
  60  3989.48
  61  3917.219
  62  3910.293
  63  3596.615
  64  3935.169
  65  4006.304
  66  3791.195
  67  3707.765
  68  4075.272
  69  3706.584
  70  3441.9
  71  3723.264
  72  3850.086
  73  3560.712
  74  3286.623
  75  3607.504
  76  3662.119
  77  3737.152
  78  3434.219
  79  3483.197
  80  4086.753
  81  3895.723
  82  3792.661
  83  4077.579
  84  3643.035
  85  3992.792
  86  4653.262
  87  4885.31
  88  4724.116
  89  4891.733
  90  4823.16
  91  4805.966
  92  5003.523
  93  4617.115
  94  4518.389
  95  4846.504
  96  4798.617
  97  4583.181
  98  4873.89
  99  4684.755
 100  4757.291
 101  4280.813
 102  4037.137
 103  4441.976
 104  4782.893
 105  4432.597
 106  4054.649
 107  4923.371
 108  4922.046
 109  4380.153
 110  4735.61
 111  4843.667
 112  4935.316
 113  4774.788
 114  4913.967
 115  4922.979
 116  4451.081
 117  4761.438
 118  5059.325
 119  5106.132
 120  4866.955
 121  4839.979
 122  4952.289
 123  4812.434
 124  4991.571
 125  4950.429
 126  5391.032
 127  5229.123
 128  4996.392
 129  4759.783
 130  4609.592
 131  4631.141
 132  5016.671
 133  5032.989
 134  4815.935
 135  4986.008
 136  4984.169
 137  4799.632
 138  4632.607
 139  4669.776
 140  5046.337
 141  5112.124
 142  4897.118
 143  4794.202
 144  4706.619
 145  4889.591
 146  4937.447
 147  5031.895
 148  4874.025
 149  4912.485
 150  4835.128
 151  4718.57
 152  4827.103
 153  4992.208
 154  5005.895
 155  5229.31
 156  5550.036
 157  5515.979
 158  5234.251
 159  5001.694
 160  5171.038
 161  4983.651
 162  4965.753
 163  5025.802
 164  5323.819
 165  5270.857
 166  5190.233
 167  5354.019
 168  5481.433
 169  5521.504
 170  5134.899
 171  4905.299
 172  5306.96
 173  6096.62
 174  5544.119
 175  5132.461
 176  5066.463
 177  5151.981
 178  5255.477
 179  5292.5
 180  4918.146
 181  4807.337
 182  5001.781
 183  5184
 184  4928.841
 185  4720.089
 186  4529.898
 187  4670.737
 188  4980.635
 189  4568.673
 190  4649.032
 191  4981.896
 192  4951.214
 193  4890.697
 194  4703.4
 195  4651.474
 196  4652.513
 197  5029.937
 198  5147.01
 199  5043.122
 200  5089.58
 201  4678.826
 202  4139.247
 203  4244.26
 204  4537.215
 205  4503.841
 206  4730.747
 207  5025.954
 208  5161.213
 209  5288.38
 210  5734.483
 211  5825.84
 212  6102.603
 213  6377.984
 214  6575.569
 215  6153.013
 216  5332.333
 217  4651.156
 218  4237.583
 219  3930.925
 220  4147.497
 221  4351.92
 222  3730.019
 223  3704.598
 224  3862.067
 225  3968.892
 226  4072.316
 227  4014.202
 228  3908.699
 229  4062.297
 230  4037.067
 231  3807.602
 232  4202.424
 233  3999.013
 234  3724.141
 235  3935.949
 236  4197.634
 237  4633.334
 238  4781.435
 239  4622.003
 240  4487.298
 241  4514.302
 242  4380.889
 243  4563.173
 244  4984.562
 245  5178.199
 246  4907.243
 247  4446.517
 248  4514.077
 249  4255.068
 250  4591.355
 251  4683.716
 252  4665.646
 253  4501.405
 254  4637.575
 255  4779.235
 256  4560.538
 257  4629.24
 258  4414.296
 259  4762.773
 260  4878.931
 261  4909.775
 262  4957.576
 263  4445.605
 264  4282.599
 265  3982.469
 266  4031.569
 267  4524.826
 268  4442.473
 269  4393.533
 270  4399.819
 271  4502.16
 272  4616.169
 273  3980.733
 274  4172.272
 275  4290.328
 276  4383.055
 277  4365.13
 278  4206.003
 279  4050.709
 280  4249.318
 281  4545.012
 282  4609.686
 283  4624.833
 284  4709.06
 285  4632.084
 286  4629.278
 287  5112.346
 288  5102.438
 289  4733.872
 290  5208.729
 291  5210.113
 292  5139.964
 293  5133.026
 294  4854.135
 295  4706.53
 296  4910.44
 297  5091.982
 298  5136.163
 299  4832.437
 300  4559.52
 301  4914.189
 302  5108.363
 303  5156.556
 304  4875.469
 305  5263.672
 306  5234.113
 307  5110.768
 308  5382.196
 309  5480.31
 310  5266.322
 311  5134.462
 312  5133.882
 313  4986.511
 314  5087.437
 315  5033.375
 316  4587.875
 317  4316.62
 318  4725.692
 319  4379.59
 320  4258.695
 321  4701.708
 322  4549.777
 323  4484.654
 324  5159.828
 325  4833.509
 326  4575.698
 327  4778.979
 328  5183.402
 329  4880.64
 330  4586.235
 331  4553.964
 332  4647.268
 333  4733.815
 334  4787.571
 335  4570.098
 336  4623.357
 337  4103.726
 338  4014.949
 339  4005.14
 340  3944.268
 341  4383.36
 342  4336.829
 343  4658.127
 344  4538.868
 345  4515.559
 346  4262.954
 347  4023.83
 348  4060.294
 349  4103.298
 350  4264.117
 351  4234.77
 352  4076.542
 353  4016.116
 354  4032.303
 355  4006.747
 356  3763.464
 357  3983.322
 358  3974.837
 359  4304.89
 360  4367.192
 361  4501.004
 362  4616.215
 363  4410.221
 364  4490.195
 365  4148.676
 366  4479.258
 367  4441.527
 368  4098.545
 369  3910.802
 370  4483.756
 371  4815.62
 372  4672.158
 373  4569.998
 374  4677.955
 375  4918.983
 376  4732.447
 377  4438.884
 378  4985.725
 379  5414.411
 380  5162.731
 381  5007.026
 382  4944.08
 383  4821.445
 384  4576.064
 385  4421.948
 386  4332.354
 387  4577.924
 388  4596.758
 389  4921.918
 390  4784.253
 391  4641.926
 392  4270.348
 393  4078.606
 394  3979.644
 395  3960.413
 396  4076.898
 397  3881.16
 398  3676.112
 399  3666.288
 400  4025.327
 401  4075.249
 402  4385.779
 403  4464.176
 404  4501.358
 405  4441.646
 406  4197.559
 407  4060.704
 408  4547.044
 409  4811.344
 410  4557.375
 411  4442.834
 412  4307.067
 413  4315.416
 414  4462.401
 415  4595.809
 416  4971.362
 417  4699.061
 418  4651.868
 419  4763.342
 420  4479.678
 421  4606.353
 422  4151.033
 423  4299.491
 424  4352.013
 425  4141.426
 426  4373.371
 427  4754.393
 428  4184.305
 429  4316
 430  4150.074
 431  4526.625
 432  4762.55
 433  4512.7
 434  4328.051
 435  4512.89
 436  4153.424
 437  4009.78
 438  4284.593
 439  4254.677
 440  3918.874
 441  4355.521
 442  4811.389
 443  4860.085
 444  4643.259
 445  4772.937
 446  4911.793
 447  4765.899
 448  5201.451
 449  5591.697
 450  5526.97
 451  5376.269
 452  5279.056
 453  5342.174
 454  5310.611
 455  5106.543
 456  5052.414
 457  5174.558
 458  5049.503
 459  5048.053
 460  5203.335
 461  5269.036
 462  5302.871
 463  5419.934
 464  5192.57
 465  5343.525
 466  5726.897
 467  5543.83
 468  5519.561
 469  5361.374
 470  4850.301
 471  4315.571
 472  4693.333
 473  4717.294
 474  4005.467
 475  4165.574
 476  4365.048
 477  4470.563
 478  4532.699
 479  4534.558
 480  4684.942
 481  4337.758
 482  4392.738
 483  4600.791
 484  4680.103
 485  4135.312
 486  4479.048
 487  4494.746
 488  4184.508
 489  4092.096
 490  4371.013
 491  4322.45
 492  3755.2
 493  3567.546
 494  3769.096
 495  3608.24
 496  3661.792
 497  4060.57
 498  4149.411
 499  4202.117
 500  4081.188
 501  4023.401
 502  4136.555
 503  4221.893
 504  4236.995
 505  4626.463
 506  4665.131
 507  4463.094
 508  4485.82
 509  4426.847
 510  4219.87
 511  4063.71
