# Input file       =  1208239734.114344_cleaned.dat
# Candidate        =  PSR_0332+5434
# Telescope        =  AR
# Epoch_topo       =  58228.256401786384
# Epoch_bary       =  N/A
# T_sample         =  0.002
# Data Folded      =  7208960
# Data Avg         =  0.159613305782179
# Data StdDev      =  4.90849529172619 
# Profile Bins     =  1024
# Profile Avg      =  1123.57953849311 
# Profile StdDev   =  411.845863453117 
# Reduced chi-sqr  =  1.089
# Prob(Noise)      <  0.0244   (~2.0 sigma)
# P_topo (ms)      =  714.555971495361  +/- 4.31e-05
# P'_topo (s/s)    =  -0                +/- 2.32e-11
# P''_topo (s/s^2) =  0                 +/- 1.04e-14
# P_bary (ms)      =  N/A
# P'_bary (s/s)    =  N/A
# P''_bary (s/s^2) =  N/A
# P_orb (s)        =  N/A
# asin(i)/c (s)    =  N/A
# eccentricity     =  N/A
# w (rad)          =  N/A
# T_peri           =  N/A
######################################################
   0  1259.531
   1  1377.75
   2  1423.89
   3  1450.647
   4  1374.779
   5  1248.792
   6  1092.847
   7  1049.232
   8  1111.342
   9  1288.586
  10  1336.224
  11  1330.13
  12  1133.828
  13  985.127
  14  941.4655
  15  945.8335
  16  858.5629
  17  825.0031
  18  779.0821
  19  857.3273
  20  1058.18
  21  1229.561
  22  1187.786
  23  1154.578
  24  1372.418
  25  1531.31
  26  1540.102
  27  1450.043
  28  1283.508
  29  1101.151
  30  1181.642
  31  1293.144
  32  1281.102
  33  1173.466
  34  1286.303
  35  1243.049
  36  1254.72
  37  1111.722
  38  1134.148
  39  1138.626
  40  1199.312
  41  1198.408
  42  1223.916
  43  1239.417
  44  1107.526
  45  990.226
  46  1085.69
  47  1199.525
  48  1136.279
  49  884.585
  50  922.4074
  51  829.9561
  52  827.3615
  53  835.3735
  54  974.6666
  55  1068.411
  56  1298.58
  57  1414.986
  58  1386.793
  59  1343.015
  60  1403.563
  61  1308.68
  62  1296.03
  63  1230.668
  64  1200.131
  65  1003.972
  66  957.9849
  67  995.0425
  68  885.4879
  69  941.681
  70  867.1998
  71  927.1296
  72  1020.436
  73  1016.965
  74  1025.961
  75  866.4791
  76  964.5809
  77  964.8159
  78  1029.507
  79  993.8057
  80  796.0765
  81  622.4658
  82  615.7144
  83  682.4041
  84  788.1744
  85  746.209
  86  766.1148
  87  622.3218
  88  760.6085
  89  1048.596
  90  1225.618
  91  1157.619
  92  1248.692
  93  1331.151
  94  1469.431
  95  1435.255
  96  1346.993
  97  1193.377
  98  1101.599
  99  1079.204
 100  1023.497
 101  910.4599
 102  1007.116
 103  1031.169
 104  1062.163
 105  900.4136
 106  921.942
 107  1032.574
 108  1204.868
 109  1235.532
 110  1204.864
 111  1204.769
 112  1351.284
 113  1340.914
 114  1269.775
 115  1170.722
 116  949.5858
 117  920.6215
 118  944.1423
 119  980.2743
 120  1122.598
 121  1281.8
 122  1439.327
 123  1280.268
 124  1163.051
 125  1257.553
 126  1350.282
 127  1427.127
 128  1521.918
 129  1529.409
 130  1524.973
 131  1489.438
 132  1488.359
 133  1399.45
 134  1133.086
 135  1088.714
 136  1136.812
 137  1261.871
 138  1230.582
 139  1079.875
 140  1161.042
 141  1243.082
 142  1350.747
 143  1290.615
 144  1293.394
 145  1107.42
 146  836.4313
 147  773.4989
 148  829.5037
 149  931.3015
 150  835.8438
 151  873.7979
 152  829.2578
 153  957.5876
 154  1101.535
 155  1238.344
 156  1176.955
 157  1220.356
 158  1289.622
 159  1372.337
 160  1393.151
 161  1309.82
 162  1263.153
 163  1098.171
 164  1078.046
 165  1096.127
 166  1119.585
 167  1166.712
 168  1157.058
 169  1192.078
 170  1185.104
 171  1043.229
 172  1052.457
 173  1326.558
 174  1470.925
 175  1479.917
 176  1333.945
 177  1269.484
 178  1170.117
 179  1071.133
 180  1090.163
 181  1015.85
 182  1058.106
 183  978.1857
 184  855.9952
 185  710.3523
 186  937.498
 187  1160.508
 188  1243.068
 189  1246.116
 190  1369.337
 191  1429.387
 192  1403.013
 193  1366.959
 194  1481.212
 195  1548.742
 196  1423.791
 197  1344.206
 198  1162.237
 199  1233.846
 200  1154.337
 201  1216.908
 202  1224.572
 203  1251.23
 204  1170.566
 205  1106.335
 206  1137.388
 207  1125.58
 208  1026.345
 209  1087.121
 210  1056.697
 211  899.9913
 212  742.9767
 213  793.7065
 214  810.3006
 215  865.6044
 216  843.6882
 217  828.8733
 218  857.1368
 219  1105.799
 220  1169.245
 221  954.0648
 222  964.1526
 223  1219.392
 224  1467.903
 225  1581.376
 226  1379.017
 227  1323.659
 228  1165.31
 229  1185.029
 230  1090.687
 231  1046.041
 232  1223.419
 233  1316.86
 234  1350.045
 235  1178.855
 236  1050.946
 237  1006.541
 238  1266.995
 239  1368.737
 240  1489.988
 241  1454.342
 242  1492.559
 243  1351.383
 244  1101.465
 245  1050.95
 246  892.5482
 247  895.8477
 248  932.2167
 249  904.4712
 250  868.701
 251  699.0232
 252  731.2996
 253  616.2178
 254  689.6357
 255  863.6553
 256  1102.24
 257  1179.071
 258  1310.371
 259  1436.543
 260  1694.714
 261  1701.25
 262  1498.447
 263  1157.76
 264  917.9551
 265  955.0389
 266  950.9401
 267  819.1297
 268  878.8545
 269  852.8884
 270  969.5991
 271  999.562
 272  975.4121
 273  1066.039
 274  1249.719
 275  1328.729
 276  1133.055
 277  1079.142
 278  1120.048
 279  1006.987
 280  854.6469
 281  853.2629
 282  794.7891
 283  767.3403
 284  806.3328
 285  897.4185
 286  867.21
 287  902.7147
 288  1027.115
 289  1013.824
 290  1114.802
 291  1316.005
 292  1570.192
 293  1476.174
 294  1255.888
 295  1298.653
 296  1300.126
 297  1340.861
 298  1160.356
 299  1100.767
 300  1025.706
 301  966.4119
 302  861.782
 303  827.8481
 304  868.5157
 305  931.4421
 306  1053.756
 307  1058.324
 308  1075.117
 309  909.2939
 310  989.899
 311  1001.306
 312  958.5171
 313  914.5605
 314  775.1343
 315  752.9109
 316  756.1545
 317  834.0235
 318  831.0949
 319  843.0374
 320  1007.107
 321  1169.947
 322  1224.784
 323  1196.957
 324  1184.602
 325  1186.626
 326  1159.722
 327  1178.453
 328  1153.394
 329  1224.342
 330  1206.195
 331  1245.459
 332  1138.239
 333  1065.044
 334  928.9512
 335  847.8972
 336  985.0281
 337  1060.843
 338  1067.901
 339  1243.319
 340  1248.623
 341  1321.348
 342  1278.758
 343  1163.767
 344  956.7541
 345  799.9785
 346  1029.952
 347  1016.249
 348  923.577
 349  790.178
 350  812.9676
 351  788.7
 352  1020.607
 353  1110.474
 354  1164.262
 355  1170.485
 356  1170.962
 357  1367.849
 358  1300.121
 359  1282.382
 360  1331.8
 361  1372.473
 362  1388.923
 363  1195.372
 364  1181.339
 365  1217.336
 366  1108.524
 367  984.778
 368  877.782
 369  977.532
 370  1013.283
 371  1225.575
 372  1206.529
 373  1225.516
 374  1128.109
 375  1048.557
 376  869.6186
 377  734.8401
 378  732.9763
 379  754.1567
 380  702.3559
 381  704.8634
 382  664.1834
 383  652.8275
 384  728.7697
 385  959.496
 386  1152.278
 387  1196.144
 388  1284.699
 389  1389.974
 390  1412.737
 391  1467.255
 392  1428.959
 393  1273.514
 394  1150.999
 395  1137.303
 396  1090.73
 397  958.8484
 398  1002.553
 399  952.3286
 400  933.7247
 401  854.9896
 402  962.1083
 403  962.8362
 404  999.5165
 405  1175.093
 406  1347.981
 407  1554.902
 408  1568.088
 409  1313.17
 410  1220.944
 411  1069.978
 412  892.9544
 413  694.9702
 414  597.8304
 415  627.5509
 416  667.2249
 417  883.7114
 418  951.0894
 419  954.7552
 420  976.5206
 421  1218.272
 422  1276.361
 423  1397.871
 424  1527.456
 425  1645.482
 426  1606.512
 427  1428.764
 428  1221.818
 429  1003.309
 430  1041.636
 431  1007.028
 432  859.9083
 433  754.1789
 434  748.405
 435  777.3545
 436  875.1212
 437  1031.769
 438  1036.089
 439  1108.358
 440  1118.669
 441  1160.338
 442  1075.998
 443  1088.659
 444  1070.438
 445  1038.324
 446  972.321
 447  811.5439
 448  750.749
 449  790.357
 450  942.7448
 451  844.1955
 452  866.6209
 453  1151.563
 454  1370.085
 455  1347.61
 456  1376.867
 457  1400.366
 458  1494.39
 459  1433.708
 460  1424.512
 461  1301.22
 462  1362.723
 463  1386.433
 464  1259.545
 465  1015.981
 466  966.7239
 467  1052.605
 468  966.757
 469  910.8478
 470  848.7603
 471  852.7209
 472  908.8024
 473  939.9259
 474  1053.518
 475  1036.18
 476  1073.696
 477  1041.45
 478  1027.206
 479  872.8926
 480  762.8557
 481  815.5869
 482  1075.283
 483  1048.421
 484  994.8992
 485  1040.376
 486  1273.355
 487  1283.182
 488  1134.773
 489  1160.726
 490  1211.4
 491  1191.891
 492  1138.639
 493  1039.249
 494  1078.835
 495  1086.493
 496  1090.794
 497  1132.426
 498  1055.092
 499  1140.754
 500  989.7555
 501  844.5847
 502  880.4189
 503  1066.523
 504  1364.099
 505  1411.062
 506  1175.055
 507  936.1774
 508  834.1971
 509  889.0889
 510  845.4272
 511  870.9197
 512  940.5141
 513  960.5776
 514  927.0238
 515  1057.567
 516  1006.774
 517  1126.7
 518  1236.598
 519  1376.366
 520  1204.5
 521  1146.208
 522  1127.898
 523  1153.078
 524  1152.778
 525  1198.107
 526  1118.87
 527  997.7452
 528  1108.457
 529  1316.976
 530  1315.505
 531  1122.395
 532  1052.268
 533  1120.362
 534  1287.036
 535  1283.115
 536  1203.918
 537  1189.451
 538  1006.563
 539  950.7777
 540  1040.209
 541  1115.989
 542  828.8375
 543  676.7482
 544  720.632
 545  845.913
 546  714.8901
 547  546.2407
 548  492.4373
 549  522.1872
 550  942.2924
 551  1054.171
 552  1019.062
 553  921.2986
 554  1155.939
 555  1457.065
 556  1472.729
 557  1433.913
 558  1268.415
 559  1023.589
 560  854.8502
 561  780.4407
 562  733.1679
 563  769.3912
 564  860.0835
 565  915.9678
 566  918.4084
 567  899.0974
 568  982.9973
 569  1202.935
 570  1367.419
 571  1458.839
 572  1442.734
 573  1439.742
 574  1287.512
 575  1042.184
 576  984.5261
 577  999.3663
 578  971.56
 579  878.6595
 580  817.1086
 581  801.9162
 582  796.5034
 583  849.5853
 584  963.3605
 585  999.7579
 586  1483.696
 587  1893.58
 588  1946.974
 589  1811.136
 590  1653.35
 591  1636.25
 592  1555.421
 593  1569.984
 594  1504.012
 595  1418.95
 596  1510.498
 597  1542.336
 598  1412.226
 599  1388.523
 600  1505.603
 601  1662.722
 602  1806.304
 603  1947.481
 604  2011.327
 605  2108.485
 606  2134.036
 607  1895.441
 608  1529.665
 609  1256.565
 610  1120.841
 611  929.2608
 612  782.3821
 613  715.0361
 614  801.4954
 615  1031.521
 616  1211.222
 617  1101.218
 618  976.0271
 619  1253.403
 620  1485.806
 621  1573.496
 622  1569.469
 623  1739.077
 624  1696.306
 625  1560.842
 626  1492.29
 627  1457.426
 628  1393.83
 629  1388.389
 630  1422.868
 631  1251.671
 632  1196.148
 633  1113.124
 634  1211.695
 635  1188.767
 636  1160.11
 637  1105.568
 638  1162.571
 639  1162.55
 640  1073.078
 641  961.2869
 642  1024.967
 643  1158.049
 644  1124.649
 645  1303.277
 646  1230.7
 647  1310.034
 648  1212.831
 649  1240.023
 650  1244.95
 651  1251.486
 652  1232.581
 653  1241.199
 654  1171.394
 655  1308.882
 656  1279.083
 657  1391.407
 658  1341.494
 659  1315.472
 660  1344.872
 661  1380.992
 662  1319.293
 663  1175.149
 664  1078.996
 665  1071.007
 666  1155.883
 667  1268.268
 668  1405.064
 669  1371.25
 670  1256.643
 671  1059.787
 672  997.8401
 673  1081.056
 674  1151.314
 675  1201.535
 676  1225.594
 677  1307.213
 678  1121.744
 679  1056.559
 680  1097.983
 681  1303.395
 682  1220.673
 683  1308.491
 684  1359.149
 685  1311.229
 686  1204.832
 687  1225.88
 688  1417.199
 689  1332.161
 690  1323.172
 691  1282.798
 692  1294.863
 693  1363.232
 694  1247.85
 695  1319.151
 696  1387.387
 697  1496.781
 698  1522.001
 699  1357.993
 700  1300.749
 701  1153.112
 702  1204.981
 703  1363.403
 704  1334.248
 705  1162.586
 706  1130.247
 707  988.3426
 708  977.7977
 709  813.2812
 710  832.6309
 711  777.5349
 712  810.6787
 713  1007.978
 714  942.3807
 715  970.1559
 716  1229.484
 717  1445.255
 718  1472.859
 719  1438.941
 720  1448.175
 721  1310.183
 722  1181.06
 723  1302.688
 724  1291.891
 725  1152.378
 726  1044.988
 727  970.7953
 728  873.4902
 729  778.3245
 730  821.5349
 731  842.5362
 732  841.3246
 733  981.4335
 734  1045.403
 735  1253.778
 736  1302.549
 737  1060.999
 738  948.1832
 739  1008.828
 740  1069.481
 741  873.1791
 742  724.0856
 743  784.0772
 744  752.3014
 745  718.6987
 746  735.4829
 747  705.1475
 748  854.929
 749  1105.369
 750  1317.086
 751  1323.356
 752  1562.636
 753  1741.097
 754  1824.151
 755  1699.879
 756  1506.543
 757  1328.703
 758  1210.788
 759  1067.812
 760  1036.932
 761  1040.457
 762  1095.224
 763  984.5786
 764  922.9036
 765  1012.211
 766  941.5034
 767  1015.97
 768  1106.037
 769  1161.464
 770  1025.534
 771  996.542
 772  1112.647
 773  1080.541
 774  857.6277
 775  925.454
 776  889.7188
 777  949.7133
 778  871.1917
 779  743.6534
 780  625.7356
 781  592.4902
 782  758.5735
 783  852.8926
 784  902.8929
 785  1225.142
 786  1347.08
 787  1485.916
 788  1478.797
 789  1418.97
 790  1361.578
 791  1267.484
 792  1248.174
 793  1230.371
 794  1163.824
 795  1231.203
 796  1116.809
 797  1080.204
 798  1040.962
 799  981.981
 800  983.5343
 801  942.1208
 802  1014.106
 803  1097.646
 804  1157.594
 805  1096.977
 806  1108.951
 807  1196.621
 808  1245.938
 809  1157.401
 810  1025.775
 811  1046.003
 812  1001.422
 813  1055.758
 814  1077.242
 815  1133.112
 816  1186.096
 817  1318.746
 818  1350.773
 819  1286.564
 820  1176.832
 821  1318.881
 822  1484.629
 823  1649.178
 824  1467.156
 825  1214.91
 826  1016.571
 827  1041.826
 828  1124.668
 829  943.4006
 830  892.0853
 831  878.5807
 832  939.5641
 833  1003.028
 834  879.6163
 835  909.5991
 836  1073.674
 837  1127.361
 838  1211.689
 839  1184.595
 840  1102.477
 841  1098.869
 842  873.726
 843  919.9121
 844  749.1023
 845  822.3087
 846  1012.798
 847  1028.398
 848  1056.206
 849  992.9224
 850  1162.372
 851  1187.657
 852  1124.221
 853  1171.947
 854  1275.425
 855  1279.57
 856  1278.248
 857  1105.547
 858  1207.137
 859  1308.518
 860  1293.356
 861  1263.968
 862  1222.916
 863  1234.341
 864  1107.888
 865  1035.015
 866  1063.476
 867  998.2416
 868  938.1233
 869  1042.137
 870  1016.767
 871  1010.305
 872  932.6861
 873  986.4394
 874  917.0642
 875  845.23
 876  832.5527
 877  767.3534
 878  866.462
 879  936.1182
 880  1002.745
 881  1103.211
 882  1207.988
 883  1238.98
 884  1135.234
 885  1201.767
 886  1306.073
 887  1338.215
 888  1177.609
 889  1098.495
 890  976.7764
 891  1048.624
 892  1084.878
 893  1007.206
 894  876.6424
 895  804.1652
 896  891.454
 897  830.3531
 898  885.4482
 899  832.5654
 900  981.7814
 901  1093.348
 902  1175.681
 903  916.8336
 904  834.3311
 905  750.2604
 906  831.017
 907  629.5449
 908  680.7552
 909  602.9655
 910  754.8971
 911  846.6413
 912  831.4522
 913  781.3793
 914  890.5593
 915  1174.438
 916  1320.149
 917  1439.359
 918  1566.393
 919  1517.996
 920  1446.661
 921  1276.364
 922  1054.599
 923  983.6376
 924  943.9307
 925  1054.733
 926  1052.836
 927  1106.854
 928  1129.617
 929  1018.518
 930  951.7596
 931  975.5283
 932  974.5125
 933  1065.305
 934  1009.417
 935  1044.692
 936  943.6488
 937  1081.811
 938  1170.093
 939  1115.464
 940  996.4325
 941  985.2516
 942  822.1164
 943  858.494
 944  912.4588
 945  949.3949
 946  859.1517
 947  862.9717
 948  942.9518
 949  946.6689
 950  1097.503
 951  1430.303
 952  1475.59
 953  1396.74
 954  1314.852
 955  1292.475
 956  1286.849
 957  1093.56
 958  926.098
 959  770.9105
 960  826.2802
 961  1051.258
 962  1041.938
 963  1041.476
 964  963.8104
 965  1023.679
 966  1145.956
 967  1210.145
 968  1255.853
 969  1187.246
 970  1215.986
 971  1209.064
 972  1030.092
 973  1004.862
 974  1056.318
 975  1112.611
 976  1092.799
 977  1018.307
 978  1077.318
 979  1199.969
 980  1397.032
 981  1313.269
 982  1302.257
 983  1564.866
 984  1702.905
 985  1690.837
 986  1716.716
 987  1650.018
 988  1640.773
 989  1584.009
 990  1517.361
 991  1315.469
 992  1130.57
 993  1164.143
 994  1080.383
 995  982.6367
 996  1043.404
 997  1131.5
 998  1263.661
 999  1317.19
1000  1303.436
1001  1195.043
1002  1162.799
1003  1114.492
1004  1109.403
1005  952.0002
1006  947.0658
1007  867.3759
1008  899.946
1009  956.8578
1010  884.0055
1011  1020.814
1012  1227.357
1013  1254.668
1014  1246.59
1015  1234.142
1016  1382.303
1017  1346.184
1018  1512.236
1019  1677.279
1020  1703.367
1021  1423.771
1022  1296.354
1023  1242.01
