# Input file       =  1208943319.116623_cleaned.dat
# Candidate        =  PSR_0332+5434
# Telescope        =  AR
# Epoch_topo       =  58236.399746720170
# Epoch_bary       =  N/A
# T_sample         =  0.002
# Data Folded      =  7340032
# Data Avg         =  0.0444653547683859
# Data StdDev      =  1.00015680132244 
# Profile Bins     =  512
# Profile Avg      =  637.458315408223 
# Profile StdDev   =  119.751810675209 
# Reduced chi-sqr  =  1.169
# Prob(Noise)      <  0.00487   (~2.6 sigma)
# P_topo (ms)      =  714.549044188492  +/- 0.000399
# P'_topo (s/s)    =  -0                +/- 2.11e-10
# P''_topo (s/s^2) =  0                 +/- 9.3e-14
# P_bary (ms)      =  N/A
# P'_bary (s/s)    =  N/A
# P''_bary (s/s^2) =  N/A
# P_orb (s)        =  N/A
# asin(i)/c (s)    =  N/A
# eccentricity     =  N/A
# w (rad)          =  N/A
# T_peri           =  N/A
######################################################
   0  545.0016
   1  578.6415
   2  582.7567
   3  598.5335
   4  620.058
   5  683.8309
   6  624.8368
   7  651.9044
   8  620.6572
   9  558.2384
  10  604.9557
  11  605.2087
  12  661.1044
  13  578.5596
  14  552.9792
  15  598.3193
  16  579.502
  17  670.626
  18  674.5052
  19  708.6778
  20  653.5283
  21  686.2144
  22  614.4108
  23  644.8798
  24  728.3604
  25  722.0853
  26  732.5336
  27  659.5756
  28  661.7531
  29  666.1447
  30  636.4645
  31  702.7187
  32  738.7475
  33  699.7604
  34  635.5209
  35  612.4224
  36  688.0684
  37  729.98
  38  660.9697
  39  651.1531
  40  627.049
  41  720.5507
  42  728.9244
  43  775.1235
  44  735.7775
  45  813.0984
  46  898.443
  47  991.5241
  48  1093.995
  49  1191.399
  50  1178.24
  51  1028.796
  52  831.0989
  53  677.0037
  54  654.4987
  55  627.9125
  56  600.3359
  57  665.4467
  58  726.7057
  59  657.0701
  60  589.2385
  61  581.3682
  62  609.4089
  63  620.8652
  64  653.0222
  65  734.7524
  66  677.379
  67  552.7109
  68  555.716
  69  551.9386
  70  581.2202
  71  676.8022
  72  647.0363
  73  650.5987
  74  543.6162
  75  639.9946
  76  642.2532
  77  558.0175
  78  652.33
  79  670.809
  80  616.4224
  81  691.119
  82  662.4742
  83  667.6579
  84  663.4728
  85  633.4601
  86  798.0846
  87  751.0889
  88  700.0804
  89  687.0917
  90  653.2111
  91  750.8084
  92  718.3874
  93  720.4134
  94  642.4332
  95  696.0621
  96  693.449
  97  666.0791
  98  600.6165
  99  646.8431
 100  663.2847
 101  613.621
 102  633.1466
 103  640.1953
 104  673.9038
 105  712.8812
 106  710.7133
 107  791.6788
 108  706.9504
 109  723.8563
 110  752.3689
 111  763.4507
 112  681.7285
 113  719.9894
 114  740.4807
 115  772.8866
 116  771.6536
 117  831.5779
 118  764.5823
 119  722.6691
 120  733.8945
 121  734.2797
 122  671.4042
 123  772.7512
 124  765.7451
 125  776.6766
 126  787.6486
 127  724.0402
 128  750.7982
 129  712.069
 130  623.4183
 131  578.6624
 132  513.2443
 133  570.0427
 134  625.7953
 135  674.2081
 136  625.9261
 137  600.9448
 138  646.0605
 139  677.8187
 140  585.1665
 141  602.821
 142  714.5548
 143  756.2608
 144  723.5541
 145  727.8319
 146  716.4203
 147  652.7711
 148  629.8305
 149  650.1538
 150  544.2971
 151  492.049
 152  570.3107
 153  644.8472
 154  562.2647
 155  499.2497
 156  568.8879
 157  629.1698
 158  497.8679
 159  395.4238
 160  509.2783
 161  563.0868
 162  593.4409
 163  562.1827
 164  589.4903
 165  616.4639
 166  564.4613
 167  483.3264
 168  502.5398
 169  551.8481
 170  588.4875
 171  580.6675
 172  613.2238
 173  623.7572
 174  574.826
 175  591.4996
 176  697.2145
 177  671.4312
 178  673.8256
 179  701.3476
 180  615.3604
 181  653.6249
 182  678.3461
 183  709.6047
 184  724.5157
 185  704.6573
 186  707.4523
 187  714.3895
 188  788.2502
 189  812.6144
 190  716.8312
 191  802.5504
 192  652.0088
 193  620.3616
 194  687.5167
 195  659.0471
 196  592.9216
 197  684.2457
 198  752.5242
 199  594.1895
 200  593.8491
 201  642.7303
 202  630.2448
 203  669.5126
 204  652.6956
 205  630.6743
 206  613.1725
 207  567.8016
 208  497.2194
 209  518.9182
 210  564.7554
 211  489.0266
 212  480.0179
 213  534.1328
 214  529.2316
 215  491.3832
 216  484.5443
 217  500.9678
 218  541.8419
 219  481.0156
 220  482.1891
 221  556.0871
 222  549.2732
 223  553.9894
 224  558.1207
 225  472.776
 226  472.8699
 227  539.8832
 228  568.4376
 229  409.9129
 230  456.9219
 231  410.6789
 232  361.5456
 233  377.3449
 234  391.8625
 235  447.8622
 236  514.7027
 237  560.0129
 238  570.6431
 239  583.4573
 240  520.6368
 241  562.8009
 242  517.2016
 243  541.775
 244  524.5057
 245  501.3003
 246  499.2656
 247  484.9211
 248  500.7541
 249  501.6528
 250  599.5703
 251  574.4631
 252  591.108
 253  594.4191
 254  584.5521
 255  566.2763
 256  515.8926
 257  585.4554
 258  607.1086
 259  576.0435
 260  641.1242
 261  620.5253
 262  627.0875
 263  581.8454
 264  598.1735
 265  633.8824
 266  632.4745
 267  688.6694
 268  709.5021
 269  689.5629
 270  690.1426
 271  726.5278
 272  665.2787
 273  703.5578
 274  743.7039
 275  718.4717
 276  609.9472
 277  638.7052
 278  729.0532
 279  746.0416
 280  795.0777
 281  792.7181
 282  683.9313
 283  682.6046
 284  711.1929
 285  632.9095
 286  612.8358
 287  620.3487
 288  537.3846
 289  680.508
 290  619.8508
 291  533.7864
 292  478.2943
 293  554.5554
 294  606.6836
 295  577.3212
 296  635.7214
 297  646.347
 298  546.2292
 299  555.183
 300  647.7983
 301  599.5475
 302  627.4493
 303  643.8682
 304  681.6984
 305  652.025
 306  662.8407
 307  652.6554
 308  585.025
 309  622.0278
 310  507.8199
 311  560.852
 312  615.895
 313  585.4179
 314  467.3138
 315  541.2847
 316  649.9724
 317  635.5375
 318  615.3401
 319  584.6564
 320  562.7019
 321  586.7432
 322  599.2919
 323  578.403
 324  649.3932
 325  591.6225
 326  621.3894
 327  653.7527
 328  693.4943
 329  593.9702
 330  614.1624
 331  628.7679
 332  698.3456
 333  629.9119
 334  594.2445
 335  614.4435
 336  552.0621
 337  661.0916
 338  731.9868
 339  602.3502
 340  485.0838
 341  525.7668
 342  562.932
 343  526.2245
 344  535.0134
 345  575.929
 346  543.5541
 347  498.7921
 348  573.2796
 349  564.0106
 350  542.3951
 351  547.7106
 352  603.0199
 353  622.8586
 354  608.6381
 355  569.1932
 356  573.3641
 357  610.3964
 358  664.9296
 359  599.0819
 360  595.6647
 361  577.6157
 362  557.0201
 363  583.16
 364  506.3274
 365  512.1052
 366  633.0635
 367  607.1722
 368  537.8079
 369  581.6672
 370  650.6396
 371  609.3497
 372  426.9196
 373  491.9722
 374  506.8388
 375  541.635
 376  667.2113
 377  613.126
 378  655.4712
 379  650.9155
 380  608.2113
 381  638.6012
 382  564.3212
 383  677.7693
 384  665.6326
 385  642.9397
 386  631.6454
 387  584.7123
 388  660.9854
 389  692.433
 390  670.7985
 391  697.5558
 392  642.4658
 393  636.6814
 394  650.4675
 395  645.7346
 396  681.03
 397  654.4706
 398  682.4564
 399  671.1788
 400  656.013
 401  706.7653
 402  637.3958
 403  702.6102
 404  793.491
 405  759.1859
 406  676.3467
 407  636.4676
 408  665.8305
 409  742.8661
 410  678.3108
 411  679.6034
 412  665.5685
 413  664.935
 414  658.0055
 415  603.6918
 416  746.962
 417  695.6443
 418  665.1291
 419  688.2437
 420  687.8841
 421  756.4753
 422  747.2596
 423  689.8434
 424  714.6768
 425  772.072
 426  692.4785
 427  674.0189
 428  618.867
 429  548.8008
 430  530.5487
 431  561.0651
 432  637.356
 433  654.4162
 434  676.5063
 435  598.6779
 436  603.2215
 437  690.0049
 438  723.6611
 439  698.9106
 440  764.8692
 441  743.7486
 442  716.0365
 443  756.3528
 444  677.6586
 445  616.5149
 446  684.5034
 447  699.8171
 448  657.7279
 449  685.8115
 450  659.8683
 451  612.9677
 452  657.7924
 453  683.2261
 454  589.7808
 455  689.2693
 456  743.3651
 457  813.3756
 458  734.4313
 459  705.9315
 460  749.731
 461  687.5182
 462  719.3132
 463  725.0838
 464  695.6349
 465  719.0513
 466  721.1567
 467  748.6385
 468  750.0428
 469  748.2768
 470  648.7804
 471  637.5218
 472  632.2468
 473  729.7814
 474  651.8276
 475  654.8897
 476  655.9104
 477  605.0093
 478  572.9454
 479  592.1032
 480  679.6605
 481  732.3293
 482  742.019
 483  677.7213
 484  749.7063
 485  722.7673
 486  728.0219
 487  787.7665
 488  687.919
 489  547.1265
 490  565.9832
 491  656.4257
 492  678.1129
 493  631.9943
 494  688.0314
 495  577.8423
 496  528.8334
 497  583.6178
 498  536.4322
 499  509.3154
 500  548.0716
 501  636.0414
 502  601.2664
 503  545.6582
 504  547.9175
 505  556.9119
 506  561.3317
 507  513.4631
 508  512.8281
 509  524.5874
 510  547.3132
 511  558.7411
