# Input file       =  1208685322.118577_cleaned.dat
# Candidate        =  PSR_0332+5434
# Telescope        =  AR
# Epoch_topo       =  58233.413670353897
# Epoch_bary       =  N/A
# T_sample         =  0.002
# Data Folded      =  7340032
# Data Avg         =  0.0526798389973209
# Data StdDev      =  1.00022203310365 
# Profile Bins     =  512
# Profile Avg      =  755.253992755088 
# Profile StdDev   =  119.759621074442 
# Reduced chi-sqr  =  1.375
# Prob(Noise)      <  3.47e-08   (~5.4 sigma)
# P_topo (ms)      =  714.55165153987   +/- 0.000581
# P'_topo (s/s)    =  -0                +/- 3.07e-10
# P''_topo (s/s^2) =  0                 +/- 1.35e-13
# P_bary (ms)      =  N/A
# P'_bary (s/s)    =  N/A
# P''_bary (s/s^2) =  N/A
# P_orb (s)        =  N/A
# asin(i)/c (s)    =  N/A
# eccentricity     =  N/A
# w (rad)          =  N/A
# T_peri           =  N/A
######################################################
   0  862.6334
   1  799.0366
   2  782.9879
   3  791.3268
   4  712.6306
   5  582.1937
   6  671.4038
   7  728.1071
   8  614.614
   9  638.5138
  10  628.2056
  11  621.8469
  12  592.1354
  13  651.7635
  14  654.4291
  15  685.1805
  16  614.8779
  17  640.9811
  18  618.4415
  19  621.3717
  20  697.5292
  21  702.7762
  22  678.3113
  23  664.3306
  24  702.907
  25  632.5221
  26  688.8073
  27  734.2024
  28  696.4739
  29  702.0359
  30  686.2034
  31  681.7439
  32  688.0125
  33  726.0301
  34  752.054
  35  844.4468
  36  793.6973
  37  703.0235
  38  705.4906
  39  697.9731
  40  736.1237
  41  744.8272
  42  707.3939
  43  682.8245
  44  678.4092
  45  747.7756
  46  644.3943
  47  640.3582
  48  721.3055
  49  740.2442
  50  740.0504
  51  742.2169
  52  756.4907
  53  782.1561
  54  733.1651
  55  668.9796
  56  666.9545
  57  723.8986
  58  804.0698
  59  769.8913
  60  838.2213
  61  904.4135
  62  814.9524
  63  884.3761
  64  900.6653
  65  802.3099
  66  795.2961
  67  875.0447
  68  871.8307
  69  835.7648
  70  786.1339
  71  799.0802
  72  804.9352
  73  756.0225
  74  747.4246
  75  713.4394
  76  744.189
  77  699.9737
  78  818.2643
  79  876.4879
  80  835.6553
  81  776.9843
  82  722.6727
  83  742.3945
  84  800.8873
  85  792.4387
  86  775.7808
  87  762.4929
  88  746.4969
  89  755.1987
  90  782.7073
  91  903.2201
  92  902.7734
  93  875.199
  94  862.9563
  95  875.2747
  96  793.6288
  97  840.4017
  98  772.7986
  99  766.9449
 100  809.4968
 101  787.3515
 102  742.6586
 103  799.8112
 104  848.0826
 105  856.3765
 106  832.0877
 107  859.1113
 108  895.6942
 109  879.7958
 110  798.8746
 111  778.3564
 112  802.1045
 113  747.9634
 114  713.709
 115  689.1672
 116  709.5005
 117  701.6174
 118  794.8527
 119  799.4503
 120  762.5609
 121  728.1617
 122  759.8442
 123  742.6158
 124  739.6324
 125  775.3578
 126  767.6696
 127  771.7096
 128  686.7558
 129  671.1182
 130  764.1505
 131  717.1491
 132  809.0635
 133  803.5637
 134  740.0882
 135  804.9801
 136  827.2164
 137  840.6158
 138  893.8953
 139  806.8563
 140  775.0255
 141  686.5631
 142  726.1992
 143  796.3965
 144  758.3769
 145  742.9325
 146  805.209
 147  769.7703
 148  827.3605
 149  766.0578
 150  721.5675
 151  626.303
 152  664.442
 153  679.175
 154  704.7651
 155  767.897
 156  694.5452
 157  727.134
 158  664.0006
 159  649.2333
 160  617.2731
 161  657.4324
 162  638.0712
 163  648.7387
 164  712.8406
 165  671.4439
 166  660.39
 167  623.7682
 168  709.8672
 169  660.5823
 170  752.3992
 171  804.235
 172  705.4964
 173  739.5267
 174  738.1694
 175  830.2333
 176  902.9351
 177  743.1563
 178  746.8467
 179  795.0011
 180  793.8062
 181  755.9223
 182  783.4459
 183  795.9208
 184  831.8204
 185  773.973
 186  764.7046
 187  743.7988
 188  654.9968
 189  707.6771
 190  725.1902
 191  598.2687
 192  637.2503
 193  724.4426
 194  683.3226
 195  644.435
 196  702.826
 197  792.0452
 198  752.1077
 199  657.1673
 200  738.4897
 201  791.3875
 202  754.2933
 203  752.8981
 204  799.7847
 205  777.7372
 206  804.4178
 207  831.224
 208  795.3102
 209  762.5972
 210  760.5549
 211  772.6592
 212  741.7886
 213  793.8838
 214  870.7831
 215  852.2731
 216  726.5419
 217  701.777
 218  735.6334
 219  695.2415
 220  639.813
 221  627.8439
 222  750.3773
 223  769.4867
 224  744.9054
 225  756.7173
 226  698.6898
 227  742.5931
 228  713.3992
 229  674.6569
 230  666.386
 231  662.5084
 232  659.3171
 233  707.6181
 234  701.244
 235  602.9496
 236  625.1356
 237  659.2814
 238  672.231
 239  748.1722
 240  742.3544
 241  750.488
 242  756.7943
 243  759.0835
 244  842.0756
 245  885.9003
 246  846.5286
 247  797.124
 248  736.7824
 249  774.5581
 250  755.1357
 251  670.0334
 252  755.0228
 253  749.3863
 254  749.2499
 255  798.8523
 256  837.5067
 257  794.6841
 258  796.5536
 259  776.7462
 260  892.9531
 261  889.119
 262  890.3414
 263  951.7788
 264  935.5269
 265  937.3781
 266  894.5291
 267  889.146
 268  875.3881
 269  910.528
 270  927.8981
 271  900.2859
 272  929.8309
 273  888.9044
 274  857.96
 275  847.138
 276  880.5234
 277  820.9235
 278  869.1207
 279  906.5398
 280  933.0093
 281  867.5217
 282  820.8631
 283  837.4506
 284  771.5844
 285  887.8959
 286  830.1791
 287  798.8599
 288  851.5939
 289  859.7692
 290  761.8202
 291  813.7158
 292  766.9844
 293  715.0067
 294  725.2145
 295  786.2291
 296  787.9079
 297  676.586
 298  749.758
 299  780.1171
 300  792.8427
 301  779.7986
 302  822.1651
 303  713.5917
 304  677.9305
 305  677.1232
 306  789.9668
 307  840.1688
 308  781.0691
 309  721.3207
 310  773.7138
 311  777.9335
 312  777.2043
 313  773.1785
 314  800.2596
 315  730.113
 316  748.9268
 317  746.787
 318  714.7322
 319  706.9343
 320  742.6766
 321  737.2857
 322  731.7136
 323  757.8369
 324  671.0534
 325  710.7491
 326  807.5533
 327  782.2672
 328  840.2551
 329  839.4936
 330  815.4334
 331  840.8107
 332  790.8261
 333  814.4753
 334  793.9927
 335  857.842
 336  816.491
 337  793.9348
 338  734.8488
 339  831.2419
 340  797.5214
 341  785.829
 342  779.9464
 343  732.4217
 344  780.1597
 345  843.1165
 346  778.7748
 347  794.5143
 348  778.0683
 349  826.8948
 350  782.0936
 351  772.8922
 352  814.1564
 353  819.6316
 354  841.3664
 355  786.0526
 356  753.6309
 357  816.4856
 358  800.3298
 359  788.5669
 360  778.8482
 361  802.3291
 362  832.6193
 363  815.6163
 364  799.6755
 365  818.5154
 366  845.0955
 367  875.0114
 368  836.6818
 369  701.946
 370  649.9765
 371  751.8335
 372  768.0753
 373  738.5688
 374  672.5579
 375  713.9429
 376  733.9785
 377  695.4611
 378  638.6663
 379  710.0134
 380  695.9789
 381  698.1753
 382  726.5656
 383  778.0637
 384  658.6755
 385  624.6923
 386  588.6241
 387  679.5354
 388  667.3338
 389  704.2146
 390  668.627
 391  642.0447
 392  649.9963
 393  622.8771
 394  655.7029
 395  682.6154
 396  660.88
 397  645.4
 398  664.9225
 399  626.1472
 400  652.0369
 401  690.1627
 402  595.5385
 403  590.2396
 404  610.7336
 405  615.8499
 406  610.9911
 407  636.6136
 408  642.4359
 409  610.3035
 410  659.7958
 411  602.3463
 412  569.5725
 413  643.1995
 414  690.8871
 415  672.2633
 416  679.5554
 417  691.2755
 418  641.8211
 419  645.3882
 420  579.3328
 421  713.2049
 422  613.8226
 423  624.8889
 424  635.8702
 425  605.7823
 426  602.7294
 427  530.5164
 428  617.3217
 429  643.676
 430  588.1974
 431  585.5065
 432  655.1527
 433  620.0912
 434  572.7623
 435  528.8196
 436  560.7159
 437  564.537
 438  684.5032
 439  664.5614
 440  679.5116
 441  659.1225
 442  658.0979
 443  705.0532
 444  632.6312
 445  585.663
 446  597.9902
 447  650.3456
 448  717.4758
 449  600.5068
 450  600.7222
 451  693.9777
 452  587.2739
 453  612.2734
 454  656.2358
 455  748.8214
 456  734.5361
 457  652.4628
 458  655.0986
 459  660.8018
 460  705.7229
 461  741.5068
 462  715.4299
 463  731.3509
 464  676.8347
 465  762.1163
 466  829.6771
 467  761.908
 468  790.9078
 469  810.0187
 470  756.2028
 471  799.9162
 472  805.0764
 473  807.7183
 474  742.9495
 475  906.6699
 476  921.0305
 477  1025.177
 478  1098.142
 479  1003.953
 480  893.8455
 481  823.8458
 482  894.2369
 483  933.4485
 484  845.1417
 485  904.7853
 486  888.0328
 487  874.7097
 488  780.5662
 489  793.3186
 490  830.9682
 491  891.7343
 492  918.675
 493  980.8196
 494  1097.324
 495  1198.149
 496  1383.01
 497  1349.212
 498  1276.173
 499  1061.425
 500  870.0221
 501  775.1671
 502  718.5489
 503  680.4418
 504  726.1817
 505  749.8891
 506  831.5845
 507  830.7834
 508  796.5483
 509  769.2526
 510  790.4871
 511  910.9183
