# Input file       =  1208527894.109575_cleaned.dat
# Candidate        =  PSR_0332+5434
# Telescope        =  AR
# Epoch_topo       =  58231.591586916380
# Epoch_bary       =  N/A
# T_sample         =  0.002
# Data Folded      =  7340032
# Data Avg         =  0.43515243389577 
# Data StdDev      =  6.98746692167443 
# Profile Bins     =  512
# Profile Avg      =  6238.41058089902 
# Profile StdDev   =  836.630631114294 
# Reduced chi-sqr  =  1.312
# Prob(Noise)      <  2.45e-06   (~4.6 sigma)
# P_topo (ms)      =  714.553547809317  +/- 0.000474
# P'_topo (s/s)    =  -0                +/- 2.5e-10
# P''_topo (s/s^2) =  0                 +/- 1.1e-13
# P_bary (ms)      =  N/A
# P'_bary (s/s)    =  N/A
# P''_bary (s/s^2) =  N/A
# P_orb (s)        =  N/A
# asin(i)/c (s)    =  N/A
# eccentricity     =  N/A
# w (rad)          =  N/A
# T_peri           =  N/A
######################################################
   0  5698.82
   1  5578.48
   2  5566.631
   3  6042.652
   4  5811.972
   5  5644.099
   6  5826.863
   7  5478.081
   8  5644.641
   9  5635.212
  10  5564.408
  11  5674.646
  12  5863.604
  13  5796.109
  14  5489.261
  15  5371.975
  16  5539.734
  17  6014.02
  18  6274.125
  19  6447.198
  20  6314.472
  21  6244.393
  22  6414.398
  23  6605.249
  24  6940.27
  25  6589.396
  26  6475.291
  27  6437.051
  28  6617.084
  29  6807.501
  30  6580.926
  31  6158.225
  32  6140.215
  33  6531.434
  34  6547.532
  35  6462.062
  36  6377.096
  37  6425.718
  38  6271.199
  39  6031.454
  40  5909.069
  41  5950.138
  42  5779.733
  43  5656.754
  44  5842.914
  45  6152.469
  46  5719.812
  47  5407.758
  48  5357.582
  49  5771.603
  50  5660.316
  51  5952.328
  52  5686.855
  53  5683.997
  54  5776.056
  55  5942.473
  56  5569.569
  57  5861.679
  58  5976.302
  59  5890.523
  60  6015.193
  61  6016.734
  62  6070.81
  63  6289.453
  64  6190.118
  65  6195.97
  66  6014.519
  67  5924.379
  68  6282.221
  69  6121.917
  70  6236.652
  71  6214.832
  72  6467.232
  73  5825.099
  74  5873.409
  75  6399.403
  76  6101.448
  77  6099.88
  78  5922.459
  79  5803.077
  80  5436.812
  81  5379.592
  82  5611.442
  83  6258.726
  84  6500.659
  85  6164.973
  86  6159.837
  87  6339.145
  88  6390.671
  89  6576.419
  90  6789.484
  91  6587.923
  92  6618.437
  93  6828.832
  94  6753.038
  95  6780.219
  96  6724.581
  97  6499.117
  98  6520.57
  99  6765.814
 100  6566.393
 101  6819.021
 102  7192.189
 103  6958.066
 104  7021.513
 105  6975.338
 106  6794.848
 107  6756.342
 108  6982.452
 109  6792.821
 110  6886.754
 111  6652.476
 112  6298.648
 113  6388.095
 114  6166.781
 115  6585.057
 116  6589.358
 117  6528.77
 118  6427.42
 119  6276.211
 120  6320.257
 121  6523.427
 122  6091.004
 123  6156.327
 124  6226.649
 125  6243.584
 126  6369.072
 127  6064.538
 128  6355.807
 129  6577.365
 130  6364.811
 131  5983.16
 132  5719.399
 133  5825.587
 134  6160.892
 135  5723.65
 136  5896.934
 137  5991.427
 138  5705.182
 139  5896.295
 140  5853.464
 141  5768.521
 142  5948.168
 143  6180.498
 144  5741.999
 145  6217.914
 146  6398.057
 147  6060.756
 148  6458.865
 149  6572.543
 150  6715.615
 151  6721.551
 152  6925.543
 153  7131.285
 154  6861.98
 155  6727.211
 156  6775.779
 157  6597.199
 158  6593.393
 159  6314.817
 160  6220.983
 161  6087.815
 162  6189.336
 163  6257.938
 164  6253.246
 165  6124.457
 166  6269.019
 167  6151.019
 168  6466.473
 169  6089.674
 170  6059.806
 171  6413.036
 172  6633.956
 173  6612.356
 174  6286.125
 175  6344.041
 176  6572.544
 177  6969.131
 178  6924.708
 179  6483.728
 180  6629.576
 181  6536.677
 182  6838.361
 183  6646.974
 184  6706.485
 185  6022.587
 186  5997.354
 187  6291.594
 188  6133.076
 189  6271.246
 190  6188.299
 191  6078.877
 192  5960.73
 193  6209.439
 194  6366.431
 195  6103.647
 196  5755.859
 197  5800.257
 198  6026.335
 199  5894.032
 200  5870.738
 201  6165.346
 202  5939.878
 203  5738.498
 204  5343.808
 205  5773.617
 206  5765.87
 207  5725.145
 208  5987.398
 209  5761.387
 210  5717.101
 211  6035.453
 212  5769.76
 213  5307.901
 214  5287.413
 215  5824.527
 216  5655.574
 217  5494.206
 218  5774.919
 219  5607.033
 220  5406.099
 221  5246.196
 222  5156.234
 223  5349.298
 224  5607.697
 225  5569.308
 226  5609.025
 227  5390.111
 228  5606.544
 229  5697.991
 230  5674.71
 231  5689.964
 232  5872.52
 233  6067.141
 234  6027.353
 235  6066.225
 236  6330.485
 237  6447.876
 238  6686.837
 239  7387.572
 240  7082.447
 241  7335.129
 242  7459.164
 243  7574.29
 244  7772.642
 245  7765.744
 246  7547.172
 247  7144.201
 248  7033.425
 249  7323.102
 250  6964.07
 251  7178.653
 252  7265.016
 253  6852.263
 254  6680.405
 255  6440.788
 256  6710.696
 257  6943.823
 258  6938.072
 259  6804.04
 260  6850.794
 261  6915.281
 262  6587.816
 263  6437.046
 264  6636.563
 265  6446.623
 266  6733.446
 267  6836.995
 268  7035.389
 269  6857.368
 270  6448.883
 271  6702.001
 272  6516.325
 273  6540.679
 274  6524.927
 275  6418.355
 276  6270.878
 277  6825.486
 278  6867.889
 279  6626.751
 280  6467.548
 281  6411.117
 282  6974.232
 283  7110.601
 284  7290.259
 285  6917.767
 286  6405.238
 287  6130.324
 288  6824.4
 289  6771.496
 290  6328.421
 291  6578.018
 292  6196.486
 293  6541.645
 294  6373.43
 295  6320.797
 296  6467.008
 297  6656.037
 298  6779.845
 299  7532.426
 300  8478.8
 301  8915.271
 302  9056.485
 303  8005.626
 304  6821.676
 305  6335.488
 306  6294.794
 307  6328.396
 308  6164.271
 309  6135.941
 310  5831.638
 311  6057.418
 312  5957.326
 313  6039.159
 314  6195.547
 315  6123.03
 316  6335.409
 317  6243.538
 318  6204.461
 319  6310.991
 320  6216.656
 321  6343.796
 322  6429.604
 323  6572.229
 324  6826.555
 325  6887.299
 326  6642.41
 327  6478.841
 328  6447.497
 329  6403.884
 330  6107.054
 331  5683.85
 332  6070.048
 333  6258.833
 334  6228.518
 335  6447.954
 336  6189.896
 337  6149.264
 338  5977.632
 339  6008.25
 340  5905.744
 341  5822.647
 342  5620.099
 343  5488.871
 344  5600.444
 345  5412.25
 346  5554.681
 347  5689.415
 348  5670.547
 349  5529.13
 350  6049.304
 351  6024.12
 352  5530.943
 353  5549.679
 354  5508.838
 355  5250.179
 356  5038.612
 357  5298.857
 358  5401.843
 359  5331.111
 360  5134.432
 361  4969.875
 362  5241.965
 363  5223.953
 364  5149.4
 365  5300.478
 366  5467.515
 367  5309.36
 368  4998.012
 369  5279.902
 370  5199.822
 371  5177.09
 372  5629.243
 373  5698.55
 374  5471.075
 375  4961.958
 376  4820.511
 377  5105.472
 378  5150.154
 379  5694.56
 380  5940.557
 381  5734.715
 382  5150.41
 383  5135.848
 384  5259.931
 385  5680.017
 386  5265.42
 387  5534.029
 388  5532.238
 389  5127.118
 390  5042.35
 391  5181.148
 392  5233.463
 393  5032.921
 394  5301.336
 395  5898.769
 396  6100.62
 397  5774.26
 398  5962.025
 399  6312.285
 400  6212.048
 401  6564.634
 402  6688.005
 403  6694.229
 404  6462.838
 405  6684.697
 406  6451.434
 407  6316.604
 408  6143.431
 409  6028.928
 410  6219.585
 411  6074.894
 412  5621.791
 413  5447.625
 414  5380.561
 415  5745.609
 416  5330.93
 417  5601.853
 418  5786.635
 419  5511.496
 420  5283.079
 421  5373.118
 422  5362.626
 423  5198.344
 424  5351.565
 425  5609.875
 426  5750.315
 427  5359.121
 428  5373.947
 429  5648.208
 430  5565.351
 431  5260.925
 432  5105.42
 433  5392.957
 434  5536.739
 435  5444.042
 436  5363.234
 437  5461.756
 438  5223.738
 439  4979.413
 440  5302.435
 441  5392.045
 442  5809.139
 443  5845.456
 444  6019.508
 445  5958.935
 446  5623.292
 447  5398.185
 448  5632.724
 449  5841.098
 450  6236.547
 451  6238.598
 452  6103.274
 453  5933.125
 454  6211.514
 455  6353.12
 456  6094.874
 457  6633.842
 458  7286.755
 459  7196.88
 460  6638.204
 461  6364.263
 462  7154.669
 463  7179.37
 464  7058.84
 465  7222.131
 466  7666.552
 467  7145.167
 468  7466.508
 469  7985.981
 470  8072.815
 471  7963.427
 472  7971.674
 473  7520.157
 474  7682.943
 475  8029.718
 476  8259.31
 477  8694.74
 478  8551.504
 479  8175.749
 480  8150.168
 481  7891.438
 482  8137.812
 483  8401.117
 484  7814.291
 485  7771.331
 486  7762.377
 487  7642.892
 488  7188.28
 489  6731.558
 490  6903.69
 491  7009.624
 492  7026.783
 493  6794.101
 494  6754.928
 495  6781.793
 496  6821.491
 497  6682.775
 498  6740.178
 499  6590.499
 500  6213.123
 501  6210.587
 502  5975.145
 503  6087.147
 504  6329.253
 505  6056.511
 506  5998.666
 507  6173.573
 508  6754.325
 509  6239.69
 510  5483.325
 511  5830.337
