# Input file       =  1208254407.118015_cleaned.dat
# Candidate        =  PSR_0332+5434
# Telescope        =  AR
# Epoch_topo       =  58228.426228217766
# Epoch_bary       =  N/A
# T_sample         =  0.002
# Data Folded      =  7340032
# Data Avg         =  0.292874024222589
# Data StdDev      =  6.23985733833636 
# Profile Bins     =  1024
# Profile Avg      =  2099.35559196106 
# Profile StdDev   =  528.291543480302 
# Reduced chi-sqr  =  1.052
# Prob(Noise)      <  0.119   (~1.2 sigma)
# P_topo (ms)      =  714.55585339966   +/- 0.000398
# P'_topo (s/s)    =  -0                +/- 2.1e-10
# P''_topo (s/s^2) =  0                 +/- 9.28e-14
# P_bary (ms)      =  N/A
# P'_bary (s/s)    =  N/A
# P''_bary (s/s^2) =  N/A
# P_orb (s)        =  N/A
# asin(i)/c (s)    =  N/A
# eccentricity     =  N/A
# w (rad)          =  N/A
# T_peri           =  N/A
######################################################
   0  2301.896
   1  2222.901
   2  2139.615
   3  2204.29
   4  2397.356
   5  2490.663
   6  2585.324
   7  2542.344
   8  2528.897
   9  2479.687
  10  2485.107
  11  2460.646
  12  2415.223
  13  2558.692
  14  2579.979
  15  2581.549
  16  2449.13
  17  2416.637
  18  2388.792
  19  2306.622
  20  2196.674
  21  2175.651
  22  2277.435
  23  2278.987
  24  2224.936
  25  2326.292
  26  2265.13
  27  2253.594
  28  2152.403
  29  2049.16
  30  2062.446
  31  2204.522
  32  2327.675
  33  2188.21
  34  2117.121
  35  2162.565
  36  2193.366
  37  2192.518
  38  2178.112
  39  2165.824
  40  2142.506
  41  2144.23
  42  2222.96
  43  2192.214
  44  2267.781
  45  2302.829
  46  2367.978
  47  2391.965
  48  2392.107
  49  2251.453
  50  2128.763
  51  2189.987
  52  2271.679
  53  2277.744
  54  2188.09
  55  2163.155
  56  2089.051
  57  2093.01
  58  2185.443
  59  2228.397
  60  2218.668
  61  2277.462
  62  2347.302
  63  2262.458
  64  2041.7
  65  2018.277
  66  2098.051
  67  2286.281
  68  2193.947
  69  2086.233
  70  2013.2
  71  1958.096
  72  2085.845
  73  2034.577
  74  2062.955
  75  1985.623
  76  2005.983
  77  1863.975
  78  1843.549
  79  1907.425
  80  2003.022
  81  2115.905
  82  2133.754
  83  2070.883
  84  2140.707
  85  2275.97
  86  2257.258
  87  2126.532
  88  2066.108
  89  2029.142
  90  1857.785
  91  1719.719
  92  1800.853
  93  1881.424
  94  1970.291
  95  1914.751
  96  1997.943
  97  1934.376
  98  1877.197
  99  1957.385
 100  2045.694
 101  2102.368
 102  2052.06
 103  1969.605
 104  1899.506
 105  1823.89
 106  1781.31
 107  1866.417
 108  1920.835
 109  2075.662
 110  2150.285
 111  2160.516
 112  2086.351
 113  2025.835
 114  1910.758
 115  2006.282
 116  2086.859
 117  2104.591
 118  2087.033
 119  1969.052
 120  1971.556
 121  2027.401
 122  2049.792
 123  2082.638
 124  2040.862
 125  2118.566
 126  2179.134
 127  2275.993
 128  2406.469
 129  2483.703
 130  2503.02
 131  2550.79
 132  2541.753
 133  2543.495
 134  2247.697
 135  2157.936
 136  2028.789
 137  2115.651
 138  2266.835
 139  2420.023
 140  2457.614
 141  2350.145
 142  2384.848
 143  2422.52
 144  2454.565
 145  2477.958
 146  2500.182
 147  2473.601
 148  2306.732
 149  2348.68
 150  2380.167
 151  2501.893
 152  2470.895
 153  2536.22
 154  2537.55
 155  2506.658
 156  2421.262
 157  2316.517
 158  2171.068
 159  2093.917
 160  2217.028
 161  2345.941
 162  2410.931
 163  2472.398
 164  2612.657
 165  2652.366
 166  2431.203
 167  2306.777
 168  2278.891
 169  2326.454
 170  2152.381
 171  2116.302
 172  2182.137
 173  2317.104
 174  2377.07
 175  2616.522
 176  2597.617
 177  2495.612
 178  2453.154
 179  2538.485
 180  2513.941
 181  2407.802
 182  2390.265
 183  2367.166
 184  2263.698
 185  2207.749
 186  2179.116
 187  2212.547
 188  2235.469
 189  2246.958
 190  2340.054
 191  2433.086
 192  2424.484
 193  2245.92
 194  2161.716
 195  2203.802
 196  2307.95
 197  2174.691
 198  2158.036
 199  2114.878
 200  2234.787
 201  2149.443
 202  2111.258
 203  2031.001
 204  2092.194
 205  2153.941
 206  2102.06
 207  2030.059
 208  1969.241
 209  2039.8
 210  2019.11
 211  1933.872
 212  1975.52
 213  1987.127
 214  2004.333
 215  2016.219
 216  2186.303
 217  2229.095
 218  2208.924
 219  2072.55
 220  2146.569
 221  2106.005
 222  2131.248
 223  1987.276
 224  2000.207
 225  1791.751
 226  1632.28
 227  1577.622
 228  1668.354
 229  1716.346
 230  1623.212
 231  1714.875
 232  1673.842
 233  1709.487
 234  1725.441
 235  1786.775
 236  1851.608
 237  1865.429
 238  1894.428
 239  1832.192
 240  1857.638
 241  1807.863
 242  1668.417
 243  1454.598
 244  1470.836
 245  1558.265
 246  1668.876
 247  1712.559
 248  1768.37
 249  1802.103
 250  1698.321
 251  1707.446
 252  1606.77
 253  1603.617
 254  1549.419
 255  1567.679
 256  1684.85
 257  1585.824
 258  1553.185
 259  1611.988
 260  1848.119
 261  1858.458
 262  1780.317
 263  1714.421
 264  1821.689
 265  1757.532
 266  1720.029
 267  1752.59
 268  1698.195
 269  1654.483
 270  1739.781
 271  1726.768
 272  1858.571
 273  1811.145
 274  1885.925
 275  1937.029
 276  1933.656
 277  2042.333
 278  1968.876
 279  1905.99
 280  1781.636
 281  1802.036
 282  1746.701
 283  1777.914
 284  1869.379
 285  2038.303
 286  2131.057
 287  1991.366
 288  1957.38
 289  1856.44
 290  2067.845
 291  2008.787
 292  2068.412
 293  1930.572
 294  2045.633
 295  1965.164
 296  1916.118
 297  1847.729
 298  1824.246
 299  1976.343
 300  2046.382
 301  1976.732
 302  1862.223
 303  1831.499
 304  1943.472
 305  1887.459
 306  1818.47
 307  1719.604
 308  1764.75
 309  1901.749
 310  1926.218
 311  1884.165
 312  1719.675
 313  1713.584
 314  1660.777
 315  1638.336
 316  1615.763
 317  1823.44
 318  1833.973
 319  1874.837
 320  1744.736
 321  1765.468
 322  1682.91
 323  1728.773
 324  1737.585
 325  1765.741
 326  1715.85
 327  1700.661
 328  1703.518
 329  1698.237
 330  1758.145
 331  1803.288
 332  1893.392
 333  1845.497
 334  1636.897
 335  1455.612
 336  1253.111
 337  1258.409
 338  1301.003
 339  1319.364
 340  1378.653
 341  1386.703
 342  1507.736
 343  1471.062
 344  1392.856
 345  1413.576
 346  1436.487
 347  1389.566
 348  1359.755
 349  1342.683
 350  1342.297
 351  1297.478
 352  1325.203
 353  1372.901
 354  1437.699
 355  1487.598
 356  1669.874
 357  1758.075
 358  1733.633
 359  1644.873
 360  1550.716
 361  1422.057
 362  1440.444
 363  1536.732
 364  1644.106
 365  1701.788
 366  1760.758
 367  1924.837
 368  1955.004
 369  1917.354
 370  1796.554
 371  1764.037
 372  1760.185
 373  1840.301
 374  1860.413
 375  1702.905
 376  1624.453
 377  1635.488
 378  1614.519
 379  1510.959
 380  1578.964
 381  1596.196
 382  1646.845
 383  1654.993
 384  1842.688
 385  1750.098
 386  1519.36
 387  1339.222
 388  1301.051
 389  1461.217
 390  1502.989
 391  1620.375
 392  1611.327
 393  1589.75
 394  1645.448
 395  1554.709
 396  1487.043
 397  1449.513
 398  1561.943
 399  1739.991
 400  1698.487
 401  1808.281
 402  1880.058
 403  1875.199
 404  1735.805
 405  1763.861
 406  1870.538
 407  1867.97
 408  1828.64
 409  1866.391
 410  2021.443
 411  2034.409
 412  2004.422
 413  2103.173
 414  2143.224
 415  2129.117
 416  2110.506
 417  2198.321
 418  2175.657
 419  2188.943
 420  2055.103
 421  2160.722
 422  2190.31
 423  2237.175
 424  2156.909
 425  2114.287
 426  2084.959
 427  2238.718
 428  2323.89
 429  2295.037
 430  2234.375
 431  2170.616
 432  2172.105
 433  2247.508
 434  2257.557
 435  2396.643
 436  2382.128
 437  2433.979
 438  2464.783
 439  2429.99
 440  2498.261
 441  2447.705
 442  2556.18
 443  2567.307
 444  2571.536
 445  2553.271
 446  2508.025
 447  2328.749
 448  2109.159
 449  2191.473
 450  2299.255
 451  2377.819
 452  2241.176
 453  2189.204
 454  2132.217
 455  2073.944
 456  2102.184
 457  2103.953
 458  2054.565
 459  2109.058
 460  2077.626
 461  2151.932
 462  1946.809
 463  2025.398
 464  2063.472
 465  2127.841
 466  2032.197
 467  2028.191
 468  1882.952
 469  1873.589
 470  1929.105
 471  2012.489
 472  1974.347
 473  1771.217
 474  1738.072
 475  1851.87
 476  1912.408
 477  1994.413
 478  1961.922
 479  1950.967
 480  1926.404
 481  1952.023
 482  1898.285
 483  1945.271
 484  2032.896
 485  2215.092
 486  2164.258
 487  2018.034
 488  1943.543
 489  2049.019
 490  2249.371
 491  2385.389
 492  2391.275
 493  2255.348
 494  2252.849
 495  2173.285
 496  2100.783
 497  1882.722
 498  1764.273
 499  1705.525
 500  1892.359
 501  2031.085
 502  2049.469
 503  1898.653
 504  1852.787
 505  1838.336
 506  1806.885
 507  1779
 508  1784.374
 509  1876.56
 510  1968.449
 511  1996.4
 512  1955
 513  1905.769
 514  1938.503
 515  1816.817
 516  1869.182
 517  1807.566
 518  1877.112
 519  1779.59
 520  1898.425
 521  2027.763
 522  2110.996
 523  1934.215
 524  1952.151
 525  2025.269
 526  2096.251
 527  1993.588
 528  2068.779
 529  2209.084
 530  2282.537
 531  2265.505
 532  2235.296
 533  2214.525
 534  2173.355
 535  2229.591
 536  2243.338
 537  2242.035
 538  2294.815
 539  2292.973
 540  2269.38
 541  2172.58
 542  2186.062
 543  2198.498
 544  2378.21
 545  2437.131
 546  2461.43
 547  2439.662
 548  2523.259
 549  2502.832
 550  2472.952
 551  2418.87
 552  2499.844
 553  2500.128
 554  2550.448
 555  2522.585
 556  2493.275
 557  2510.822
 558  2524.766
 559  2645.284
 560  2719.066
 561  2879.564
 562  2794.221
 563  2794.187
 564  2771.106
 565  2726.635
 566  2602.834
 567  2461.677
 568  2519.941
 569  2464.921
 570  2465.637
 571  2345.307
 572  2329.256
 573  2410.231
 574  2378.349
 575  2451.095
 576  2494.718
 577  2589.87
 578  2603.598
 579  2624.842
 580  2512.081
 581  2418.766
 582  2388.659
 583  2405.09
 584  2400.287
 585  2344.176
 586  2418.855
 587  2502.137
 588  2569.485
 589  2465.121
 590  2375.649
 591  2420.07
 592  2538.512
 593  2667.901
 594  2739.466
 595  2765.149
 596  2842.349
 597  2771.746
 598  2885.08
 599  2961.503
 600  3048.563
 601  3157.453
 602  3182.036
 603  3251.156
 604  3294.898
 605  3189.634
 606  3085.393
 607  2935.808
 608  2678.764
 609  2520.466
 610  2423.211
 611  2365.331
 612  2168.716
 613  2188.654
 614  2331.585
 615  2497.315
 616  2478.143
 617  2456.265
 618  2307.676
 619  2236.318
 620  2132.124
 621  2104.68
 622  1882.133
 623  1912.812
 624  1917.813
 625  2081.634
 626  2156.445
 627  2186.705
 628  2191.158
 629  2135.376
 630  2164.133
 631  2307.14
 632  2465.112
 633  2469.861
 634  2456.348
 635  2489.664
 636  2505.09
 637  2401.622
 638  2380.815
 639  2311.789
 640  2301.261
 641  2231.876
 642  2300.57
 643  2228.467
 644  2186.792
 645  2174.423
 646  2182.749
 647  2234.647
 648  2164.79
 649  2165.821
 650  2244.505
 651  2216.13
 652  2100.046
 653  2090.729
 654  2069.829
 655  2137.218
 656  2194.99
 657  2207.075
 658  2117.445
 659  2150.977
 660  2178.981
 661  2280.609
 662  2177.408
 663  2236.971
 664  2270.962
 665  2229.977
 666  2139.574
 667  1990.792
 668  1921.898
 669  1967.604
 670  1911.872
 671  1947.819
 672  1930.169
 673  1859.981
 674  1844.798
 675  1876.666
 676  1886.179
 677  1925.035
 678  1881.525
 679  1881.664
 680  1796.838
 681  1589.426
 682  1542.08
 683  1578.431
 684  1851.83
 685  1865.326
 686  1913.393
 687  1802.863
 688  1753.614
 689  1750.474
 690  1891.996
 691  1884.179
 692  1901.312
 693  1894.481
 694  1947.437
 695  1941.922
 696  1839.59
 697  1805.776
 698  1792.001
 699  1866.203
 700  1898.775
 701  1905.156
 702  1946.698
 703  2083.268
 704  2241.446
 705  2253.771
 706  2210.179
 707  2054.619
 708  2085.443
 709  2171.931
 710  2281.318
 711  2346.599
 712  2376.519
 713  2387.265
 714  2412.245
 715  2311.789
 716  2280.327
 717  2353.61
 718  2641.223
 719  2774.624
 720  2727.144
 721  2671.329
 722  2511.995
 723  2277.118
 724  2220.54
 725  2412.608
 726  2561.749
 727  2486.034
 728  2436.819
 729  2470.623
 730  2474.603
 731  2437.118
 732  2329.109
 733  2317.476
 734  2353.949
 735  2342.499
 736  2357.81
 737  2347.95
 738  2453.52
 739  2459.614
 740  2509.298
 741  2336.992
 742  2214.789
 743  2103.771
 744  2155.144
 745  2257.245
 746  2269.424
 747  2295.027
 748  2346.32
 749  2386.177
 750  2567.451
 751  2558.303
 752  2469.558
 753  2276.922
 754  2385.435
 755  2438.263
 756  2404.903
 757  2224.7
 758  2310.552
 759  2306.732
 760  2279.46
 761  2182.716
 762  2154.603
 763  2205.057
 764  2354.739
 765  2268.814
 766  2216.148
 767  2247.76
 768  2262.138
 769  2170.682
 770  2107.394
 771  2263.123
 772  2249.236
 773  2179.651
 774  2158.099
 775  2161.824
 776  2127.054
 777  2102.792
 778  2116.479
 779  2138.875
 780  2139.409
 781  2146.709
 782  2150.241
 783  2107.701
 784  2048.024
 785  2027.905
 786  2246.025
 787  2219.444
 788  2154.875
 789  2092.234
 790  2136.954
 791  2099.024
 792  2012.262
 793  2110.283
 794  2184.141
 795  2279.912
 796  2453.454
 797  2606.226
 798  2507.242
 799  2285.729
 800  2175.384
 801  2217.372
 802  2251.786
 803  2194.036
 804  2159.496
 805  2308.953
 806  2305.939
 807  2294.593
 808  2169.465
 809  2200.706
 810  2149.303
 811  2071.48
 812  2071.257
 813  2103.847
 814  2151.911
 815  2216.826
 816  2282.824
 817  2256.352
 818  2134.744
 819  1994.411
 820  1914.472
 821  1958.909
 822  1942.543
 823  1990.606
 824  1984.019
 825  2087.921
 826  2052.625
 827  2132.558
 828  2122.262
 829  2210.859
 830  2227.508
 831  2311.855
 832  2220.344
 833  2101.573
 834  2072.917
 835  2018.671
 836  1928.807
 837  1928.331
 838  2037.354
 839  2161.995
 840  2229.62
 841  2288.854
 842  2326.201
 843  2303.121
 844  2334.16
 845  2264.483
 846  2115.729
 847  1863.426
 848  1950.806
 849  2042.858
 850  2104.964
 851  2108.89
 852  2095.366
 853  2146.412
 854  2213.902
 855  2305.853
 856  2254.234
 857  2219.778
 858  2225.337
 859  2285.063
 860  2390.036
 861  2226.282
 862  2045.834
 863  1995.913
 864  2225.62
 865  2348.463
 866  2371.938
 867  2298.294
 868  2342.771
 869  2379.248
 870  2279.814
 871  2256.513
 872  2178.905
 873  2226.732
 874  2221.355
 875  2269.722
 876  2289.838
 877  2176.074
 878  2058.279
 879  2001.153
 880  2096.445
 881  2247.603
 882  2398.281
 883  2510.353
 884  2488.077
 885  2354.347
 886  2264.509
 887  2299.717
 888  2310.785
 889  2304.572
 890  2351.312
 891  2340.834
 892  2337.971
 893  2343.089
 894  2339.039
 895  2222.187
 896  2154.463
 897  2201.71
 898  2215.777
 899  2271.702
 900  2239.021
 901  2308.313
 902  2288.392
 903  2206.126
 904  2106.857
 905  2015.957
 906  1972.23
 907  1975.846
 908  2034.741
 909  2119.892
 910  2106.371
 911  2030.168
 912  1968.868
 913  1832.539
 914  1891.744
 915  1912.324
 916  1964.641
 917  1953.574
 918  2043.088
 919  2046.849
 920  2010.111
 921  1992.462
 922  1972.008
 923  2073.467
 924  2168.057
 925  2075.378
 926  1870.359
 927  1726.654
 928  1804.624
 929  1817.226
 930  1905.453
 931  1787.062
 932  1717.237
 933  1726.908
 934  1917.404
 935  1944.336
 936  1922.763
 937  1827.522
 938  1937.61
 939  1931.703
 940  1913.951
 941  1807.74
 942  1698.612
 943  1677.79
 944  1706.598
 945  1776.253
 946  1762.668
 947  1592.032
 948  1616.968
 949  1718.052
 950  1813.617
 951  1812.577
 952  1703.434
 953  1643.497
 954  1498.467
 955  1545.664
 956  1754.486
 957  1917.282
 958  1814.189
 959  1663.892
 960  1654.14
 961  1818.671
 962  1730.821
 963  1754.823
 964  1709.704
 965  1774.332
 966  1893.509
 967  1977.477
 968  2051.288
 969  1874.865
 970  1866.307
 971  1923.145
 972  2082.703
 973  2181.459
 974  2271.995
 975  2137.104
 976  1971.774
 977  1894.665
 978  1982.743
 979  2033.66
 980  2026.195
 981  1932.248
 982  1889.665
 983  1859.419
 984  1821.097
 985  1887.893
 986  1912.449
 987  2086.121
 988  2171.502
 989  2215.033
 990  2219.493
 991  2183.414
 992  2187.99
 993  2140.217
 994  2016.916
 995  1973.318
 996  1889.914
 997  1936.911
 998  1969.377
 999  2078.17
1000  2135.122
1001  2019.287
1002  2004.468
1003  2079.65
1004  2165.239
1005  2086.224
1006  2178.064
1007  2133.935
1008  2093.909
1009  2118
1010  2158.913
1011  2201.886
1012  2157.451
1013  2196.448
1014  2230.724
1015  2234.574
1016  2237.763
1017  2187.583
1018  2222.579
1019  2162.188
1020  2273.558
1021  2371.288
1022  2411.223
1023  2325.457
