# Input file       =  1208843057.118752_cleaned.dat
# Candidate        =  PSR_0332+5434
# Telescope        =  AR
# Epoch_topo       =  58235.239306930001
# Epoch_bary       =  N/A
# T_sample         =  0.002
# Data Folded      =  7208960
# Data Avg         =  0.461353068869689
# Data StdDev      =  9.27217880424567 
# Profile Bins     =  512
# Profile Avg      =  6495.84827163848 
# Profile StdDev   =  1100.22909472204 
# Reduced chi-sqr  =  0.804
# Prob(Noise)      <  1   (~0.0 sigma)
# P_topo (ms)      =  714.550043775809  +/- 6.36e-05
# P'_topo (s/s)    =  -0                +/- 3.42e-11
# P''_topo (s/s^2) =  0                 +/- 1.54e-14
# P_bary (ms)      =  N/A
# P'_bary (s/s)    =  N/A
# P''_bary (s/s^2) =  N/A
# P_orb (s)        =  N/A
# asin(i)/c (s)    =  N/A
# eccentricity     =  N/A
# w (rad)          =  N/A
# T_peri           =  N/A
######################################################
   0  6702.174
   1  6078.28
   2  6615.642
   3  6225.692
   4  6228.956
   5  7044.58
   6  8610.429
   7  8935.471
   8  7873.712
   9  8033.114
  10  6891.499
  11  6529.901
  12  5866.388
  13  6592.081
  14  6715.607
  15  7064.922
  16  6160.877
  17  6711.223
  18  6790.624
  19  5467.753
  20  6268.557
  21  6369.333
  22  6863.271
  23  6994.541
  24  6072.792
  25  6843.772
  26  6044.918
  27  6390.847
  28  6163.432
  29  6221.312
  30  6778.365
  31  7201.365
  32  6402.831
  33  6811.008
  34  6458.489
  35  5979.174
  36  6413.321
  37  6643.828
  38  7465.022
  39  7475.45
  40  7026.4
  41  7278.725
  42  6780.994
  43  6950.093
  44  7632.45
  45  7612.523
  46  7583.329
  47  7277.61
  48  6729.675
  49  6349.571
  50  7764.607
  51  7556.418
  52  7578.13
  53  6753.673
  54  6921.462
  55  7513.476
  56  6951.581
  57  7321.281
  58  5983.57
  59  6938.134
  60  6883.705
  61  6830.862
  62  7070.087
  63  7314.331
  64  6835.325
  65  6720.325
  66  7165.444
  67  6406.383
  68  6348.779
  69  6464.11
  70  6445.415
  71  6444.137
  72  6745.746
  73  7131.614
  74  6364.783
  75  6135.471
  76  5732.366
  77  5422.577
  78  5590.651
  79  5795.502
  80  6462.88
  81  6834.863
  82  6720.51
  83  5854.21
  84  5361.749
  85  5458.675
  86  5919.796
  87  6845.31
  88  5948.829
  89  5841.447
  90  5646.203
  91  6432.475
  92  6294.192
  93  5837.858
  94  5858.195
  95  5346.446
  96  5520.825
  97  4666.22
  98  5052.408
  99  6013.848
 100  7181.247
 101  6386.655
 102  5181.105
 103  4822.704
 104  5193.005
 105  6557.895
 106  7441.487
 107  7426.859
 108  6153.048
 109  5319.457
 110  5084.659
 111  5018.052
 112  6315.478
 113  5909.407
 114  5665.629
 115  5953.495
 116  6078.005
 117  6343.591
 118  6602.378
 119  7814.702
 120  7444.911
 121  6578.295
 122  6458.536
 123  5906.485
 124  6502.476
 125  6822.264
 126  6572.233
 127  5126.122
 128  5622.874
 129  6109.886
 130  7333.829
 131  7081.371
 132  6184.197
 133  5604.838
 134  5245.501
 135  5523.423
 136  5497.969
 137  6816.701
 138  6890.025
 139  6548.666
 140  5350.791
 141  4952.362
 142  5955.007
 143  6270.18
 144  6413.274
 145  5525.312
 146  4955.21
 147  4760.157
 148  5709.644
 149  6759.16
 150  6782.266
 151  5627.056
 152  5359.309
 153  4791.28
 154  5444.105
 155  6271.072
 156  7173.552
 157  6073.626
 158  5070.962
 159  4780.861
 160  5228.114
 161  5898.914
 162  6575.089
 163  7328.6
 164  6031.502
 165  6029.444
 166  5994.59
 167  6826.083
 168  7257.127
 169  6800.002
 170  7073.93
 171  5672.263
 172  6131.604
 173  6483.982
 174  6688.739
 175  7016.704
 176  6135.656
 177  4713.521
 178  4491.292
 179  6370.882
 180  6743.654
 181  7108.629
 182  7733.325
 183  6587.393
 184  5797.92
 185  4989.552
 186  6604.319
 187  7188.127
 188  6696.581
 189  6797.156
 190  6043.066
 191  5614.005
 192  5775.172
 193  6368.737
 194  6011.306
 195  5653.912
 196  4908.716
 197  5433.624
 198  6394.178
 199  7042.734
 200  6897.205
 201  5773.122
 202  5300.036
 203  5852.46
 204  7070.936
 205  7188.57
 206  6978.546
 207  6578.625
 208  5766.904
 209  6268.34
 210  7050.842
 211  7200.166
 212  6805.645
 213  6650.66
 214  5949.579
 215  5850.76
 216  6563.847
 217  7063.177
 218  6837.815
 219  6769
 220  6734.409
 221  5472.409
 222  6083.832
 223  6520.524
 224  6801.958
 225  6594.94
 226  5405.16
 227  5189.766
 228  5977.065
 229  6667.597
 230  7361.528
 231  6702.382
 232  6092.84
 233  5516.718
 234  5521.033
 235  7138.032
 236  7807.325
 237  7913.996
 238  7745.859
 239  7558.347
 240  5770.95
 241  6799.103
 242  7412.047
 243  7291.931
 244  7057.844
 245  5971.92
 246  6404.651
 247  6408.725
 248  7518.605
 249  7353.161
 250  6829.889
 251  6787.306
 252  6570.287
 253  7548.237
 254  8240.428
 255  7664.028
 256  6538.088
 257  6033.555
 258  6006.807
 259  5427.027
 260  6260.409
 261  6793.918
 262  7430.586
 263  8388.397
 264  7335.182
 265  7086.13
 266  6862.696
 267  6303.888
 268  6110.624
 269  7503.463
 270  7098.957
 271  7340.568
 272  7840.458
 273  7793.942
 274  7838.997
 275  7115.246
 276  6439.748
 277  6235.492
 278  6798.098
 279  6630.625
 280  6757.104
 281  7251.376
 282  7617.663
 283  7186.35
 284  6534.273
 285  7210.887
 286  7260.96
 287  7668.167
 288  6680.082
 289  5782.486
 290  5591.981
 291  6165.411
 292  6726.606
 293  6223.181
 294  5543.025
 295  5505.561
 296  6061.815
 297  6853.81
 298  6432.867
 299  6521.788
 300  6137.188
 301  5717.835
 302  6267.273
 303  7193.957
 304  7655.485
 305  5871.396
 306  6717.599
 307  6226.671
 308  6284.595
 309  6309.655
 310  6146.558
 311  6674.95
 312  5702.516
 313  5789.59
 314  6237.498
 315  6433.098
 316  6664.228
 317  6884.496
 318  6848.668
 319  7262.863
 320  7375.848
 321  6744.763
 322  6789.542
 323  6125.88
 324  6276.662
 325  6028.561
 326  6381.188
 327  7693.405
 328  7131.573
 329  6205.294
 330  5967.001
 331  6167.737
 332  7150.752
 333  6559.769
 334  5987.372
 335  6420.122
 336  7222.313
 337  6303.838
 338  6936.691
 339  5668.643
 340  5989.278
 341  6509.608
 342  5506.144
 343  6127.628
 344  5938.408
 345  5994.7
 346  6040.504
 347  6063.377
 348  6786.709
 349  5713.709
 350  5490.512
 351  6278.501
 352  6094.351
 353  6314.007
 354  7068.898
 355  6260.448
 356  6816.979
 357  7465.23
 358  6770.821
 359  7261.745
 360  7521.718
 361  7630.438
 362  6508.081
 363  6848.263
 364  7252.439
 365  6165.414
 366  6660.637
 367  7161.994
 368  6553.208
 369  6675.238
 370  7257.516
 371  6895.044
 372  7264.375
 373  7387.352
 374  6283.564
 375  6972.256
 376  7227.766
 377  7282.553
 378  6875.336
 379  6447.267
 380  6650.312
 381  6492.932
 382  7236.646
 383  7114.583
 384  6647.957
 385  6789.131
 386  6936.967
 387  7463.021
 388  7852.346
 389  8104.524
 390  7434.352
 391  6888.197
 392  6154.766
 393  6624.559
 394  7388.458
 395  6872.75
 396  7289.699
 397  5745.185
 398  6623.824
 399  6817.029
 400  7121.583
 401  7527.737
 402  6836.891
 403  7521.783
 404  6416.962
 405  6573.645
 406  6042.748
 407  6422.271
 408  7099.862
 409  7169.205
 410  6783.911
 411  6232.086
 412  5747.936
 413  5727.117
 414  6455.183
 415  6737.583
 416  5815.619
 417  6926.165
 418  6802.083
 419  7045.487
 420  6814.418
 421  7356.911
 422  7007.142
 423  6972.336
 424  6694.349
 425  6301.007
 426  7186.879
 427  7840.291
 428  7223.275
 429  5960.337
 430  6389.185
 431  6908.244
 432  6970.711
 433  6765.782
 434  6597.04
 435  7207.592
 436  6137.523
 437  6190.905
 438  6326.449
 439  6965.113
 440  6334.937
 441  6724.473
 442  6174.899
 443  6101.473
 444  6502.172
 445  6218.212
 446  5998.528
 447  5669.729
 448  5549.168
 449  5695.056
 450  5927.247
 451  8130.499
 452  8005.298
 453  7663.483
 454  7436.319
 455  5935.385
 456  6045.292
 457  5189.574
 458  5277.779
 459  5936.353
 460  6659.869
 461  6441.624
 462  5460.335
 463  5808
 464  5798.949
 465  6793.551
 466  6135.41
 467  6303.048
 468  5745.139
 469  6558.594
 470  7070.053
 471  7433.789
 472  6355.623
 473  5428.184
 474  5783.637
 475  6083.899
 476  6562.45
 477  6559.588
 478  6101.44
 479  5987.458
 480  5637.707
 481  5323.43
 482  4750.678
 483  5367.628
 484  6840.73
 485  6949.954
 486  7170.081
 487  5950.461
 488  6504.292
 489  6328.119
 490  7166.246
 491  6117.695
 492  5626.419
 493  6840.902
 494  6142.779
 495  6289.028
 496  5824.604
 497  6911.584
 498  6729.265
 499  6691.76
 500  6802.444
 501  6192.147
 502  6546.107
 503  5948.366
 504  6160.811
 505  6391.734
 506  5423.618
 507  5514.69
 508  5698.042
 509  6193.906
 510  6378.712
 511  6907.223
