# Input file       =  1209617964.103228_cleaned.dat
# Candidate        =  PSR_0332+5434
# Telescope        =  AR
# Epoch_topo       =  58244.208137768845
# Epoch_bary       =  N/A
# T_sample         =  0.002
# Data Folded      =  7208960
# Data Avg         =  0.433102726363787
# Data StdDev      =  6.48498717683412 
# Profile Bins     =  512
# Profile Avg      =  6098.0816963893  
# Profile StdDev   =  769.503233434751 
# Reduced chi-sqr  =  1.869
# Prob(Noise)      <  2.52e-29   (~11.2 sigma)
# P_topo (ms)      =  714.541963118017  +/- 1.65e-05
# P'_topo (s/s)    =  -0                +/- 8.87e-12
# P''_topo (s/s^2) =  0                 +/- 3.99e-15
# P_bary (ms)      =  N/A
# P'_bary (s/s)    =  N/A
# P''_bary (s/s^2) =  N/A
# P_orb (s)        =  N/A
# asin(i)/c (s)    =  N/A
# eccentricity     =  N/A
# w (rad)          =  N/A
# T_peri           =  N/A
######################################################
   0  6703.617
   1  5810.581
   2  5037.795
   3  4990.149
   4  5846.138
   5  6472.813
   6  6970.544
   7  7443.845
   8  7213.395
   9  5964.56
  10  5567.121
  11  5090.029
  12  4851.447
  13  5780.755
  14  6535.202
  15  7195.499
  16  7501.232
  17  6936.679
  18  6284.979
  19  5127.508
  20  5194.628
  21  6033.711
  22  6059.388
  23  6669.928
  24  7434.557
  25  7687.015
  26  6637.823
  27  5490.208
  28  5335.6
  29  5585.31
  30  5426.021
  31  6457.782
  32  7598.271
  33  7378.818
  34  6806.677
  35  5804.338
  36  5879.166
  37  6338.73
  38  6694.069
  39  6945.977
  40  6595.694
  41  6740.84
  42  6235.656
  43  5662.98
  44  4911.623
  45  4913.976
  46  5434.187
  47  6231.706
  48  6840.856
  49  6679.531
  50  6623.421
  51  5906.378
  52  5241.73
  53  5168.306
  54  5598.446
  55  5937.999
  56  6048.566
  57  7017.862
  58  6704.455
  59  5658.897
  60  5044.698
  61  5138.975
  62  5149.504
  63  5782.784
  64  6355.266
  65  6826.354
  66  6647.365
  67  5953.914
  68  5651.237
  69  5274.059
  70  5462.087
  71  5867.215
  72  6397.898
  73  6746.84
  74  6007.2
  75  5684.922
  76  5149.779
  77  5050.304
  78  4968.116
  79  5234.69
  80  6270.293
  81  6639.579
  82  6980.803
  83  6859.382
  84  5865.562
  85  5099.942
  86  5223.092
  87  5373.024
  88  6074.333
  89  6709.174
  90  7431.05
  91  6942.07
  92  5436.31
  93  4941.76
  94  4924.826
  95  5120.753
  96  5615.263
  97  6495.731
  98  6969.3
  99  7119.776
 100  6122.248
 101  5566.288
 102  5457.792
 103  5460.804
 104  5755.578
 105  6507.939
 106  7375.283
 107  7503.157
 108  6858.97
 109  5716.228
 110  5067.995
 111  4675.218
 112  5324.69
 113  5975.288
 114  6983.537
 115  7448.175
 116  6936.653
 117  6081.05
 118  5290.094
 119  5208.388
 120  6003.022
 121  6248.3
 122  6881.564
 123  7202.732
 124  7443.594
 125  6529.888
 126  5313.6
 127  5164.787
 128  5188.3
 129  5336.971
 130  6527.71
 131  7481.414
 132  7281.889
 133  6633.351
 134  5845.169
 135  5615.767
 136  5390.466
 137  6016.739
 138  6636.14
 139  6465.589
 140  6928.281
 141  6189.089
 142  5742.505
 143  5457.066
 144  5539.644
 145  5570.215
 146  6137.557
 147  6459.775
 148  6613.597
 149  6513.343
 150  5806.023
 151  5123.599
 152  5055.147
 153  5615.359
 154  6239.184
 155  6395.638
 156  6845.737
 157  6125.536
 158  5431.355
 159  4758.796
 160  4565.399
 161  4660.102
 162  5318.559
 163  6297.863
 164  6982.067
 165  7151.444
 166  6304.553
 167  5190.811
 168  5201.182
 169  5528.299
 170  5456.917
 171  6068.414
 172  6813.774
 173  6663.578
 174  6179.687
 175  5480.552
 176  4804.788
 177  4687.865
 178  4751.044
 179  5641.946
 180  5973.72
 181  6958.442
 182  6942.246
 183  6073.954
 184  5014.427
 185  4842.419
 186  5090.466
 187  5698.034
 188  6144.726
 189  6539.89
 190  6679.026
 191  6157.492
 192  5346.555
 193  4595.802
 194  4370.703
 195  4854.331
 196  6192.161
 197  6815.578
 198  6744.355
 199  6186.902
 200  5465.9
 201  5223.279
 202  5332.128
 203  5836.163
 204  5834.982
 205  6105.526
 206  6295.528
 207  6449.176
 208  5605.493
 209  5623.377
 210  5056.185
 211  4637.436
 212  5273.3
 213  6519.114
 214  6988.224
 215  6597.081
 216  6270.322
 217  5573.196
 218  5502.303
 219  5954.795
 220  6167.986
 221  6324.519
 222  6408.585
 223  6850
 224  5708.837
 225  5330.411
 226  4966.915
 227  4987.803
 228  5452.803
 229  6469.843
 230  7529.76
 231  6801.175
 232  6143.473
 233  5327.866
 234  5146.757
 235  5521.512
 236  6123.62
 237  6561.075
 238  7105.226
 239  7560.479
 240  6404.976
 241  5724.096
 242  5171.204
 243  4981.872
 244  5391.214
 245  5911.719
 246  6719.09
 247  7417.517
 248  7010.735
 249  6217.662
 250  5221.76
 251  5098.869
 252  5691.694
 253  6243.327
 254  6879.45
 255  7282.052
 256  7101.827
 257  6454.368
 258  5717.348
 259  5059.363
 260  5313.491
 261  5588.542
 262  6119.857
 263  6822.881
 264  7179.073
 265  6615.011
 266  6158.357
 267  5580.345
 268  5622.255
 269  6107.686
 270  6481.81
 271  6838.678
 272  7347.018
 273  7036.871
 274  5908.844
 275  5663.237
 276  5396.753
 277  4953.149
 278  5869.473
 279  7068.303
 280  7161.875
 281  7194.574
 282  6376.353
 283  5821.114
 284  5551.012
 285  5547.369
 286  5903.998
 287  6411.387
 288  6995.955
 289  7098.351
 290  6823.268
 291  5799.575
 292  5465.327
 293  5165.446
 294  6365.441
 295  6593.136
 296  6721.576
 297  7086.847
 298  6568.976
 299  6145.263
 300  5399.964
 301  5817.156
 302  6409.342
 303  6403.489
 304  7433.43
 305  7014.479
 306  6212.005
 307  5644.072
 308  5685.344
 309  5514.885
 310  5609.516
 311  6124.785
 312  7127.68
 313  7329.303
 314  6614.478
 315  6170.269
 316  5997.43
 317  5839.686
 318  5738.799
 319  6554.142
 320  7000.648
 321  7003.898
 322  7286.041
 323  6352.697
 324  5564.707
 325  4852.656
 326  5562.345
 327  5878.049
 328  6394.179
 329  7015.353
 330  6909.876
 331  6315.805
 332  5203.349
 333  5062.945
 334  5184.586
 335  5727.706
 336  6397.067
 337  7109.352
 338  7375.182
 339  5740.307
 340  5012.587
 341  4741.444
 342  4575.988
 343  5005.45
 344  5861.739
 345  6698.07
 346  7254.133
 347  7074.48
 348  6371.897
 349  5680.241
 350  5052.738
 351  5245.865
 352  5856.622
 353  6822.01
 354  7005.813
 355  7273.836
 356  6811.057
 357  5819.467
 358  5082.708
 359  5547.406
 360  5494.89
 361  6252.53
 362  6812.593
 363  7126.535
 364  7053.817
 365  5943.444
 366  5742.025
 367  6065.79
 368  6082.223
 369  6147.643
 370  6589.841
 371  7236.956
 372  6982.606
 373  5999.438
 374  5435.175
 375  5487.426
 376  5271.257
 377  5886.513
 378  6752.386
 379  7248.231
 380  7141.837
 381  6615.052
 382  6132.364
 383  5608.839
 384  5685.424
 385  6414.73
 386  6452.811
 387  7067.717
 388  6848.923
 389  5998.454
 390  5331.386
 391  5733.028
 392  5773.894
 393  6071.15
 394  5954.328
 395  6589.314
 396  7088.743
 397  6603.44
 398  6359.702
 399  5634.617
 400  6112.477
 401  6429.838
 402  6787.219
 403  7264.495
 404  6995.452
 405  7002.014
 406  5720.143
 407  5467.551
 408  5126.013
 409  5243.796
 410  5674.458
 411  6623.716
 412  7130.317
 413  6842.558
 414  5912.459
 415  5265.889
 416  5347.391
 417  5730.23
 418  6489.858
 419  6801.891
 420  7163.774
 421  7429.774
 422  6173.533
 423  5275.254
 424  4786.897
 425  5055.696
 426  5368.877
 427  6096.26
 428  6785.168
 429  7403.704
 430  6388.005
 431  5234.802
 432  4700.399
 433  5005.761
 434  5585.922
 435  6713.675
 436  7128.95
 437  7423.698
 438  6808.892
 439  5707.925
 440  4822.382
 441  5138.101
 442  5253.859
 443  6020.199
 444  7081.198
 445  7360.859
 446  7061.72
 447  6485.597
 448  5586.629
 449  5551.17
 450  6052.165
 451  6054.469
 452  6173.302
 453  6490.358
 454  7177.166
 455  6434.341
 456  5593.361
 457  4987.652
 458  4950.186
 459  5268.21
 460  5726.083
 461  6311.093
 462  6793.571
 463  6797.658
 464  5774.601
 465  5295.183
 466  5117.983
 467  5823.582
 468  6463.289
 469  6576.211
 470  7038.765
 471  6586.036
 472  5573.367
 473  4651.097
 474  5338.584
 475  5318.595
 476  6011.506
 477  6625.193
 478  6883.1
 479  6775.167
 480  5952.889
 481  5601.692
 482  4861.421
 483  5117.448
 484  6138.436
 485  6180.048
 486  6871.319
 487  6784.045
 488  6355.459
 489  5620.93
 490  5398.975
 491  5017.706
 492  5676.815
 493  6346.833
 494  7263.662
 495  7716.201
 496  8220.441
 497  7730.624
 498  7202.327
 499  7399.851
 500  6924.77
 501  6718.53
 502  6535.72
 503  6687.995
 504  6757.861
 505  5565.537
 506  5252.283
 507  5332.077
 508  5531.096
 509  6204.09
 510  6500.665
 511  7173.229
