# Input file       =  1209704165.112302_cleaned.dat
# Candidate        =  PSR_0332+5434
# Telescope        =  AR
# Epoch_topo       =  58245.205834633125
# Epoch_bary       =  N/A
# T_sample         =  0.002
# Data Folded      =  7208960
# Data Avg         =  0.211990160629449
# Data StdDev      =  5.2590771120289  
# Profile Bins     =  1024
# Profile Avg      =  1492.38188166179 
# Profile StdDev   =  441.261328664403 
# Reduced chi-sqr  =  2.734
# Prob(Noise)      <  1.93e-164   (~27.3 sigma)
# P_topo (ms)      =  714.54103219282   +/- 1.75e-05
# P'_topo (s/s)    =  -0                +/- 9.43e-12
# P''_topo (s/s^2) =  0                 +/- 4.24e-15
# P_bary (ms)      =  N/A
# P'_bary (s/s)    =  N/A
# P''_bary (s/s^2) =  N/A
# P_orb (s)        =  N/A
# asin(i)/c (s)    =  N/A
# eccentricity     =  N/A
# w (rad)          =  N/A
# T_peri           =  N/A
######################################################
   0  2091.824
   1  1957.76
   2  1984.401
   3  1932.057
   4  1459.723
   5  1162.457
   6  1064.919
   7  945.8908
   8  827.3051
   9  743.2705
  10  818.5458
  11  1023.522
  12  1123.638
  13  1484.874
  14  1561.764
  15  1670.128
  16  1502.362
  17  1282.956
  18  1201.61
  19  1121.37
  20  1185.897
  21  1032.394
  22  936.2464
  23  824.2554
  24  890.5778
  25  1031.941
  26  1242.43
  27  1382.801
  28  1771.323
  29  2050.535
  30  2048.949
  31  1961.617
  32  1802.06
  33  1827.589
  34  1762.987
  35  1726.68
  36  1718.885
  37  1440.617
  38  1435.685
  39  1329.76
  40  1049.814
  41  787.7667
  42  866.6989
  43  1160.8
  44  1301.682
  45  1246.829
  46  1292.418
  47  1392.926
  48  1485.376
  49  1536.002
  50  1447.636
  51  1444.64
  52  1231.889
  53  1145.026
  54  1143.872
  55  1076.347
  56  1031.126
  57  1021.281
  58  1231.755
  59  1087.827
  60  1089.663
  61  1645.164
  62  2126.997
  63  2193.238
  64  1929.158
  65  2085.528
  66  2164.728
  67  2195.489
  68  2035.244
  69  1834.776
  70  1477.256
  71  1337.91
  72  1471.249
  73  1499.481
  74  1371.078
  75  1246.962
  76  1277.337
  77  1162.185
  78  1224.179
  79  1431.818
  80  1563.161
  81  1483.038
  82  1383.895
  83  1396.358
  84  1250.771
  85  985.4426
  86  977.3782
  87  1037.281
  88  1043.936
  89  1174.265
  90  1382.217
  91  1337.491
  92  1117.315
  93  1407.76
  94  1855.233
  95  1987.716
  96  2083.98
  97  2207.539
  98  2268.183
  99  1937.881
 100  1818.832
 101  1863.118
 102  1738.191
 103  1644.266
 104  1564.51
 105  1249.307
 106  968.8257
 107  1052.715
 108  1220.554
 109  1330.221
 110  1330.711
 111  1693.657
 112  1817.556
 113  1881.225
 114  1838.656
 115  1682.368
 116  1488.982
 117  1215.285
 118  1135.338
 119  1084.174
 120  979.0563
 121  951.1437
 122  1022.996
 123  1034.625
 124  1039.936
 125  1125.783
 126  1361.298
 127  1585.892
 128  1530.426
 129  1884.524
 130  2149.791
 131  2508.422
 132  2444.567
 133  2283.343
 134  1963.371
 135  1789.522
 136  1788.244
 137  1437.024
 138  1107.02
 139  1052.747
 140  1160.514
 141  1106.807
 142  1056.84
 143  1214.053
 144  1598.01
 145  1602.098
 146  1766.342
 147  1816.269
 148  1833.233
 149  1753.513
 150  1474.387
 151  1418.908
 152  1257.932
 153  1196.974
 154  1270.429
 155  1199.248
 156  1101.617
 157  1047.279
 158  1239.405
 159  1556.83
 160  1539.833
 161  1880.526
 162  2177.419
 163  2418.214
 164  2438.937
 165  2209.459
 166  2184.954
 167  2059.561
 168  2022.096
 169  1850.918
 170  1257.288
 171  1119.987
 172  1198.658
 173  1153.786
 174  932.3683
 175  804.0992
 176  1095.979
 177  1319.724
 178  1478.415
 179  1844.104
 180  1934.599
 181  1987.92
 182  1773.113
 183  1708.333
 184  1547.559
 185  1319.263
 186  1351.907
 187  1273.663
 188  1100.302
 189  857.0491
 190  1014.031
 191  1338.453
 192  1582.59
 193  1593.266
 194  1879.878
 195  2012.202
 196  2136.951
 197  2180.621
 198  2150.107
 199  2027.788
 200  1823.762
 201  1859.915
 202  1701.477
 203  1558.003
 204  1502.345
 205  1466.521
 206  1243.79
 207  1034.448
 208  1125.687
 209  1298.74
 210  1394.426
 211  1477.529
 212  1526.652
 213  1552.886
 214  1597.995
 215  1407.961
 216  1262.176
 217  1110.899
 218  1196.05
 219  1276.248
 220  1232.675
 221  1118.458
 222  969.7307
 223  1025.137
 224  1260.513
 225  1247.585
 226  1401.729
 227  1656.076
 228  1981.729
 229  1996.966
 230  1986.672
 231  1946.189
 232  1897.76
 233  1788.881
 234  1747.358
 235  1474.232
 236  1381.987
 237  1490.604
 238  1405.607
 239  1195.682
 240  997.3155
 241  1053.423
 242  1224.001
 243  1278.276
 244  1416.689
 245  1566.111
 246  1778.333
 247  1729.645
 248  1558.961
 249  1491.917
 250  1291.655
 251  1138.235
 252  1074.477
 253  1129.583
 254  1082.789
 255  1143.537
 256  1271.783
 257  1313.166
 258  1221.171
 259  1674.661
 260  2174.27
 261  2347.848
 262  2325.406
 263  2295.017
 264  2234.618
 265  1970.381
 266  1882.029
 267  1660.808
 268  1490.36
 269  1345.214
 270  1493.916
 271  1333.277
 272  1204.833
 273  1236.644
 274  1444.074
 275  1392.345
 276  1354.621
 277  1629.152
 278  1852.193
 279  1894.363
 280  1692.721
 281  1559.714
 282  1500.581
 283  1284.681
 284  1233.147
 285  987.1085
 286  773.6486
 287  741.2491
 288  997.7958
 289  1147.167
 290  1050.946
 291  1134.043
 292  1625.69
 293  1734.399
 294  1926.453
 295  1994.418
 296  2099.431
 297  2034.983
 298  2024.964
 299  2082.868
 300  1641.092
 301  1320.34
 302  1421.655
 303  1362.052
 304  1112.084
 305  974.6738
 306  1030.545
 307  1157.301
 308  1058.596
 309  1371.075
 310  1547.704
 311  1626.4
 312  1726.461
 313  1749.371
 314  1733.268
 315  1586.023
 316  1531.813
 317  1474.518
 318  1211.253
 319  944.0132
 320  1020.42
 321  1088.103
 322  1118.068
 323  1022.323
 324  1463.635
 325  1925.499
 326  2051.998
 327  2275.012
 328  2352.705
 329  2387.413
 330  2225.13
 331  2078.669
 332  2048.811
 333  1718.515
 334  1763.621
 335  1630.992
 336  1335.272
 337  1117.119
 338  1246.021
 339  1357.38
 340  1234.779
 341  1242.876
 342  1503.181
 343  1749.284
 344  1903.177
 345  2005.596
 346  1851.326
 347  1785.064
 348  1530.065
 349  1602.574
 350  1412.361
 351  1198.11
 352  1140.815
 353  1259.208
 354  1273.804
 355  1151.198
 356  1096.587
 357  1578.015
 358  1736.017
 359  1975.081
 360  2068.764
 361  2268.017
 362  2287.257
 363  2045.462
 364  1921.409
 365  1669.433
 366  1628.823
 367  1719.949
 368  1577.161
 369  1355.541
 370  1329.427
 371  1311.038
 372  1304.473
 373  1065.321
 374  1164.094
 375  1409.296
 376  1603.33
 377  1820.097
 378  1723.649
 379  1721.782
 380  1676.903
 381  1527.335
 382  1433.671
 383  1363.729
 384  1413.363
 385  1410.495
 386  1285.714
 387  1058.348
 388  958.0809
 389  1079.365
 390  1414.354
 391  1471.792
 392  1772.218
 393  2128.923
 394  2322.459
 395  2301.307
 396  2134.2
 397  2100.692
 398  2030.624
 399  1866.095
 400  1718.574
 401  1292.654
 402  1148.837
 403  1230.902
 404  1134.88
 405  955.0426
 406  968.5682
 407  1142.585
 408  1382.262
 409  1475.019
 410  1688.863
 411  1734.222
 412  1845.943
 413  1641.234
 414  1369.537
 415  1225.862
 416  1097.08
 417  1097.665
 418  1147.381
 419  1188.114
 420  1141.243
 421  1187.551
 422  1574.597
 423  1630.882
 424  1439.038
 425  1593.082
 426  2040.953
 427  2126.521
 428  2034.442
 429  2072.93
 430  2194.625
 431  2176.708
 432  2070.762
 433  1875.481
 434  1421.854
 435  1218.887
 436  1313.589
 437  1411.473
 438  1365.781
 439  1084.749
 440  1131.064
 441  1038.157
 442  1307.337
 443  1531.447
 444  1600.944
 445  1533.274
 446  1430.755
 447  1415.195
 448  1378.901
 449  1262.553
 450  1417.198
 451  1238.56
 452  1097.05
 453  1048.279
 454  1199.884
 455  1231.546
 456  1019.644
 457  1452.217
 458  2009.08
 459  2242.453
 460  2262.374
 461  2184.398
 462  2230.947
 463  2027.628
 464  1837.028
 465  1814.171
 466  1519.007
 467  1427.303
 468  1363.269
 469  1094.685
 470  786.7708
 471  766.0102
 472  953.0812
 473  1148.986
 474  1078.008
 475  1263.248
 476  1367.286
 477  1560.243
 478  1751.23
 479  1717.346
 480  1640.705
 481  1274.293
 482  1095.205
 483  963.8601
 484  804.7881
 485  885.1408
 486  1029.035
 487  1197.078
 488  1250.796
 489  1201.354
 490  1611.566
 491  1817.454
 492  1907.517
 493  2047.018
 494  2128.587
 495  2252.275
 496  2134.108
 497  1984.691
 498  1717.206
 499  1412.841
 500  1433.771
 501  1340.951
 502  1074.024
 503  927.964
 504  963.6039
 505  1079.866
 506  991.0984
 507  1115.506
 508  1303.811
 509  1436.354
 510  1603.371
 511  1599.411
 512  1499.041
 513  1412.628
 514  1303.543
 515  1344.028
 516  1232.766
 517  985.8675
 518  893.0936
 519  992.1352
 520  1291.451
 521  1259.666
 522  1452.286
 523  1704.03
 524  1835.315
 525  2011.552
 526  2092.771
 527  2229.253
 528  2176.294
 529  2094.73
 530  2034.841
 531  1816.117
 532  1804.56
 533  1890.491
 534  1613.705
 535  1367.159
 536  1327.318
 537  1245.585
 538  1204.486
 539  1083.854
 540  1225.467
 541  1293.078
 542  1323.77
 543  1642.305
 544  1726.853
 545  1739.74
 546  1541.89
 547  1445.202
 548  1436.378
 549  1302.008
 550  1323.595
 551  1331.628
 552  1238.165
 553  1125.14
 554  996.684
 555  1443.868
 556  1572.17
 557  1765.888
 558  1955.4
 559  2304.401
 560  2339.153
 561  2336.125
 562  2089.56
 563  2001.898
 564  1773.075
 565  1838.663
 566  1720.576
 567  1399.714
 568  1377.985
 569  1321.962
 570  1285.315
 571  1097.343
 572  1118.702
 573  1322.742
 574  1388.458
 575  1554.874
 576  1704.015
 577  1661.444
 578  1684.889
 579  1544.003
 580  1477.066
 581  1364.467
 582  1169.845
 583  1206.209
 584  1237.344
 585  1280.512
 586  1083.686
 587  1177.57
 588  1604.856
 589  1803.715
 590  1884.801
 591  2135.139
 592  2393.47
 593  2406.562
 594  2350.49
 595  2443.261
 596  2606.172
 597  2731.458
 598  2725.543
 599  2535.684
 600  2228.923
 601  2258.736
 602  2074.268
 603  2097.83
 604  2054.721
 605  1991.927
 606  1873.646
 607  1659.94
 608  1664.678
 609  1644.185
 610  1579.156
 611  1564.395
 612  1428.933
 613  1475.562
 614  1312.362
 615  1055.934
 616  1005.629
 617  902.192
 618  957.6486
 619  980.9852
 620  1314.435
 621  1435.23
 622  1310.1
 623  1728.656
 624  2205.503
 625  2483.314
 626  2352.197
 627  2218.926
 628  2124.508
 629  1934.814
 630  1793.616
 631  1658.588
 632  1362.092
 633  1366.534
 634  1507.47
 635  1340.886
 636  1125.071
 637  1121.09
 638  1451.627
 639  1558.507
 640  1582.285
 641  1638.428
 642  1624.531
 643  1698.946
 644  1577.954
 645  1393.6
 646  1180.965
 647  902.5329
 648  883.4983
 649  880.5181
 650  960.1732
 651  967.2891
 652  1127.075
 653  1421.073
 654  1448.604
 655  1503.247
 656  1738.574
 657  1833.914
 658  1974.787
 659  2032.976
 660  2227.482
 661  2232.3
 662  2059.622
 663  1843.108
 664  1417.178
 665  1215.303
 666  1350.906
 667  1178.967
 668  1090.338
 669  963.6981
 670  1112.698
 671  1255.401
 672  1169.286
 673  1511.352
 674  1584.59
 675  1648.178
 676  1637.314
 677  1595.947
 678  1545.588
 679  1397.209
 680  1310.185
 681  1308.213
 682  1133.834
 683  1122.2
 684  1106.893
 685  1132.854
 686  1124.685
 687  1097.796
 688  1557.412
 689  1945.712
 690  2186.728
 691  2290.316
 692  2351.63
 693  2360.88
 694  2210.159
 695  2037.914
 696  1940.725
 697  1735.504
 698  1668.764
 699  1608.444
 700  1456.498
 701  1401.899
 702  1425.445
 703  1552.614
 704  1421.798
 705  1259.854
 706  1412.886
 707  1568.4
 708  1708.703
 709  1646.647
 710  1663.167
 711  1660.077
 712  1463.785
 713  1360.498
 714  1315.468
 715  1249.267
 716  1190.286
 717  1200.318
 718  1293.244
 719  1181.572
 720  1395.383
 721  1865.049
 722  2178.505
 723  2194.192
 724  2339.876
 725  2461.822
 726  2471.021
 727  2417.762
 728  2305.976
 729  2012.196
 730  1620.099
 731  1673.526
 732  1616.428
 733  1383.484
 734  1197.516
 735  1283.049
 736  1389.133
 737  1290.047
 738  1203.614
 739  1359.393
 740  1467.143
 741  1563.308
 742  1624.401
 743  1690.394
 744  1689.585
 745  1468.871
 746  1422.868
 747  1289.707
 748  1195.036
 749  1148.07
 750  1173.038
 751  1138.788
 752  1180.886
 753  1474.928
 754  1761.823
 755  1728.997
 756  2027.899
 757  2258.642
 758  2313.873
 759  2047.455
 760  1859.834
 761  1792.754
 762  1604.052
 763  1557.764
 764  1540.199
 765  1232.944
 766  1011.928
 767  1236.278
 768  1315.767
 769  1147.479
 770  933.8748
 771  1129.35
 772  1379.912
 773  1493.309
 774  1636.508
 775  1649.413
 776  1595.998
 777  1399.423
 778  1343.508
 779  1226.499
 780  911.5607
 781  841.2156
 782  864.3288
 783  982.202
 784  812.2024
 785  1012.245
 786  1371.785
 787  1610.453
 788  1655.889
 789  1967.9
 790  2306.084
 791  2297.162
 792  2164.905
 793  2013.953
 794  1830.375
 795  1481.526
 796  1421.774
 797  1194.259
 798  957.2946
 799  905.8015
 800  977.2511
 801  1007.529
 802  963.3629
 803  1103.619
 804  1256.943
 805  1195.596
 806  1358.691
 807  1418.875
 808  1367.649
 809  1182.15
 810  1055.821
 811  1068.837
 812  974.6706
 813  738.6867
 814  914.9525
 815  929.6025
 816  1034.137
 817  894.8701
 818  1228.284
 819  1370.808
 820  1284.759
 821  1450.962
 822  1770.84
 823  1788.408
 824  1749.657
 825  1845.634
 826  1949.8
 827  1724.839
 828  1548.757
 829  1563.73
 830  1168.74
 831  907.6443
 832  875.6724
 833  829.9286
 834  629.0995
 835  392.1016
 836  501.6532
 837  707.038
 838  819.1835
 839  1218.581
 840  1368.147
 841  1475.32
 842  1363.596
 843  1246.425
 844  1257.983
 845  1065.193
 846  1016.316
 847  905.8276
 848  785.9715
 849  754.3897
 850  763.7742
 851  942.1576
 852  965.3124
 853  1034.051
 854  1421.305
 855  1716.075
 856  1829.742
 857  1918.957
 858  1871.788
 859  1814.803
 860  1673.517
 861  1726.059
 862  1593.172
 863  1240.976
 864  1100.693
 865  987.7222
 866  912.9445
 867  818.5182
 868  753.9918
 869  864.8271
 870  777.8341
 871  959.0331
 872  1206.419
 873  1485.226
 874  1698.17
 875  1539.564
 876  1448.245
 877  1353.783
 878  1112.291
 879  1127.106
 880  1006.835
 881  968.5766
 882  805.4029
 883  938.6783
 884  1123.455
 885  1104.101
 886  1236.482
 887  1665.992
 888  1928.199
 889  1916.407
 890  1784.409
 891  1917.839
 892  1954.535
 893  1963.643
 894  1896.903
 895  1612.47
 896  1454.555
 897  1419.036
 898  1365.942
 899  1155.81
 900  1018.868
 901  857.1786
 902  835.8605
 903  740.9625
 904  971.5594
 905  1370.843
 906  1550.003
 907  1608.523
 908  1515.172
 909  1625.727
 910  1522.513
 911  1348.877
 912  1191.196
 913  1014.326
 914  1020.831
 915  1166.575
 916  1355.076
 917  1235.423
 918  1320.989
 919  1823.984
 920  2268.79
 921  2219.163
 922  2192.768
 923  2170.566
 924  2129.815
 925  1984.244
 926  1837.801
 927  1714.814
 928  1415.466
 929  1422.923
 930  1511.143
 931  1364.326
 932  1303.538
 933  1474.701
 934  1588.38
 935  1296.353
 936  1030.65
 937  1232.024
 938  1484.511
 939  1579.184
 940  1467.102
 941  1261.7
 942  1202.12
 943  1124.51
 944  1398.663
 945  1350.523
 946  1103.361
 947  1069.426
 948  1331.459
 949  1510.006
 950  1253.42
 951  1272.359
 952  1719.96
 953  1890.046
 954  1856.538
 955  1967.451
 956  2078.304
 957  2066.429
 958  1930.633
 959  1950.967
 960  1801
 961  1546.672
 962  1498.824
 963  1435.896
 964  1353.533
 965  1396.269
 966  1379.85
 967  1417.775
 968  1216.474
 969  1329.945
 970  1322.955
 971  1388.252
 972  1517.04
 973  1764.549
 974  1752.271
 975  1507.937
 976  1140.116
 977  1107.711
 978  1027.077
 979  1094.007
 980  1213.46
 981  1307.589
 982  1105.753
 983  1028.965
 984  1440.108
 985  1851
 986  1679.332
 987  1856.917
 988  2131.865
 989  2300.204
 990  2167.876
 991  1954.738
 992  1964.171
 993  1820.589
 994  1863.957
 995  1777.058
 996  1411.407
 997  1318.652
 998  1240.177
 999  1074.678
1000  888.0555
1001  952.185
1002  1320.059
1003  1471.188
1004  1678.416
1005  1833.844
1006  1857.799
1007  1873.175
1008  1729.816
1009  1562.107
1010  1383.98
1011  1178.105
1012  1175.887
1013  1072.594
1014  909.3026
1015  765.1658
1016  802.4891
1017  1262.829
1018  1338.037
1019  1445.184
1020  1743.074
1021  2055.827
1022  2286.523
1023  2139.885
