# Input file       =  1209101040.113664_cleaned.dat
# Candidate        =  PSR_0332+5434
# Telescope        =  AR
# Epoch_topo       =  58238.225221222965
# Epoch_bary       =  N/A
# T_sample         =  0.002
# Data Folded      =  7208960
# Data Avg         =  0.0445696422444628
# Data StdDev      =  1.00006546860919 
# Profile Bins     =  512
# Profile Avg      =  627.516875523578 
# Profile StdDev   =  118.666944244738 
# Reduced chi-sqr  =  1.565
# Prob(Noise)      <  4.28e-15   (~7.8 sigma)
# P_topo (ms)      =  714.547413631364  +/- 6.48e-05
# P'_topo (s/s)    =  -0                +/- 3.48e-11
# P''_topo (s/s^2) =  0                 +/- 1.56e-14
# P_bary (ms)      =  N/A
# P'_bary (s/s)    =  N/A
# P''_bary (s/s^2) =  N/A
# P_orb (s)        =  N/A
# asin(i)/c (s)    =  N/A
# eccentricity     =  N/A
# w (rad)          =  N/A
# T_peri           =  N/A
######################################################
   0  1378.447
   1  1271.572
   2  1095.68
   3  731.8629
   4  632.3366
   5  745.5733
   6  617.4845
   7  617.2167
   8  664.7198
   9  568.5147
  10  537.5873
  11  572.2159
  12  568.8875
  13  645.9722
  14  789.9657
  15  732.3069
  16  653.5426
  17  629.3639
  18  613.5901
  19  638.1976
  20  695.7195
  21  760.9614
  22  613.5712
  23  665.0449
  24  724.3284
  25  602.8641
  26  582.0742
  27  645.766
  28  790.5476
  29  687.517
  30  685.1156
  31  623.8581
  32  638.8016
  33  621.6807
  34  698.9636
  35  674.0911
  36  532.3179
  37  727.9236
  38  754.8154
  39  768.6941
  40  688.8581
  41  664.5106
  42  625.2357
  43  641.5958
  44  650.2363
  45  554.6141
  46  623.7633
  47  738.7753
  48  637.4254
  49  622.4311
  50  464.44
  51  478.8687
  52  557.5704
  53  564.2633
  54  655.1079
  55  631.1134
  56  572.3987
  57  588.8056
  58  604.7996
  59  602.7778
  60  514.4752
  61  525.6739
  62  569.2633
  63  739.0148
  64  635.7786
  65  611.2583
  66  564.3386
  67  635.2823
  68  569.7764
  69  662.5604
  70  563.6312
  71  490.1744
  72  640.8834
  73  610.4612
  74  545.7236
  75  484.3124
  76  472.505
  77  554.1627
  78  635.1901
  79  571.952
  80  661.4545
  81  685.6577
  82  609.0057
  83  662.6937
  84  676.6694
  85  733.2233
  86  679.2253
  87  664.6039
  88  747.901
  89  631.4705
  90  607.3154
  91  470.2944
  92  487.9764
  93  539.0715
  94  530.976
  95  567.9594
  96  640.1566
  97  663.2515
  98  596.7662
  99  600.6429
 100  638.8116
 101  717.6593
 102  612.9761
 103  648.4011
 104  681.6463
 105  769.2841
 106  712.0423
 107  713.4804
 108  769.3826
 109  756.7773
 110  698.574
 111  714.7187
 112  724.5105
 113  700.0642
 114  589.6688
 115  731.0847
 116  783.3889
 117  697.8179
 118  641.6786
 119  665.4663
 120  739.7474
 121  629.4617
 122  661.9736
 123  759.9677
 124  739.8742
 125  559.7049
 126  498.9032
 127  581.668
 128  772.0021
 129  680.4962
 130  588.4612
 131  520.7043
 132  601.1362
 133  528.9319
 134  514.8578
 135  648.0638
 136  656.0193
 137  683.1231
 138  566.7284
 139  666.6731
 140  642.417
 141  580.0449
 142  493.3482
 143  627.1406
 144  539.7526
 145  566.8623
 146  609.4551
 147  481.2143
 148  463.3799
 149  515.4299
 150  605.135
 151  643.2056
 152  668.4518
 153  682.6656
 154  686.0298
 155  672.4166
 156  591.5088
 157  644.0007
 158  615.0418
 159  562.4884
 160  531.1449
 161  572.0613
 162  704.1562
 163  724.2727
 164  647.2156
 165  566.4916
 166  675.7214
 167  587.624
 168  498.2691
 169  655.1915
 170  756.8553
 171  720.8095
 172  693.7089
 173  683.6284
 174  740.0754
 175  770.6953
 176  702.0203
 177  682.4473
 178  752.4902
 179  873.2224
 180  760.8204
 181  634.1819
 182  676.697
 183  677.7244
 184  689.6349
 185  875.8682
 186  759.1984
 187  830.7134
 188  791.4723
 189  658.5093
 190  640.8319
 191  648.1169
 192  665.3826
 193  609.7168
 194  641.3182
 195  644.0847
 196  718.7823
 197  803.3192
 198  566.2731
 199  707.7492
 200  667.5179
 201  630.4612
 202  665.5732
 203  828.7881
 204  742.3635
 205  645.3727
 206  655.3735
 207  558.7042
 208  551.4171
 209  571.2488
 210  616.7927
 211  698.3218
 212  725.774
 213  698.8607
 214  632.7269
 215  663.019
 216  588.408
 217  611.8235
 218  634.171
 219  653.5439
 220  745.0739
 221  681.9071
 222  586.0238
 223  524.1135
 224  554.6432
 225  425.3315
 226  524.5592
 227  667.2083
 228  676.2449
 229  637.8153
 230  571.6819
 231  601.6699
 232  547.9979
 233  686.501
 234  657.6447
 235  639.2175
 236  654.4783
 237  475.8926
 238  519.3881
 239  634.8228
 240  607.1572
 241  580.0423
 242  495.2441
 243  500.4984
 244  598.3353
 245  581.9216
 246  619.8739
 247  737.3558
 248  707.606
 249  643.6681
 250  573.6496
 251  541.0932
 252  582.6852
 253  654.4028
 254  736.3947
 255  548.1173
 256  627.7833
 257  636.6632
 258  414.6296
 259  481.6322
 260  706.2167
 261  822.9562
 262  647.3678
 263  718.0375
 264  742.7051
 265  601.8277
 266  516.0851
 267  542.4963
 268  628.2739
 269  683.3456
 270  808.574
 271  613.5794
 272  578.476
 273  569.4753
 274  513.4898
 275  553.4401
 276  645.0247
 277  551.3839
 278  646.9631
 279  688.9082
 280  712.5747
 281  630.0749
 282  467.2695
 283  455.706
 284  475.7458
 285  554.4166
 286  508.7027
 287  557.1705
 288  604.4196
 289  575.4465
 290  431.5567
 291  491.9582
 292  368.8026
 293  488.6003
 294  538.5632
 295  532.764
 296  552.4683
 297  536.1117
 298  582.4117
 299  443.5991
 300  501.3506
 301  567.2168
 302  620.0635
 303  667.0268
 304  565.2701
 305  481.006
 306  437.3968
 307  468.7932
 308  448.4619
 309  426.1452
 310  473.5588
 311  596.2985
 312  629.5815
 313  604.9932
 314  675.9737
 315  747.9675
 316  712.0329
 317  589.2099
 318  516.6505
 319  623.6264
 320  665.7586
 321  720.7593
 322  657.7394
 323  609.3365
 324  569.4769
 325  530.0438
 326  439.2513
 327  563.8745
 328  534.5331
 329  616.2515
 330  728.3477
 331  537.6009
 332  485.2927
 333  545.8654
 334  467.1955
 335  584.6727
 336  755.3781
 337  781.0901
 338  676.2427
 339  635.248
 340  501.4852
 341  274.7458
 342  366.1829
 343  576.208
 344  557.2618
 345  511.0572
 346  632.0901
 347  713.514
 348  683.3518
 349  605.4687
 350  614.2442
 351  709.5157
 352  641.1243
 353  580.4061
 354  601.3897
 355  592.4366
 356  523.5156
 357  508.8181
 358  509.205
 359  487.1135
 360  605.3173
 361  720.3472
 362  765.3994
 363  608.4976
 364  649.032
 365  490.0979
 366  546.7319
 367  691.4398
 368  631.0635
 369  648.945
 370  637.2523
 371  601.3546
 372  592.69
 373  496.9895
 374  519.4091
 375  517.9791
 376  540.4222
 377  555.3492
 378  541.4919
 379  595.5488
 380  455.9892
 381  374.5129
 382  381.3899
 383  532.9644
 384  546.8023
 385  449.3547
 386  555.3655
 387  598.5338
 388  606.5482
 389  456.9598
 390  486.6825
 391  466.3291
 392  499.7717
 393  655.9194
 394  533.6007
 395  545.5547
 396  609.4304
 397  775.8186
 398  671.1296
 399  667.7018
 400  713.5381
 401  633.1439
 402  649.8235
 403  655.0352
 404  680.1871
 405  686.3178
 406  637.9857
 407  531.8521
 408  563.2513
 409  606.0267
 410  663.75
 411  663.5168
 412  590.2558
 413  549.0549
 414  531.9518
 415  430.4402
 416  575.8257
 417  538.3676
 418  630.8312
 419  643.5566
 420  668.8773
 421  637.8522
 422  628.2868
 423  579.0895
 424  457.6155
 425  561.7241
 426  697.7153
 427  680.488
 428  724.6868
 429  698.5037
 430  637.7615
 431  553.8287
 432  607.3674
 433  549.5663
 434  656.3421
 435  678.7155
 436  697.7109
 437  632.3136
 438  562.2878
 439  430.2338
 440  573.1057
 441  628.3206
 442  721.2493
 443  795.3688
 444  823.8751
 445  640.2939
 446  512.799
 447  673.1601
 448  589.8391
 449  609.3449
 450  685.6802
 451  632.1172
 452  589.3187
 453  603.1234
 454  674.8783
 455  615.576
 456  516.4388
 457  531.3093
 458  559.586
 459  670.3401
 460  742.9136
 461  703.048
 462  680.2092
 463  694.7718
 464  626.361
 465  586.9811
 466  657.3833
 467  734.9575
 468  729.8428
 469  752.8942
 470  753.5973
 471  641.2051
 472  655.6279
 473  652.2285
 474  600.9197
 475  701.86
 476  764.7136
 477  725.3013
 478  768.4596
 479  681.4241
 480  632.5212
 481  565.9788
 482  632.2988
 483  613.1196
 484  669.0429
 485  661.6209
 486  583.6805
 487  666.5988
 488  628.281
 489  551.1111
 490  513.5683
 491  577.5592
 492  631.8768
 493  726.8417
 494  806.3979
 495  712.0967
 496  561.832
 497  514.2874
 498  593.2361
 499  745.1328
 500  674.868
 501  679.1202
 502  700.8446
 503  746.1902
 504  701.6669
 505  646.0955
 506  631.5262
 507  730.0572
 508  843.4552
 509  959.4803
 510  1091.37
 511  1186.692
