# Input file       =  1209389081.116451_cleaned.dat
# Candidate        =  PSR_0332+5434
# Telescope        =  AR
# Epoch_topo       =  58241.559029125594
# Epoch_bary       =  N/A
# T_sample         =  0.002
# Data Folded      =  7340032
# Data Avg         =  0.0407786354152728
# Data StdDev      =  1.00008973607797 
# Profile Bins     =  512
# Profile Avg      =  584.408833630048 
# Profile StdDev   =  119.743780749854 
# Reduced chi-sqr  =  1.675
# Prob(Noise)      <  7.55e-20   (~9.0 sigma)
# P_topo (ms)      =  714.544750451411  +/- 0.000293
# P'_topo (s/s)    =  -0                +/- 1.55e-10
# P''_topo (s/s^2) =  0                 +/- 6.83e-14
# P_bary (ms)      =  N/A
# P'_bary (s/s)    =  N/A
# P''_bary (s/s^2) =  N/A
# P_orb (s)        =  N/A
# asin(i)/c (s)    =  N/A
# eccentricity     =  N/A
# w (rad)          =  N/A
# T_peri           =  N/A
######################################################
   0  604.5067
   1  542.8105
   2  430.4838
   3  461.1815
   4  561.6614
   5  657.5753
   6  492.3684
   7  504.2278
   8  504.5298
   9  450.6698
  10  498.9222
  11  606.0914
  12  564.5062
  13  603.5945
  14  486.5555
  15  428.8911
  16  376.1758
  17  451.3664
  18  470.6795
  19  475.5815
  20  458.1299
  21  428.0795
  22  365.5494
  23  448.3456
  24  463.6537
  25  546.5319
  26  552.9344
  27  596.727
  28  537.8828
  29  448.7141
  30  429.7999
  31  595.5615
  32  651.3538
  33  543.8465
  34  567.8716
  35  631.3207
  36  490.1586
  37  552.1866
  38  570.3863
  39  613.5082
  40  700.4403
  41  711.8342
  42  720.0493
  43  682.5699
  44  663.2551
  45  636.5875
  46  606.2456
  47  753.0552
  48  685.1216
  49  723.647
  50  733.1965
  51  694.9795
  52  628.0433
  53  602.7126
  54  702.1351
  55  594.7438
  56  551.2058
  57  682.9743
  58  668.9047
  59  686.4385
  60  655.4984
  61  632.8358
  62  602.9535
  63  632.3745
  64  591.2425
  65  557.1028
  66  622.3268
  67  652.8387
  68  601.4779
  69  580.7123
  70  574.9352
  71  675.1105
  72  623.1757
  73  598.5045
  74  649.4227
  75  517.3866
  76  507.1349
  77  509.9409
  78  500.5084
  79  465.8681
  80  667.3303
  81  719.9081
  82  698.9338
  83  621.4409
  84  694.9785
  85  620.4028
  86  711.836
  87  638.2437
  88  621.3508
  89  687.8123
  90  720.4937
  91  754.4258
  92  716.8491
  93  622.2725
  94  539.5963
  95  500.8492
  96  537.8416
  97  587.311
  98  604.0676
  99  675.8227
 100  631.7563
 101  599.6411
 102  556.3038
 103  602.5574
 104  505.531
 105  651.6549
 106  765.4482
 107  737.8536
 108  661.4904
 109  714.498
 110  729.6678
 111  677.4337
 112  746.5416
 113  767.0047
 114  669.9279
 115  628.2601
 116  721.8202
 117  583.1682
 118  545.3375
 119  546.3169
 120  611.001
 121  712.5255
 122  656.6335
 123  669.1411
 124  741.5245
 125  683.8618
 126  649.8408
 127  565.6268
 128  580.1794
 129  640.6539
 130  559.9146
 131  612.9803
 132  545.3447
 133  411.817
 134  480.003
 135  578.2192
 136  652.896
 137  680.3171
 138  507.0609
 139  483.3186
 140  526.0389
 141  605.3887
 142  496.0665
 143  511.3651
 144  535.1566
 145  424.4108
 146  384.7006
 147  405.7033
 148  498.4733
 149  486.5672
 150  427.3627
 151  495.3001
 152  453.3782
 153  457.2449
 154  493.532
 155  507.2694
 156  553.916
 157  516.8085
 158  485.7327
 159  561.2199
 160  627.8191
 161  562.1162
 162  607.8103
 163  611.5154
 164  553.825
 165  502.3543
 166  461.636
 167  589.647
 168  722.5912
 169  601.1107
 170  496.4789
 171  582.9514
 172  561.6818
 173  416.3463
 174  428.2672
 175  593.0533
 176  643.5911
 177  610.0233
 178  557.6104
 179  556.5438
 180  573.9507
 181  683.1278
 182  710.5571
 183  608.3536
 184  658.1629
 185  697.313
 186  607.0706
 187  629.6012
 188  573.6469
 189  665.0978
 190  598.1686
 191  614.5696
 192  737.5435
 193  639.6841
 194  566.8625
 195  584.8411
 196  666.7574
 197  603.4764
 198  529.2794
 199  580.8645
 200  527.4749
 201  560.8182
 202  653.4384
 203  665.032
 204  528.9933
 205  612.6069
 206  552.3041
 207  573.8415
 208  532.9607
 209  625.1039
 210  608.2625
 211  431.3428
 212  450.2403
 213  572.8144
 214  543.1259
 215  454.9396
 216  512.8148
 217  471.9268
 218  526.965
 219  511.9576
 220  529.3658
 221  552.0545
 222  521.6393
 223  506.5018
 224  589.1407
 225  558.1255
 226  563.6665
 227  530.6647
 228  465.5997
 229  460.4194
 230  574.8379
 231  646.3367
 232  497.0448
 233  363.5253
 234  586.1075
 235  516.8962
 236  352.3351
 237  417.7337
 238  477.1537
 239  489.1751
 240  487.9693
 241  515.1214
 242  494.1631
 243  539.1243
 244  544.1395
 245  499.1004
 246  498.7762
 247  400.9539
 248  479.9698
 249  609.0422
 250  506.8803
 251  512.0385
 252  533.8072
 253  631.822
 254  671.9853
 255  570.4514
 256  536.5931
 257  567.9761
 258  629.296
 259  631.9868
 260  614.3773
 261  634.3895
 262  747.4831
 263  746.4868
 264  654.926
 265  736.0634
 266  856.546
 267  751.4781
 268  843.4639
 269  901.6287
 270  842.8267
 271  976.2949
 272  1161.024
 273  1265.908
 274  1336.637
 275  1277.058
 276  1057.726
 277  803.3044
 278  749.1932
 279  645.1286
 280  647.3059
 281  744.2681
 282  639.4763
 283  640.1553
 284  552.7452
 285  599.9309
 286  691.5474
 287  678.1542
 288  730.509
 289  603.5917
 290  531.6716
 291  468.2361
 292  542.2415
 293  578.4645
 294  527.2404
 295  527.173
 296  491.0929
 297  482.2934
 298  430.5116
 299  462.5207
 300  534.6866
 301  513.4031
 302  484.1654
 303  554.9354
 304  545.9596
 305  429.7161
 306  377.2003
 307  543.9251
 308  593.1296
 309  505.5802
 310  576.1134
 311  710.3254
 312  637.9402
 313  564.3646
 314  523.0626
 315  530.6915
 316  678.8213
 317  606.2482
 318  614.7679
 319  588.3887
 320  651.5066
 321  462.0441
 322  481.5011
 323  562.8929
 324  596.1419
 325  568.2332
 326  585.1005
 327  509.2477
 328  442.6476
 329  542.8515
 330  543.2708
 331  457.4613
 332  498.6169
 333  554.6157
 334  639.0571
 335  644.6678
 336  573.0209
 337  532.6069
 338  593.5787
 339  606.3671
 340  690.756
 341  716.6401
 342  751.0332
 343  667.8467
 344  730.6841
 345  699.4709
 346  654.5096
 347  689.3503
 348  591.6056
 349  519.5118
 350  512.8972
 351  606.3694
 352  588.5184
 353  437.4692
 354  397.9175
 355  466.6423
 356  507.398
 357  512.8899
 358  564.6779
 359  427.6215
 360  428.6219
 361  425.3289
 362  424.4252
 363  359.056
 364  442.7022
 365  467.0519
 366  592.8587
 367  693.3884
 368  713.1693
 369  775.029
 370  573.8705
 371  497.5097
 372  545.6286
 373  533.4666
 374  506.5737
 375  587.7313
 376  581.4085
 377  593.442
 378  536.8668
 379  484.8995
 380  565.5468
 381  599.3214
 382  635.2742
 383  586.4503
 384  526.8098
 385  559.8964
 386  550.3299
 387  563.0652
 388  550.0647
 389  605.1077
 390  545.504
 391  599.575
 392  629.9774
 393  447.1144
 394  428.4775
 395  473.5979
 396  638.9556
 397  687.6622
 398  746.4181
 399  667.2055
 400  584.3643
 401  592.2978
 402  590.538
 403  551.6674
 404  596.1851
 405  607.0245
 406  593.3989
 407  650.5809
 408  703.5194
 409  708.5843
 410  562.0674
 411  509.9275
 412  598.3247
 413  759.5912
 414  785.3051
 415  740.0167
 416  644.0496
 417  597.9183
 418  580.263
 419  591.0139
 420  562.3965
 421  557.0121
 422  648.2051
 423  707.2042
 424  598.4305
 425  580.005
 426  556.4877
 427  565.3942
 428  551.1689
 429  582.6465
 430  560.4623
 431  532.6177
 432  543.4507
 433  614.1255
 434  494.38
 435  523.6298
 436  421.3318
 437  396.9016
 438  529.314
 439  601.1589
 440  545.4551
 441  587.7771
 442  479.7639
 443  530.0752
 444  583.2374
 445  507.8557
 446  517.3303
 447  456.7626
 448  533.2719
 449  447.1107
 450  433.1415
 451  450.0084
 452  390.9476
 453  466.3922
 454  447.6522
 455  472.9269
 456  588.6832
 457  603.3705
 458  519.383
 459  477.4007
 460  599.7705
 461  598.4222
 462  553.1546
 463  596.3771
 464  605.8898
 465  593.2037
 466  584.8236
 467  635.85
 468  651.0278
 469  605.2765
 470  633.7426
 471  664.6506
 472  619.2061
 473  600.2673
 474  616.4136
 475  695.6063
 476  688.9604
 477  697.0413
 478  697.7432
 479  638.9087
 480  639.0803
 481  601.9427
 482  608.5065
 483  520.9538
 484  648.1899
 485  647.2099
 486  569.7775
 487  512.3661
 488  647.0364
 489  735.8409
 490  642.6705
 491  589.6697
 492  651.7415
 493  604.3394
 494  521.5211
 495  488.2989
 496  609.9916
 497  654.9318
 498  545.5025
 499  547.1209
 500  661.7011
 501  542.6663
 502  459.5898
 503  409.0779
 504  434.9812
 505  511.9841
 506  531.0794
 507  537.5014
 508  477.6654
 509  534.0195
 510  471.695
 511  468.4332
