# Input file       =  1209804988.111969_cleaned.dat
# Candidate        =  PSR_0332+5434
# Telescope        =  AR
# Epoch_topo       =  58246.372767499641
# Epoch_bary       =  N/A
# T_sample         =  0.002
# Data Folded      =  7340032
# Data Avg         =  0.45293951489917 
# Data StdDev      =  5.95103732420247 
# Profile Bins     =  512
# Profile Avg      =  6495.47363550405 
# Profile StdDev   =  712.535768418228 
# Reduced chi-sqr  =  0.874
# Prob(Noise)      <  0.982   (~0.0 sigma)
# P_topo (ms)      =  714.539948328495  +/- 0.00107
# P'_topo (s/s)    =  -0                +/- 5.65e-10
# P''_topo (s/s^2) =  0                 +/- 2.5e-13
# P_bary (ms)      =  N/A
# P'_bary (s/s)    =  N/A
# P''_bary (s/s^2) =  N/A
# P_orb (s)        =  N/A
# asin(i)/c (s)    =  N/A
# eccentricity     =  N/A
# w (rad)          =  N/A
# T_peri           =  N/A
######################################################
   0  6906.934
   1  6587.948
   2  6731.714
   3  6602.261
   4  6768.194
   5  6559.017
   6  6702.027
   7  6660.916
   8  6670.199
   9  6664.096
  10  6086.3
  11  6405.889
  12  6740.628
  13  6880.804
  14  6693.833
  15  6506.071
  16  6353.668
  17  6254.5
  18  6633.299
  19  6497.445
  20  6389.686
  21  6574.236
  22  6304.005
  23  6191.326
  24  6411.65
  25  6484.838
  26  6417.962
  27  6084.317
  28  5638.865
  29  5540.046
  30  5811.018
  31  5931.468
  32  5893.542
  33  6081.567
  34  6253.395
  35  6116.008
  36  6012.931
  37  5644.471
  38  5831.825
  39  6030.496
  40  5803.435
  41  5651.271
  42  5905.593
  43  5909.822
  44  6196.46
  45  6411.376
  46  6265.608
  47  6264.883
  48  6496.593
  49  5998.306
  50  6008.471
  51  5849.064
  52  5735.558
  53  6120.984
  54  6237.404
  55  6102.07
  56  6203.663
  57  6228.088
  58  6260.5
  59  6152.132
  60  6159.492
  61  6086.254
  62  5913.309
  63  5817.998
  64  6105.279
  65  5952.592
  66  6079.825
  67  6384.133
  68  6773.588
  69  6658.587
  70  6581.856
  71  6472.792
  72  6392.546
  73  6803.525
  74  6507.425
  75  6019.586
  76  5972.083
  77  6183.812
  78  6286.624
  79  6087.588
  80  6201.608
  81  6458.32
  82  6342.989
  83  6275.045
  84  6056.118
  85  6243.349
  86  6599.088
  87  6576.142
  88  6913.856
  89  7033.379
  90  6446.002
  91  6306.497
  92  6431.104
  93  6441.787
  94  6662.764
  95  6736.855
  96  6401.604
  97  6134.56
  98  6299.73
  99  6130.752
 100  6091.967
 101  6540.663
 102  6375.883
 103  6181.288
 104  6493.012
 105  6483.562
 106  6411.786
 107  6947.147
 108  7274.421
 109  6973.886
 110  7112.938
 111  7147.282
 112  6399.295
 113  6691.717
 114  6648.032
 115  6530.958
 116  6323.572
 117  6507.35
 118  6727.724
 119  6932.636
 120  7076.753
 121  6958.721
 122  6990.524
 123  6541.99
 124  6571.105
 125  6344.913
 126  6720.22
 127  7232.404
 128  7206.973
 129  6932.438
 130  7011.52
 131  6895.896
 132  6937.328
 133  6709.856
 134  6811.202
 135  6456.845
 136  6616.971
 137  7090.149
 138  6968.732
 139  6224.29
 140  6772.545
 141  6983.102
 142  6829.334
 143  7173.88
 144  7077.065
 145  6757.496
 146  6530.803
 147  6817.542
 148  7087.438
 149  7075.148
 150  6948.875
 151  6779.201
 152  6737.407
 153  6466.269
 154  6815.582
 155  6630.509
 156  6760.185
 157  6639.417
 158  6505.437
 159  6303.905
 160  5960.206
 161  6462.151
 162  6827.31
 163  5983.403
 164  6170.833
 165  6457.745
 166  6298.439
 167  6320.751
 168  6713
 169  7178
 170  7241.39
 171  6865.59
 172  6317.224
 173  6535.831
 174  6556.901
 175  6827.229
 176  6704.517
 177  6724.456
 178  6584.709
 179  6249.854
 180  6381.853
 181  6358.526
 182  5996.498
 183  6161.929
 184  5999.92
 185  6143.613
 186  6187.121
 187  6440.526
 188  6742.412
 189  6896.963
 190  6748.276
 191  6668.427
 192  6617.995
 193  6622.59
 194  6632.419
 195  6361.95
 196  6663.912
 197  6415.124
 198  6251.685
 199  6280.457
 200  6460.395
 201  6628.81
 202  6788.371
 203  6773.154
 204  6712.095
 205  6767.744
 206  6713.424
 207  6692.923
 208  7185.303
 209  7379.386
 210  7011.876
 211  6632.469
 212  7125.468
 213  7216.088
 214  7083.092
 215  7427.716
 216  7285.437
 217  7332.402
 218  7492.614
 219  7550.409
 220  7789.96
 221  7764.933
 222  7468.924
 223  7353.042
 224  7782.108
 225  7474.657
 226  7235.411
 227  7383.381
 228  7561.683
 229  7487.277
 230  7384.465
 231  7600.077
 232  7445.239
 233  6858.643
 234  7022.979
 235  6735.59
 236  6773.794
 237  6737.87
 238  7260.603
 239  7146.975
 240  6783.071
 241  7136.582
 242  7041.389
 243  6912.091
 244  6803.443
 245  6874.692
 246  6742.264
 247  6839.327
 248  6885.568
 249  6814.877
 250  6721.519
 251  7053.255
 252  7020.502
 253  7251.931
 254  7318.011
 255  6970.305
 256  6832.103
 257  7164
 258  7506.385
 259  7822.592
 260  7732.723
 261  7252.547
 262  7241.273
 263  6991.336
 264  7187.38
 265  7294.853
 266  6979.385
 267  6976.156
 268  7343.467
 269  7342.606
 270  7084.088
 271  7019.413
 272  7141.459
 273  7129.354
 274  7465.267
 275  7253.632
 276  6960.205
 277  6810.419
 278  6962.272
 279  7156.787
 280  7028.663
 281  7455.327
 282  7827.162
 283  6925.287
 284  7197.903
 285  7447.06
 286  6992.078
 287  6654.787
 288  6796.836
 289  6452.069
 290  6071.403
 291  6067.067
 292  6497.575
 293  6273.08
 294  6278.762
 295  6585.528
 296  6413.195
 297  6398.563
 298  6857.64
 299  6593.49
 300  6366.987
 301  5965.644
 302  6109.879
 303  6607.167
 304  6577.92
 305  6523.605
 306  6937.388
 307  6913.849
 308  6509.01
 309  6601.205
 310  6970.875
 311  6951.238
 312  6896.853
 313  6672.569
 314  6607.41
 315  6437.881
 316  6655.533
 317  6374.224
 318  6431.091
 319  6144.821
 320  6064.4
 321  5753.37
 322  5975.238
 323  5865.026
 324  5843.949
 325  6234.248
 326  6193.385
 327  6256.415
 328  6224.425
 329  5855.059
 330  5984.155
 331  6296.703
 332  6130.558
 333  5879.906
 334  6127.267
 335  6078.636
 336  5770.381
 337  5925.195
 338  5762.698
 339  5595.071
 340  5999.512
 341  5979.247
 342  6036.546
 343  6039.553
 344  5900.548
 345  5481.329
 346  5844.573
 347  5778.857
 348  6145.451
 349  6374.799
 350  6105.022
 351  5985.103
 352  5931.362
 353  5930.242
 354  6325.627
 355  6108.859
 356  6147.403
 357  6283.984
 358  6300.552
 359  6227.991
 360  6513.215
 361  6660.496
 362  6255.732
 363  6042.63
 364  6359.896
 365  5962.117
 366  6011.799
 367  6121.591
 368  6128.319
 369  6153.347
 370  6167.75
 371  6367.997
 372  6300.125
 373  6161.076
 374  6011.664
 375  6340.424
 376  6350.091
 377  6278.436
 378  6294.786
 379  6340.9
 380  6538.24
 381  6220.813
 382  6587.869
 383  6482.976
 384  6236.923
 385  6233.646
 386  6067.52
 387  6156.897
 388  6097.47
 389  5905.27
 390  6011.763
 391  5862.304
 392  6164.9
 393  6075.63
 394  6191.733
 395  5981.2
 396  6180.229
 397  6246.03
 398  6374.053
 399  6174.414
 400  6380.79
 401  6253.651
 402  6230.895
 403  6290.502
 404  5839.33
 405  5814.394
 406  5949.645
 407  5769.026
 408  6026.189
 409  6322.095
 410  6140.543
 411  5907.769
 412  5828.074
 413  5828.93
 414  5793.749
 415  5943.595
 416  6116.244
 417  5900.501
 418  5974.628
 419  5941.874
 420  5651.497
 421  5620.637
 422  5891.062
 423  5735.636
 424  5946.611
 425  5923.475
 426  6099.828
 427  6409.711
 428  6682.484
 429  6561.755
 430  6746.822
 431  6704.642
 432  6283.104
 433  6623.466
 434  6857.042
 435  6732.579
 436  6665.201
 437  6331.856
 438  6310.571
 439  6784.136
 440  6724.428
 441  6578.004
 442  6439.086
 443  6638.855
 444  6422.062
 445  6372.642
 446  6535.959
 447  6551.045
 448  6347.659
 449  6580.833
 450  6582.184
 451  6696.115
 452  6463.959
 453  5830.318
 454  5525.371
 455  5840.692
 456  6092.6
 457  5990.054
 458  5678.443
 459  6272.202
 460  6217.095
 461  5732.932
 462  6038.693
 463  6066.371
 464  6028.423
 465  6272.325
 466  6127.676
 467  6262.777
 468  6386.912
 469  6365.741
 470  6475.833
 471  6474.911
 472  6527.188
 473  6430.192
 474  5935.824
 475  5760
 476  6013.897
 477  6197.516
 478  6128.34
 479  6316.668
 480  6264.409
 481  6435.878
 482  6481.9
 483  6151.186
 484  6303.14
 485  6304.555
 486  6427.46
 487  5930.424
 488  5849.704
 489  6169.738
 490  6109.932
 491  6082.221
 492  6228.306
 493  5940.652
 494  6136.337
 495  5999.569
 496  6168.484
 497  6364.525
 498  6095.771
 499  6044.9
 500  6109.347
 501  6142.511
 502  6384.832
 503  6416.331
 504  6793.218
 505  6960.196
 506  7318.603
 507  7762.911
 508  8381.526
 509  8452.979
 510  7961.438
 511  7386.352
