# Input file       =  1209044432.11521_cleaned.dat
# Candidate        =  PSR_0332+5434
# Telescope        =  AR
# Epoch_topo       =  58237.570036055673
# Epoch_bary       =  N/A
# T_sample         =  0.002
# Data Folded      =  7340032
# Data Avg         =  0.0330978555025357
# Data StdDev      =  1.0000805095325  
# Profile Bins     =  512
# Profile Avg      =  474.53797032667  
# Profile StdDev   =  119.74267602755  
# Reduced chi-sqr  =  1.355
# Prob(Noise)      <  1.46e-07   (~5.1 sigma)
# P_topo (ms)      =  714.548343277972  +/- 0.000215
# P'_topo (s/s)    =  -0                +/- 1.14e-10
# P''_topo (s/s^2) =  0                 +/- 5.01e-14
# P_bary (ms)      =  N/A
# P'_bary (s/s)    =  N/A
# P''_bary (s/s^2) =  N/A
# P_orb (s)        =  N/A
# asin(i)/c (s)    =  N/A
# eccentricity     =  N/A
# w (rad)          =  N/A
# T_peri           =  N/A
######################################################
   0  1209.11
   1  1123.806
   2  811.3141
   3  523.4719
   4  294.0034
   5  330.1486
   6  409.0393
   7  416.9369
   8  374.2482
   9  420.7526
  10  379.617
  11  486.1028
  12  438.6467
  13  353.8347
  14  464.5808
  15  539.1154
  16  613.8298
  17  559.1057
  18  483.145
  19  403.2298
  20  357.6113
  21  374.1443
  22  388.3948
  23  386.9942
  24  407.7135
  25  444.2134
  26  446.799
  27  406.1337
  28  395.7974
  29  352.3292
  30  424.9743
  31  515.7513
  32  395.6532
  33  362.1222
  34  440.7467
  35  524.7288
  36  590.3116
  37  520.4711
  38  536.5724
  39  442.5242
  40  469.5438
  41  537.7729
  42  585.4602
  43  616.5286
  44  473.982
  45  471.0887
  46  416.7899
  47  342.5442
  48  407.8356
  49  531.29
  50  544.2378
  51  459.8845
  52  528.9678
  53  592.2816
  54  732.5295
  55  618.0411
  56  523.4246
  57  479.6496
  58  559.1991
  59  609.8178
  60  635.0245
  61  534.972
  62  549.3657
  63  589.434
  64  530.5817
  65  497.5429
  66  467.0786
  67  591.7765
  68  579.4977
  69  665.1359
  70  491.0397
  71  453.0747
  72  528.4738
  73  543.3079
  74  499.9588
  75  503.8404
  76  564.3469
  77  506.0885
  78  360.2302
  79  355.7729
  80  435.8649
  81  524.9658
  82  598.5434
  83  531.6555
  84  517.8657
  85  439.8273
  86  388.635
  87  423.2089
  88  459.1032
  89  291.262
  90  399.8907
  91  500.5875
  92  363.1257
  93  375.4649
  94  468.4727
  95  396.122
  96  369.133
  97  466.1357
  98  371.502
  99  308.4097
 100  486.75
 101  536.1945
 102  536.1049
 103  472.3282
 104  581.8218
 105  542.3574
 106  433.721
 107  502.4584
 108  561.3929
 109  459.2119
 110  512.2643
 111  438.3199
 112  500.2735
 113  476.6229
 114  433.2834
 115  550.1505
 116  423.6167
 117  387.3898
 118  528.4164
 119  448.5833
 120  452.0643
 121  502.6338
 122  605.1262
 123  557.2593
 124  410.4837
 125  457.8318
 126  393.5112
 127  551.8573
 128  558.1929
 129  594.2148
 130  570.2522
 131  527.1995
 132  619.6
 133  542.7808
 134  539.8115
 135  501.9055
 136  573.2654
 137  599.7491
 138  635.0892
 139  580.2791
 140  457.1753
 141  485.8832
 142  563.218
 143  562.2297
 144  511.9284
 145  468.1785
 146  499.516
 147  468.8653
 148  480.1267
 149  566.6462
 150  400.3659
 151  438.8749
 152  387.2787
 153  417.1506
 154  519.1904
 155  487.1402
 156  542.5894
 157  566.9863
 158  572.9354
 159  356.9655
 160  361.2205
 161  470.1097
 162  478.7624
 163  363.8323
 164  469.7532
 165  524.0375
 166  515.6821
 167  504.8934
 168  456.1668
 169  410.7633
 170  420.5211
 171  405.3945
 172  470.1658
 173  390.4544
 174  361.2261
 175  540.3002
 176  531.6164
 177  525.8598
 178  406.6105
 179  468.5875
 180  311.4631
 181  474.613
 182  514.6794
 183  371.7766
 184  461.0298
 185  421.2826
 186  370.8503
 187  416.5924
 188  489.6269
 189  408.4767
 190  424.683
 191  420.0424
 192  471.5137
 193  536.7455
 194  619.9169
 195  474.2616
 196  504.8985
 197  510.8082
 198  540.3991
 199  472.2364
 200  526.4084
 201  488.0953
 202  401.7183
 203  458
 204  443.7493
 205  533.3074
 206  516.0756
 207  372.6902
 208  410.0219
 209  376.5367
 210  385.6337
 211  422.1758
 212  472.4868
 213  500.0207
 214  602.8414
 215  600.965
 216  403.4434
 217  302.5163
 218  505.3651
 219  641.1263
 220  614.4633
 221  599.7847
 222  447.5363
 223  396.1166
 224  495.3403
 225  497.7718
 226  446.013
 227  449.9906
 228  483.0631
 229  521.8395
 230  521.3908
 231  391.8891
 232  339.4571
 233  435.8847
 234  471.8803
 235  383.432
 236  327.8281
 237  398.511
 238  440.998
 239  380.006
 240  460.4885
 241  402.8055
 242  341.5135
 243  429.8063
 244  416.7676
 245  428.9675
 246  440.73
 247  413.9689
 248  390.2712
 249  332.8346
 250  451.4083
 251  400.4208
 252  423.7852
 253  505.7534
 254  439.122
 255  509.2916
 256  395.5109
 257  483.1605
 258  597.0583
 259  493.3217
 260  571.1823
 261  574.9702
 262  599.7202
 263  582.5124
 264  541.3942
 265  521.4199
 266  609.3516
 267  530.0968
 268  502.2653
 269  571.7513
 270  532.3596
 271  489.6783
 272  494.1588
 273  585.1538
 274  585.6091
 275  588.738
 276  504.431
 277  421.5564
 278  458.0915
 279  617.2125
 280  489.5447
 281  450.0102
 282  484.7283
 283  512.4763
 284  683.9175
 285  531.8507
 286  468.8892
 287  526.8616
 288  543.8619
 289  517.8828
 290  422.6056
 291  376.3304
 292  455.1607
 293  438.642
 294  434.2551
 295  560.8264
 296  609.701
 297  525.9275
 298  506.5343
 299  411.9795
 300  373.0168
 301  476.6102
 302  431.4602
 303  457.4601
 304  519.9892
 305  482.9405
 306  526.4935
 307  513.9853
 308  565.4651
 309  542.8996
 310  464.0436
 311  514.9622
 312  383.7905
 313  356.1753
 314  434.1417
 315  419.1333
 316  336.5381
 317  471.9391
 318  425.7591
 319  413.9193
 320  433.985
 321  423.3559
 322  413.014
 323  469.7852
 324  492.5575
 325  505.8837
 326  441.6128
 327  485.5746
 328  436.7955
 329  476.0522
 330  566.0278
 331  510.879
 332  444.6466
 333  467.4492
 334  476.7969
 335  340.3014
 336  495.799
 337  570.9858
 338  585.4694
 339  463.3688
 340  497.0822
 341  564.3525
 342  698.6628
 343  579.256
 344  499.7219
 345  576.6544
 346  597.8988
 347  479.8326
 348  450.0744
 349  533.0301
 350  489.9867
 351  434.8758
 352  502.222
 353  448.1637
 354  455.0335
 355  516.9113
 356  542.4969
 357  412.113
 358  442.0901
 359  423.5311
 360  389.1093
 361  414.4868
 362  409.4281
 363  392.5845
 364  409.0453
 365  434.6892
 366  399.0806
 367  453.5011
 368  524.7574
 369  537.0319
 370  430.0301
 371  473.494
 372  592.0858
 373  554.9359
 374  425.8947
 375  493.9225
 376  515.6605
 377  349.1668
 378  379.7424
 379  423.4142
 380  489.804
 381  504.1542
 382  460.5486
 383  539.1342
 384  575.7285
 385  467.1074
 386  406.6089
 387  355.1718
 388  285.8629
 389  397.7303
 390  501.5916
 391  491.9976
 392  445.7747
 393  433.6177
 394  408.4602
 395  252.6527
 396  428.5247
 397  428.9125
 398  362.4697
 399  423.9196
 400  542.4013
 401  505.9376
 402  472.077
 403  385.2638
 404  443.8095
 405  452.4927
 406  381.4651
 407  353.533
 408  412.2046
 409  392.6119
 410  337.7557
 411  475.7561
 412  479.9637
 413  380.2077
 414  306.1718
 415  335.5989
 416  457.8514
 417  548.7537
 418  566.3044
 419  506.208
 420  451.1701
 421  422.9366
 422  504.6168
 423  356.8864
 424  411.1386
 425  466.6911
 426  574.029
 427  568.2866
 428  545.3224
 429  542.6096
 430  501.2011
 431  483.0885
 432  455.9943
 433  462.8778
 434  449.9846
 435  491.0013
 436  460.8926
 437  524.5075
 438  436.3234
 439  306.9584
 440  337.5547
 441  478.1545
 442  443.3941
 443  352.0166
 444  281.2511
 445  406.1054
 446  436.0736
 447  284.2692
 448  290.4515
 449  295.7126
 450  266.8712
 451  284.3864
 452  324.8127
 453  410.6671
 454  341.2264
 455  319.9801
 456  361.5704
 457  291.271
 458  315.3507
 459  445.6279
 460  512.5637
 461  420.2191
 462  434.3884
 463  455.4305
 464  503.7048
 465  542.9858
 466  423.6913
 467  429.276
 468  398.5561
 469  419.014
 470  428.2416
 471  438.1978
 472  459.8852
 473  509.0894
 474  408.2764
 475  431.7676
 476  565.4016
 477  490.7936
 478  454.0017
 479  403.4386
 480  414.1258
 481  387.4754
 482  466.6973
 483  444.7941
 484  507.4535
 485  524.7728
 486  480.5793
 487  481.3607
 488  438.3962
 489  416.6314
 490  477.9468
 491  464.1606
 492  498.0779
 493  578.5961
 494  527.1061
 495  513.8632
 496  453.9766
 497  427.1294
 498  427.7684
 499  442.3107
 500  409.5102
 501  391.1516
 502  353.8936
 503  337.2982
 504  445.9035
 505  595.1365
 506  559.0114
 507  531.8108
 508  657.5317
 509  848.0665
 510  1069.85
 511  1173.931
