# Input file       =  1209561351.137129_cleaned.dat
# Candidate        =  PSR_0332+5434
# Telescope        =  AR
# Epoch_topo       =  58243.552895105662
# Epoch_bary       =  N/A
# T_sample         =  0.002
# Data Folded      =  7340032
# Data Avg         =  0.0473579380261997
# Data StdDev      =  1.00009814015897 
# Profile Bins     =  512
# Profile Avg      =  678.636324508915 
# Profile StdDev   =  119.744786995989 
# Reduced chi-sqr  =  1.177
# Prob(Noise)      <  0.00343   (~2.7 sigma)
# P_topo (ms)      =  714.542914420744  +/- 0.000515
# P'_topo (s/s)    =  -0                +/- 2.72e-10
# P''_topo (s/s^2) =  0                 +/- 1.2e-13
# P_bary (ms)      =  N/A
# P'_bary (s/s)    =  N/A
# P''_bary (s/s^2) =  N/A
# P_orb (s)        =  N/A
# asin(i)/c (s)    =  N/A
# eccentricity     =  N/A
# w (rad)          =  N/A
# T_peri           =  N/A
######################################################
   0  1230.017
   1  1142.872
   2  1025.372
   3  971.2964
   4  858.4924
   5  785.3263
   6  641.958
   7  662.6178
   8  771.8601
   9  726.2382
  10  637.7372
  11  741.2563
  12  707.1143
  13  732.9619
  14  820.8816
  15  734.6398
  16  800.7726
  17  745.3057
  18  706.3679
  19  626.9019
  20  696.8693
  21  643.256
  22  670.9062
  23  690.5339
  24  767.1893
  25  746.9649
  26  611.9052
  27  590.1962
  28  675.0231
  29  670.1471
  30  647.5049
  31  663.5894
  32  554.769
  33  539.5886
  34  572.4058
  35  615.7101
  36  636.4072
  37  572.0346
  38  585.6266
  39  544.7473
  40  501.0846
  41  522.4532
  42  536.6838
  43  545.6379
  44  531.931
  45  512.5518
  46  609.7169
  47  673.4039
  48  545.7953
  49  480.775
  50  513.923
  51  435.244
  52  535.1299
  53  578.1923
  54  607.2236
  55  548.1592
  56  595.0781
  57  547.4031
  58  451.6121
  59  541.8033
  60  575.0759
  61  509.5841
  62  539.876
  63  515.481
  64  466.5067
  65  575.7239
  66  603.6998
  67  508.9558
  68  577.3998
  69  555.5573
  70  650.8102
  71  594.1573
  72  661.5748
  73  701.8647
  74  758.8513
  75  681.2117
  76  645.1308
  77  643.4517
  78  532.3976
  79  655.4159
  80  630.864
  81  600.5412
  82  557.7715
  83  589.4613
  84  700.8721
  85  702.8669
  86  703.7064
  87  694.804
  88  821.8856
  89  735.127
  90  775.5265
  91  680.7067
  92  692.3764
  93  739.3129
  94  692.1198
  95  682.4588
  96  746.7043
  97  678.4676
  98  680.2352
  99  595.8336
 100  577.5463
 101  726.0811
 102  742.7405
 103  779.0503
 104  800.751
 105  746.145
 106  749.5751
 107  738.5281
 108  806.4146
 109  785.9482
 110  710.2155
 111  630.2894
 112  613.79
 113  644.7902
 114  647.8579
 115  575.4113
 116  607.2885
 117  673.8568
 118  652.1019
 119  605.5272
 120  533.687
 121  602.4396
 122  651.5773
 123  553.7582
 124  437.4566
 125  571.8023
 126  535.2703
 127  494.6925
 128  610.5275
 129  611.2776
 130  564.2141
 131  656.5107
 132  762.2135
 133  691.4619
 134  670.3642
 135  717.3677
 136  691.4402
 137  686.3958
 138  662.5891
 139  696.014
 140  702.3839
 141  724.0403
 142  756.9959
 143  819.4422
 144  780.9075
 145  566.9224
 146  629.5596
 147  745.1187
 148  668.3147
 149  655.3945
 150  584.8655
 151  716.8601
 152  693.7561
 153  630.5167
 154  570.0923
 155  680.1961
 156  696.7354
 157  717.8495
 158  603.3497
 159  566.2112
 160  694.0767
 161  507.9142
 162  601.555
 163  737.4784
 164  724.3521
 165  593.3749
 166  662.6032
 167  635.6926
 168  595.4084
 169  624.6999
 170  682.7822
 171  553.1382
 172  494.4
 173  601.1133
 174  700.2717
 175  674.1026
 176  621.2924
 177  581.4149
 178  597.0161
 179  581.7123
 180  614.0157
 181  749.462
 182  725.6071
 183  603.171
 184  665.3477
 185  680.8763
 186  703.8937
 187  694.2491
 188  656.9893
 189  641.4508
 190  705.3918
 191  619.0143
 192  625.7985
 193  573.6288
 194  642.0395
 195  629.644
 196  526.0029
 197  480.9518
 198  647.1208
 199  602.4789
 200  541.5178
 201  592.8735
 202  603.66
 203  574.6211
 204  588.8477
 205  645.5794
 206  618.445
 207  631.3484
 208  743.8356
 209  665.0622
 210  621.0926
 211  678.6614
 212  689.2401
 213  723.1599
 214  712.9437
 215  688.1189
 216  618.002
 217  674.6152
 218  645.694
 219  720.7125
 220  640.0341
 221  556.3277
 222  576.6818
 223  677.9612
 224  665.3762
 225  511.3867
 226  559.9201
 227  712.9688
 228  660.9669
 229  610.4462
 230  668.1664
 231  635.9842
 232  620.4399
 233  676.6957
 234  626.5345
 235  627.6009
 236  590.4319
 237  578.2574
 238  671.5222
 239  614.6491
 240  559.4878
 241  593.9756
 242  637.8344
 243  640.5485
 244  652.9427
 245  571.7913
 246  677.434
 247  657.0295
 248  673.6051
 249  734.5755
 250  762.8276
 251  617.3927
 252  646.556
 253  716.1605
 254  782.0549
 255  637.2626
 256  650.4757
 257  721.3201
 258  782.6828
 259  709.6332
 260  608.0107
 261  618.5717
 262  639.199
 263  613.0091
 264  707.1829
 265  676.632
 266  699.4075
 267  729.5019
 268  639.942
 269  544.457
 270  563.1481
 271  610.0081
 272  634.722
 273  652.9835
 274  682.3635
 275  600.4864
 276  595.108
 277  705.922
 278  735.5376
 279  564.8225
 280  592.0493
 281  651.5154
 282  643.3724
 283  702.4021
 284  724.1122
 285  682.8679
 286  685.7341
 287  704.7108
 288  718.1181
 289  690.0104
 290  690.1296
 291  689.5348
 292  700.196
 293  732.3138
 294  745.7904
 295  708.5945
 296  623.8185
 297  656.3766
 298  720.2235
 299  825.1723
 300  763.4763
 301  712.4328
 302  722.4174
 303  813.0935
 304  777.464
 305  697.9798
 306  694.0215
 307  762.1476
 308  886.7847
 309  774.4976
 310  727.3071
 311  785.8633
 312  847.6522
 313  819.4793
 314  722.5995
 315  756.2217
 316  665.2742
 317  684.5043
 318  848.1261
 319  695.0851
 320  699.8636
 321  813.4063
 322  851.838
 323  885.34
 324  696.4706
 325  624.4207
 326  688.3793
 327  570.0175
 328  639.5948
 329  704.3101
 330  622.0224
 331  748.2842
 332  726.9385
 333  700.5292
 334  740.0332
 335  772.3022
 336  750.3649
 337  634.6676
 338  666.4883
 339  757.8945
 340  820.6956
 341  793.2776
 342  766.7338
 343  784.3112
 344  704.6885
 345  635.7151
 346  584.1503
 347  650.9729
 348  566.0491
 349  595.342
 350  764.7013
 351  690.7488
 352  609.5955
 353  707.7087
 354  686.3281
 355  707.8127
 356  755.1099
 357  620.9617
 358  708.1034
 359  725.4062
 360  581.6917
 361  685.9047
 362  658.67
 363  698.1441
 364  603.8708
 365  657.1231
 366  575.4487
 367  574.9609
 368  648.3162
 369  668.3832
 370  620.3542
 371  705.2861
 372  789.079
 373  700.7205
 374  648.0536
 375  725.903
 376  758.1478
 377  735.0138
 378  659.6294
 379  622.7853
 380  627.3843
 381  546.6472
 382  688.606
 383  814.0962
 384  798.3607
 385  768.9817
 386  686.2749
 387  834.8645
 388  781.6945
 389  717.5762
 390  609.5244
 391  574.9086
 392  705.0975
 393  785.5589
 394  759.8659
 395  698.7479
 396  714.8054
 397  767.2829
 398  751.0373
 399  682.1102
 400  577.9088
 401  639.8727
 402  680.9376
 403  758.9463
 404  707.1769
 405  759.4886
 406  782.6587
 407  694.5437
 408  667.2598
 409  751.5194
 410  817.4301
 411  741.4757
 412  759.3513
 413  808.5558
 414  705.9377
 415  677.5579
 416  693.3234
 417  689.0976
 418  667.1815
 419  665.584
 420  621.9073
 421  720.6663
 422  700.9274
 423  685.459
 424  765.2033
 425  645.0583
 426  665.4418
 427  680.8004
 428  711.0108
 429  736.9891
 430  723.7189
 431  663.7423
 432  696.9063
 433  699.1108
 434  784.6027
 435  759.6458
 436  721.8929
 437  656.3646
 438  667.4046
 439  727.3229
 440  688.3942
 441  681.5844
 442  664.3943
 443  802.7006
 444  811.6932
 445  706.3907
 446  660.6683
 447  664.2805
 448  697.0829
 449  717.4161
 450  627.3012
 451  525.9576
 452  634.9171
 453  603.8622
 454  615.6685
 455  674.8929
 456  665.7411
 457  648.1851
 458  680.8513
 459  837.8329
 460  757.2419
 461  718.4072
 462  677.708
 463  670.399
 464  724.6998
 465  676.2942
 466  729.5931
 467  709.4946
 468  695.0517
 469  674.5036
 470  711.3098
 471  836.2698
 472  820.2639
 473  702.9178
 474  794.053
 475  682.5499
 476  669.6122
 477  766.6779
 478  618.9595
 479  644.9141
 480  727.3514
 481  743.6942
 482  758.9641
 483  775.7955
 484  731.618
 485  695.6438
 486  685.7261
 487  694.6423
 488  690.6093
 489  812.6602
 490  769.2402
 491  823.4114
 492  855.5818
 493  826.8194
 494  742.2066
 495  663.7589
 496  635.1432
 497  674.2031
 498  698.1796
 499  657.1614
 500  650.2243
 501  584.7507
 502  753.083
 503  831.7817
 504  759.2164
 505  653.8163
 506  729.969
 507  824.8411
 508  819.118
 509  871.433
 510  1141.106
 511  1246.831
