# Input file       =  1209733729.112785_cleaned.dat
# Candidate        =  PSR_0332+5434
# Telescope        =  AR
# Epoch_topo       =  58245.548010564642
# Epoch_bary       =  N/A
# T_sample         =  0.002
# Data Folded      =  7340032
# Data Avg         =  0.161727935276368
# Data StdDev      =  3.67638350371864 
# Profile Bins     =  1024
# Profile Avg      =  1159.20196569446 
# Profile StdDev   =  311.257487198074 
# Reduced chi-sqr  =  0.822
# Prob(Noise)      <  1   (~0.0 sigma)
# P_topo (ms)      =  714.541057276598  +/- 0.000438
# P'_topo (s/s)    =  -0                +/- 2.31e-10
# P''_topo (s/s^2) =  0                 +/- 1.02e-13
# P_bary (ms)      =  N/A
# P'_bary (s/s)    =  N/A
# P''_bary (s/s^2) =  N/A
# P_orb (s)        =  N/A
# asin(i)/c (s)    =  N/A
# eccentricity     =  N/A
# w (rad)          =  N/A
# T_peri           =  N/A
######################################################
   0  1183.342
   1  1113.527
   2  1093.738
   3  1191.096
   4  1232.443
   5  1220.762
   6  1157.932
   7  1195.329
   8  1253.009
   9  1112.574
  10  1031.8
  11  1019.426
  12  1075.513
  13  1079.88
  14  1071.053
  15  1090.257
  16  1075.925
  17  980.0598
  18  1097.803
  19  1215.292
  20  1177.788
  21  1195.434
  22  1260.996
  23  1258.929
  24  1167.003
  25  1083.145
  26  1092.425
  27  1085.45
  28  1097.006
  29  1149.346
  30  1104.825
  31  1153.248
  32  1174.809
  33  1047.657
  34  938.7275
  35  935.6783
  36  1123.398
  37  1183.24
  38  1246.766
  39  1235.82
  40  1273.259
  41  1232.609
  42  1095.4
  43  1120.379
  44  1081.732
  45  1176.133
  46  1188.351
  47  1288.835
  48  1301.14
  49  1116.884
  50  998.7495
  51  1040.432
  52  1136.376
  53  1208.864
  54  1184.366
  55  1205.381
  56  1184.64
  57  1185.651
  58  1164.899
  59  1032.318
  60  1071.129
  61  1160.035
  62  1242.327
  63  1218.698
  64  1131.948
  65  1221.69
  66  1237.573
  67  1289.245
  68  1214.124
  69  1206.291
  70  1162.527
  71  1081.761
  72  1083.323
  73  1149.14
  74  1162.655
  75  1218.375
  76  1149.39
  77  1084.015
  78  984.8456
  79  952.633
  80  1006.856
  81  974.3742
  82  982.1486
  83  1096.914
  84  1207.694
  85  1209.532
  86  1062.995
  87  1100.52
  88  1202.017
  89  1270.057
  90  1224.188
  91  1220.722
  92  1184.217
  93  1190.672
  94  1206.719
  95  1212.398
  96  1139.521
  97  1108.032
  98  1011.632
  99  1008.578
 100  1003.055
 101  1041.311
 102  1159.684
 103  1183.185
 104  1183.692
 105  1140.074
 106  1210.921
 107  1253.933
 108  1354.513
 109  1456.181
 110  1526.072
 111  1470.631
 112  1446.896
 113  1324.284
 114  1259.383
 115  1154.152
 116  1254.901
 117  1209.56
 118  1177.178
 119  1133.009
 120  1172.583
 121  1129.417
 122  1016.891
 123  932.9017
 124  997.14
 125  1006.164
 126  991.6816
 127  923.8536
 128  889.9616
 129  1017.797
 130  1059.534
 131  1087.001
 132  1041.212
 133  1130.308
 134  1222.055
 135  1161.104
 136  1010.437
 137  864.8399
 138  769.5782
 139  769.5766
 140  805.2222
 141  1010.39
 142  961.4535
 143  964.5934
 144  897.0746
 145  932.0229
 146  980.2061
 147  935.0905
 148  899.2411
 149  868.7997
 150  908.1053
 151  984.1253
 152  1060.052
 153  1005.578
 154  897.1901
 155  803.6727
 156  865.1249
 157  878.3364
 158  840.2311
 159  827.3348
 160  985.9423
 161  1110.863
 162  1065.783
 163  1022.447
 164  935.6071
 165  1022.232
 166  1023.417
 167  1013.004
 168  1014.148
 169  1018.921
 170  1090.62
 171  1023.318
 172  945.7338
 173  824.5128
 174  761.6274
 175  739.7291
 176  772.3575
 177  970.075
 178  1041.679
 179  978.4994
 180  814.2723
 181  866.7108
 182  977.6975
 183  1110.707
 184  1112.65
 185  1132.712
 186  942.1996
 187  845.0053
 188  825.4073
 189  929.108
 190  961.3835
 191  1048.6
 192  1098.23
 193  1158.17
 194  1090.483
 195  1033.159
 196  1010.568
 197  1007.587
 198  1023.947
 199  1030.712
 200  958.0287
 201  1045.38
 202  1191.079
 203  1169.589
 204  1061.967
 205  948.3533
 206  1123.667
 207  1206.554
 208  1236.444
 209  1146.132
 210  1080.704
 211  1014.344
 212  915.3947
 213  895.7642
 214  931.1315
 215  1001.251
 216  1095.444
 217  1146.233
 218  1237.386
 219  1196.746
 220  1046.913
 221  1094.654
 222  979.5586
 223  1005.483
 224  845.551
 225  902.1322
 226  895.2564
 227  949.788
 228  1023.765
 229  1102.516
 230  1081.12
 231  1214.859
 232  1081.734
 233  1033.92
 234  955.1125
 235  1047.724
 236  1016.568
 237  1026.644
 238  1069.079
 239  1193.618
 240  1216.48
 241  1150.741
 242  1169.739
 243  1205.288
 244  1270.226
 245  1275.746
 246  1204.405
 247  1095.541
 248  1161.539
 249  1233.193
 250  1247.213
 251  1189.502
 252  1288.516
 253  1414.9
 254  1420.521
 255  1211.252
 256  1100.062
 257  1038.26
 258  1101.737
 259  1117.052
 260  1092.48
 261  1127.146
 262  1110.617
 263  1128.61
 264  1112.286
 265  1031.979
 266  924.486
 267  851.0813
 268  983.4924
 269  998.2282
 270  993.756
 271  902.3584
 272  906.6021
 273  1021.593
 274  1057.614
 275  1053.008
 276  1052.569
 277  1039.546
 278  1060.196
 279  1085.714
 280  1215.353
 281  1226.534
 282  1193.305
 283  1123.648
 284  1115.96
 285  949.9138
 286  858.9401
 287  898.8892
 288  1051.984
 289  1084.093
 290  1035.904
 291  1065.72
 292  1079.202
 293  1111.786
 294  1118.317
 295  1223.75
 296  1288.794
 297  1254.211
 298  1206.214
 299  1324.189
 300  1401.879
 301  1458.293
 302  1405.589
 303  1300.815
 304  1315.11
 305  1238.401
 306  1267.275
 307  1149.279
 308  1091.088
 309  1102.015
 310  1036.908
 311  1098.158
 312  1151.623
 313  1243.613
 314  1280.217
 315  1338.421
 316  1401.071
 317  1226.86
 318  1093.257
 319  1044.401
 320  1140.982
 321  1215.241
 322  1135.787
 323  1098.311
 324  1059.885
 325  1088.279
 326  1124.355
 327  1116.335
 328  1175.658
 329  1204.595
 330  1220.863
 331  1182.246
 332  1080.392
 333  1035.787
 334  1091.994
 335  1156.742
 336  1179.837
 337  1132.502
 338  1021.505
 339  940.449
 340  906.6249
 341  995.9534
 342  1070.816
 343  1090.667
 344  1153.821
 345  981.2709
 346  1069.209
 347  1016.735
 348  1103.452
 349  1030.921
 350  994.1696
 351  1072.623
 352  1066.335
 353  971.4583
 354  988.6271
 355  1077.293
 356  1209.521
 357  1122.075
 358  1125.351
 359  1174.564
 360  1211.638
 361  1180.315
 362  1073.049
 363  1100.629
 364  1116.065
 365  1103.192
 366  1089.166
 367  1146.045
 368  1195.378
 369  1219.848
 370  1154.299
 371  1155.777
 372  1145.818
 373  1075.849
 374  1001.585
 375  943.9102
 376  1027.293
 377  1045.143
 378  1014.296
 379  1033.967
 380  1052.438
 381  1250.774
 382  1141.297
 383  1186.513
 384  1058.253
 385  1256.193
 386  1136.793
 387  1133.991
 388  1077.634
 389  1141.981
 390  1072.22
 391  1050.305
 392  1056.986
 393  1106.567
 394  1120.055
 395  1196.744
 396  1305.887
 397  1263.475
 398  1195.497
 399  1096.003
 400  1048.86
 401  1014.813
 402  1138.387
 403  1289
 404  1336.792
 405  1266.778
 406  1240.971
 407  1183.275
 408  1093.631
 409  1112.462
 410  1078.459
 411  1090.747
 412  1192.854
 413  1245.677
 414  1208.063
 415  1101.118
 416  1080.374
 417  1139.115
 418  1179.22
 419  1236.266
 420  1291.492
 421  1372.288
 422  1337.254
 423  1258.393
 424  1147.007
 425  1237.361
 426  1272.781
 427  1273.3
 428  1164.765
 429  1128.943
 430  1264.509
 431  1396.448
 432  1439.139
 433  1223.956
 434  1223.288
 435  1260.171
 436  1299.179
 437  1311.296
 438  1357.48
 439  1443.419
 440  1373.571
 441  1309.836
 442  1355.256
 443  1461.688
 444  1435.437
 445  1266.479
 446  1311.29
 447  1338.151
 448  1344.318
 449  1298.48
 450  1364.705
 451  1349.586
 452  1272.394
 453  1234.364
 454  1349.227
 455  1400.745
 456  1405.081
 457  1307.937
 458  1278.927
 459  1250.657
 460  1232.046
 461  1211.756
 462  1135.601
 463  1168.371
 464  1128.661
 465  1082.247
 466  1017.371
 467  1068.943
 468  1168.448
 469  1223.388
 470  1224.366
 471  1225.369
 472  1222.364
 473  1210.142
 474  1219.371
 475  1260.396
 476  1313.045
 477  1326.378
 478  1419.798
 479  1386.161
 480  1451.859
 481  1410.451
 482  1451.957
 483  1367.904
 484  1252.819
 485  1071.654
 486  1033.177
 487  1107.621
 488  1212.291
 489  1182.239
 490  1124.007
 491  1100.074
 492  1169.248
 493  1287.345
 494  1450.107
 495  1393.34
 496  1304.749
 497  1180.823
 498  1219.154
 499  1175.47
 500  1124.697
 501  1190.439
 502  1291.753
 503  1270.505
 504  1252.848
 505  1184.284
 506  1248.334
 507  1082.805
 508  1137.402
 509  1201.203
 510  1340.336
 511  1255.071
 512  1097.655
 513  1167.472
 514  1190.928
 515  1245.304
 516  1089.364
 517  1123.45
 518  1143.058
 519  1188.912
 520  1239.507
 521  1286.072
 522  1363.993
 523  1367.062
 524  1359.079
 525  1417.137
 526  1451.629
 527  1492.164
 528  1468.646
 529  1420.021
 530  1369.907
 531  1349.72
 532  1446.288
 533  1295.272
 534  1184.4
 535  1157.544
 536  1178.155
 537  1152.032
 538  992.2825
 539  1048.299
 540  1220.122
 541  1302.41
 542  1333.68
 543  1283.901
 544  1321.269
 545  1276.108
 546  1195.851
 547  1129.495
 548  952.9282
 549  930.2601
 550  977.4229
 551  1148.592
 552  1129.896
 553  1133.977
 554  1144.345
 555  1213.814
 556  1306.848
 557  1346.492
 558  1465.025
 559  1332.963
 560  1290.42
 561  1179.035
 562  1180.209
 563  1070.709
 564  1089.065
 565  1168.969
 566  1324.794
 567  1425.826
 568  1501.288
 569  1420.098
 570  1298.837
 571  1104.749
 572  1057.155
 573  1118.041
 574  1213.775
 575  1193.062
 576  1131.215
 577  1195.687
 578  1251.645
 579  1195.796
 580  1079.009
 581  1084.707
 582  1100.683
 583  1134.925
 584  1166.551
 585  1231.186
 586  1238.984
 587  1257.409
 588  1265.661
 589  1309.832
 590  1341.691
 591  1502.884
 592  1483.162
 593  1438.524
 594  1576.795
 595  1786.3
 596  1949.1
 597  1903.414
 598  1903.498
 599  1838.868
 600  1890.942
 601  1825.202
 602  1907.61
 603  1868.887
 604  1916.722
 605  1802.087
 606  1533.626
 607  1390.739
 608  1351.964
 609  1397.702
 610  1377.402
 611  1296.981
 612  1283.303
 613  1125.982
 614  1126.523
 615  1087.759
 616  1094.396
 617  891.6953
 618  805.4877
 619  848.7934
 620  858.0649
 621  1072.478
 622  1179.946
 623  1301.121
 624  1236.805
 625  1082.05
 626  1080.987
 627  1037.412
 628  1098.677
 629  1104.675
 630  1168.421
 631  1140.425
 632  964.3137
 633  921.0493
 634  977.0112
 635  996.8097
 636  1000.709
 637  961.8519
 638  1015.042
 639  1013.648
 640  1082.093
 641  1044.161
 642  994.1249
 643  934.5882
 644  914.157
 645  1023.212
 646  1082.933
 647  1080.478
 648  1026.521
 649  900.6894
 650  862.2173
 651  842.3913
 652  1029.144
 653  1071.265
 654  1110.052
 655  1057.179
 656  1046.54
 657  973.8239
 658  975.1901
 659  995.0218
 660  1036.886
 661  1040.55
 662  986.3396
 663  980.1881
 664  1052.038
 665  1040.14
 666  1206.012
 667  1185.708
 668  1152.111
 669  1081.464
 670  1066.695
 671  1135.899
 672  1251.783
 673  1295.389
 674  1288.767
 675  1192.672
 676  1246.619
 677  1266.053
 678  1323.239
 679  1298.654
 680  1389.379
 681  1313.589
 682  1220.241
 683  1137.42
 684  1110.381
 685  1204.237
 686  1224.925
 687  1274.513
 688  1314.605
 689  1355.676
 690  1424.191
 691  1412.667
 692  1390.901
 693  1237.73
 694  1102.603
 695  1147.162
 696  1245.324
 697  1321.89
 698  1218.922
 699  1147.244
 700  1250.077
 701  1300.491
 702  1280.434
 703  1169.256
 704  1294.432
 705  1361.573
 706  1448.193
 707  1475.969
 708  1367.296
 709  1189.514
 710  1011.578
 711  995.2613
 712  1066.744
 713  1199.127
 714  1199.554
 715  1172.775
 716  1140.143
 717  1205.583
 718  1099.475
 719  1015.776
 720  1052.227
 721  1203.141
 722  1344.86
 723  1358.814
 724  1278.235
 725  1192.568
 726  1110.688
 727  1123.519
 728  1127.428
 729  1142.051
 730  1144.891
 731  1140.318
 732  1132.328
 733  1108.245
 734  1164.686
 735  1288.562
 736  1271.493
 737  1261.185
 738  1158.442
 739  1069.869
 740  1056.369
 741  1075.149
 742  1128.846
 743  1211.761
 744  1234.75
 745  1287.664
 746  1245.641
 747  1109.366
 748  1029.509
 749  976.4989
 750  871.2931
 751  761.2234
 752  799.4335
 753  1038.891
 754  1143.585
 755  1164.406
 756  1015.459
 757  925.2959
 758  964.7333
 759  1043.893
 760  1118.393
 761  1114.207
 762  1057.343
 763  1137.541
 764  1175.693
 765  1216.097
 766  1103.78
 767  1107.49
 768  1172.959
 769  1131.25
 770  1036.386
 771  1039.068
 772  1251.968
 773  1377.971
 774  1335.181
 775  1325.818
 776  1363.406
 777  1375.996
 778  1257.169
 779  1219.959
 780  1229.591
 781  1232.654
 782  1076.282
 783  1058.307
 784  1085.567
 785  1206.392
 786  1227.716
 787  1241.045
 788  1120.233
 789  1000.874
 790  985.7751
 791  1109.709
 792  1149.73
 793  1056.149
 794  1110.7
 795  1140.696
 796  1211.892
 797  1202.477
 798  1256.842
 799  1345.053
 800  1273.073
 801  1229.085
 802  1057.141
 803  1136.654
 804  1183.105
 805  1249.849
 806  1238.292
 807  1188.376
 808  1264.53
 809  1284.897
 810  1320.474
 811  1241.933
 812  1346.908
 813  1409.447
 814  1420.069
 815  1246.981
 816  1167.305
 817  1099.657
 818  1162.437
 819  1151.957
 820  1044.52
 821  874.0746
 822  897.0021
 823  1076.968
 824  1170.658
 825  1172.899
 826  1040.665
 827  1076.338
 828  1179.75
 829  1253.201
 830  1214.823
 831  1217.069
 832  1207.692
 833  1186.062
 834  1105.514
 835  1031.272
 836  1021.033
 837  1190.56
 838  1203.846
 839  1188.526
 840  1058.32
 841  1082.365
 842  1104.73
 843  1163.413
 844  1263.91
 845  1276.706
 846  1199.907
 847  1093.046
 848  1140.733
 849  1144.549
 850  1230.811
 851  1251.604
 852  1251.29
 853  1220.023
 854  1203.325
 855  1220.105
 856  1152.458
 857  944.4803
 858  821.0275
 859  861.4639
 860  907.7607
 861  1104.747
 862  1072.756
 863  1182.561
 864  1265.529
 865  1282.449
 866  1233.962
 867  1218.369
 868  1304.605
 869  1268.542
 870  1147.21
 871  1105.325
 872  1034.653
 873  1103.932
 874  1188.865
 875  1297.179
 876  1342.272
 877  1254.834
 878  1324.113
 879  1296.536
 880  1319.118
 881  1320.858
 882  1424.767
 883  1394.51
 884  1253.589
 885  1089.696
 886  1123.653
 887  1230.771
 888  1259.591
 889  1281.505
 890  1376.261
 891  1466.791
 892  1429.782
 893  1319.67
 894  1274.075
 895  1243.157
 896  1141.827
 897  1093.002
 898  1164.547
 899  1225.431
 900  1199.576
 901  1124.905
 902  1181.795
 903  1146.229
 904  1133.076
 905  1190.427
 906  1179.345
 907  1190.231
 908  1163.733
 909  1197.521
 910  1263.012
 911  1252.549
 912  1241.869
 913  1215.332
 914  1254.902
 915  1268.195
 916  1215.657
 917  1140.321
 918  1139.223
 919  1215.811
 920  1379.998
 921  1319.12
 922  1289.075
 923  1181.761
 924  1215.668
 925  1232.424
 926  1287.975
 927  1315.771
 928  1307.33
 929  1209.962
 930  1167.815
 931  1183.579
 932  1210.316
 933  1117.643
 934  1067.152
 935  1149.177
 936  1170.362
 937  1119.68
 938  1131.861
 939  1176.475
 940  1175.524
 941  1036.929
 942  1090.239
 943  1153.797
 944  1153.253
 945  1076.057
 946  1105.402
 947  1222.6
 948  1299.327
 949  1211.298
 950  1231.081
 951  1174.815
 952  1076.17
 953  911.5858
 954  929.3747
 955  1043.18
 956  1112.757
 957  1108.194
 958  1234.156
 959  1274.394
 960  1307.573
 961  1313.947
 962  1282.868
 963  1293.461
 964  1254.648
 965  1226.264
 966  1122.281
 967  1014.104
 968  1145.123
 969  1186.216
 970  1248.362
 971  1220.804
 972  1249.725
 973  1260.448
 974  1204.91
 975  1224.975
 976  1241.557
 977  1294.832
 978  1263.359
 979  1344.894
 980  1355.778
 981  1337.304
 982  1207.569
 983  1119.342
 984  989.3501
 985  960.3275
 986  869.4576
 987  881.1127
 988  939.2574
 989  1059.25
 990  1017.721
 991  1050.211
 992  1159.092
 993  1284.877
 994  1229.723
 995  1251.941
 996  1279.634
 997  1247.148
 998  1123.514
 999  1037.81
1000  944.3491
1001  989.9995
1002  981.223
1003  970.0355
1004  870.7936
1005  906.9408
1006  993.229
1007  1043.048
1008  1025.807
1009  1016.207
1010  1038.736
1011  1002.354
1012  987.6279
1013  997.4405
1014  1057.321
1015  1155.547
1016  1155.511
1017  1198.823
1018  1146.633
1019  1191.213
1020  1196.82
1021  1212.647
1022  1176.038
1023  1218.595
