# Input file       =  1209273393.117833_cleaned.dat
# Candidate        =  PSR_0332+5434
# Telescope        =  AR
# Epoch_topo       =  58240.220047660107
# Epoch_bary       =  N/A
# T_sample         =  0.002
# Data Folded      =  7208960
# Data Avg         =  0.0489274344267577
# Data StdDev      =  1.00002819071047 
# Profile Bins     =  512
# Profile Avg      =  688.76439236444  
# Profile StdDev   =  118.66252088     
# Reduced chi-sqr  =  1.809
# Prob(Noise)      <  3.12e-26   (~10.5 sigma)
# P_topo (ms)      =  714.545621527404  +/- 8.65e-05
# P'_topo (s/s)    =  -0                +/- 4.65e-11
# P''_topo (s/s^2) =  0                 +/- 2.09e-14
# P_bary (ms)      =  N/A
# P'_bary (s/s)    =  N/A
# P''_bary (s/s^2) =  N/A
# P_orb (s)        =  N/A
# asin(i)/c (s)    =  N/A
# eccentricity     =  N/A
# w (rad)          =  N/A
# T_peri           =  N/A
######################################################
   0  713.7153
   1  687.2003
   2  687.0327
   3  682.0519
   4  643.7827
   5  625.2073
   6  521.8964
   7  566.395
   8  647.4684
   9  673.5529
  10  721.2443
  11  662.4929
  12  876.6521
  13  858.2151
  14  734.4915
  15  617.1702
  16  633.8187
  17  663.7313
  18  636.0873
  19  654.8196
  20  683.1981
  21  753.0934
  22  637.5167
  23  589.7543
  24  547.9171
  25  601.6904
  26  766.6921
  27  769.9444
  28  859.9861
  29  727.1906
  30  684.0349
  31  754.3034
  32  738.3792
  33  707.6761
  34  618.9313
  35  689.8127
  36  627.415
  37  529.4385
  38  427.841
  39  561.2992
  40  608.5807
  41  558.81
  42  631.072
  43  741.2723
  44  869.8688
  45  664.6456
  46  637.9213
  47  677.8131
  48  632.9512
  49  612.0849
  50  588.0308
  51  706.149
  52  725.9064
  53  651.0568
  54  527.9457
  55  586.1581
  56  549.9214
  57  537.3946
  58  660.2956
  59  724.5712
  60  840.2487
  61  728.1786
  62  536.9242
  63  527.241
  64  660.3476
  65  734.2217
  66  728.0176
  67  738.0024
  68  705.3854
  69  570.7688
  70  555.8256
  71  541.3798
  72  561.1368
  73  408.1648
  74  534.7811
  75  621.6878
  76  665.1653
  77  616.6806
  78  585.8868
  79  623.7526
  80  596.1811
  81  621.5038
  82  701.5284
  83  691.9997
  84  736.941
  85  614.4927
  86  618.6163
  87  625.6371
  88  711.319
  89  644.6873
  90  640.6655
  91  617.7727
  92  808.6895
  93  731.0994
  94  623.012
  95  577.4818
  96  596.4647
  97  694.3729
  98  586.4003
  99  418.476
 100  499.7306
 101  549.6822
 102  539.8891
 103  553.4902
 104  499.1952
 105  390.7327
 106  556.2565
 107  581.5842
 108  545.6118
 109  663.0032
 110  704.488
 111  717.3537
 112  608.8754
 113  623.1255
 114  524.4264
 115  637.7993
 116  683.1841
 117  741.6367
 118  714.2035
 119  642.9199
 120  511.2627
 121  595.3314
 122  529.9992
 123  496.3984
 124  642.4027
 125  763.9077
 126  692.8201
 127  653.2451
 128  742.0663
 129  697.7302
 130  629.6629
 131  559.954
 132  531.9561
 133  556.4009
 134  528.6248
 135  532.6577
 136  503.7831
 137  539.0435
 138  595.8729
 139  589.0889
 140  582.2982
 141  647.2436
 142  657.9231
 143  671.4046
 144  648.1071
 145  598.2526
 146  578.915
 147  584.5983
 148  641.2992
 149  457.7797
 150  506.4042
 151  676.5894
 152  625.8214
 153  616.2466
 154  580.3809
 155  377.915
 156  314.0959
 157  404.6352
 158  568.4703
 159  591.6317
 160  620.3479
 161  744.5135
 162  626.1348
 163  582.7606
 164  560.6815
 165  582.9114
 166  514.5711
 167  676.8347
 168  677.4072
 169  537.9102
 170  631.4678
 171  662.7708
 172  624.0615
 173  644.2222
 174  648.8547
 175  649.8387
 176  825.6199
 177  809.2288
 178  728.5943
 179  655.3779
 180  748.1896
 181  663.9781
 182  552.024
 183  636.5784
 184  673.7496
 185  775.4752
 186  660.7413
 187  616.6277
 188  661.3578
 189  718.1134
 190  643.6585
 191  754.39
 192  826.7297
 193  865.9939
 194  918.2267
 195  834.8115
 196  824.4489
 197  775.2802
 198  698.4214
 199  607.6808
 200  599.7183
 201  682.6459
 202  486.016
 203  510.7311
 204  597.0361
 205  588.9796
 206  629.184
 207  694.3475
 208  761.0458
 209  810.5715
 210  824.6588
 211  688.4107
 212  773.7208
 213  559.0905
 214  571.7033
 215  636.3224
 216  689.0317
 217  689.1892
 218  655.263
 219  698.8961
 220  642.6257
 221  610.3797
 222  605.0576
 223  670.7758
 224  843.1234
 225  768.394
 226  795.6906
 227  773.1111
 228  726.3318
 229  770.3066
 230  751.3339
 231  690.7061
 232  678.761
 233  773.5953
 234  732.1569
 235  671.3323
 236  709.7403
 237  649.5963
 238  580.1219
 239  587.1414
 240  676.7484
 241  757.7585
 242  725.9097
 243  748.774
 244  699.9321
 245  630.3723
 246  647.5419
 247  710.5714
 248  626.738
 249  557.4767
 250  678.545
 251  672.4841
 252  775.1396
 253  674.9752
 254  610.3925
 255  643.7697
 256  705.8969
 257  800.1656
 258  892.7912
 259  964.716
 260  824.8542
 261  689.1595
 262  671.8876
 263  856.2396
 264  754.1165
 265  654.1927
 266  651.78
 267  647.2774
 268  714.1205
 269  633.8748
 270  633.3805
 271  758.3119
 272  634.0764
 273  574.6786
 274  720.0698
 275  728.7331
 276  786.4399
 277  761.7468
 278  822.4634
 279  727.4152
 280  612.2062
 281  760.9923
 282  628.4493
 283  681.0851
 284  798.6967
 285  662.5215
 286  754.1644
 287  771.8097
 288  738.3159
 289  722.2521
 290  748.3119
 291  907.7726
 292  858.5368
 293  812.2178
 294  668.139
 295  737.9747
 296  739.7571
 297  715.8138
 298  791.0093
 299  786.5182
 300  755.053
 301  764.0121
 302  763.7408
 303  765.8475
 304  823.4081
 305  859.8516
 306  795.1455
 307  882.9185
 308  1007.016
 309  868.9944
 310  752.0109
 311  682.5276
 312  627.0145
 313  718.8598
 314  841.3357
 315  760.7699
 316  695.9459
 317  754.5784
 318  759.9537
 319  709.7568
 320  807.1603
 321  646.1417
 322  728.2228
 323  896.2468
 324  830.652
 325  759.2534
 326  738.658
 327  817.4978
 328  813.8973
 329  781.0181
 330  754.623
 331  801.0995
 332  739.4351
 333  853.3215
 334  773.58
 335  711.7237
 336  650.8632
 337  794.8288
 338  759.5247
 339  729.9865
 340  741.6592
 341  763.8675
 342  816.1566
 343  863.8707
 344  745.4283
 345  761.3258
 346  707.4512
 347  676.8283
 348  645.2674
 349  722.463
 350  737.6685
 351  484.4099
 352  606.1795
 353  672.1562
 354  553.5019
 355  603.368
 356  777.4261
 357  793.3472
 358  801.9268
 359  732.8423
 360  734.5946
 361  751.7015
 362  842.2973
 363  702.2469
 364  522.6923
 365  685.3928
 366  723.2195
 367  714.4856
 368  708.1926
 369  791.8676
 370  708.1769
 371  804.4052
 372  784.2361
 373  808.6993
 374  911.7897
 375  783.2816
 376  800.3226
 377  754.5566
 378  761.3538
 379  588.9099
 380  600.6064
 381  669.9051
 382  642.1721
 383  689.8036
 384  605.9319
 385  610.5818
 386  569.2332
 387  720.8097
 388  725.4579
 389  740.1434
 390  840.2014
 391  817.9553
 392  697.4104
 393  644.8024
 394  672.0786
 395  689.7274
 396  668.0731
 397  708.2109
 398  745.3431
 399  705.8181
 400  677.0278
 401  476.5208
 402  560.613
 403  654.9345
 404  692.3248
 405  695.8065
 406  754.0356
 407  708.279
 408  703.0285
 409  784.7921
 410  810.334
 411  774.0583
 412  674.0752
 413  506.1982
 414  579.686
 415  607.6811
 416  671.1786
 417  579.3979
 418  487.8284
 419  534.6603
 420  603.889
 421  637.7064
 422  675.9443
 423  689.0157
 424  678.6239
 425  777.5228
 426  830.3871
 427  780.1561
 428  768.6108
 429  775.7395
 430  902.7072
 431  702.9036
 432  711.5835
 433  695.1613
 434  664.178
 435  765.8535
 436  827.0776
 437  662.283
 438  706.226
 439  789.451
 440  756.6445
 441  904.5651
 442  830.4333
 443  710.8499
 444  714.5926
 445  762.6933
 446  745.0178
 447  689.1849
 448  760.2292
 449  698.8262
 450  767.358
 451  666.9338
 452  743.4891
 453  723.2005
 454  762.1359
 455  874.8151
 456  779.1596
 457  904.4537
 458  1068.759
 459  1163.11
 460  1225.258
 461  1208.623
 462  1281.011
 463  1136.677
 464  929.825
 465  832.4108
 466  643.9796
 467  550.6888
 468  695.5591
 469  785.5135
 470  734.5305
 471  764.6462
 472  823.9357
 473  860.5998
 474  859.2327
 475  788.1018
 476  702.2822
 477  784.0123
 478  627.3864
 479  667.0023
 480  792.1443
 481  687.761
 482  700.6671
 483  620.4525
 484  479.4095
 485  461.2766
 486  565.897
 487  595.6347
 488  592.9622
 489  714.2791
 490  743.1606
 491  661.341
 492  536.3157
 493  512.2155
 494  447.7756
 495  581.9351
 496  658.2412
 497  796.1055
 498  746.9814
 499  761.0298
 500  636.7516
 501  597.9958
 502  482.6151
 503  479.9999
 504  564.0021
 505  720.1149
 506  776.9771
 507  747.6349
 508  578.3864
 509  472.0488
 510  614.1625
 511  789.9499
