# Input file       =  1209906091.119043_cleaned.dat
# Candidate        =  PSR_0332+5434
# Telescope        =  AR
# Epoch_topo       =  58247.542941192631
# Epoch_bary       =  N/A
# T_sample         =  0.002
# Data Folded      =  7340032
# Data Avg         =  0.0788968482410097
# Data StdDev      =  1.00013710296559 
# Profile Bins     =  512
# Profile Avg      =  1130.8947349932  
# Profile StdDev   =  119.749452131133 
# Reduced chi-sqr  =  1.470
# Prob(Noise)      <  2.04e-11   (~6.6 sigma)
# P_topo (ms)      =  714.539175935785  +/- 0.000356
# P'_topo (s/s)    =  -0                +/- 1.88e-10
# P''_topo (s/s^2) =  0                 +/- 8.29e-14
# P_bary (ms)      =  N/A
# P'_bary (s/s)    =  N/A
# P''_bary (s/s^2) =  N/A
# P_orb (s)        =  N/A
# asin(i)/c (s)    =  N/A
# eccentricity     =  N/A
# w (rad)          =  N/A
# T_peri           =  N/A
######################################################
   0  1713.566
   1  1603.766
   2  1423.476
   3  1173.94
   4  1066.747
   5  1091.973
   6  1133.498
   7  1193.726
   8  1223.406
   9  1178.469
  10  1078.446
  11  1094.045
  12  1149.505
  13  1062.473
  14  1082.102
  15  1106.278
  16  1066.267
  17  990.5998
  18  1071.737
  19  1116.487
  20  1083.316
  21  949.6257
  22  1061.212
  23  1088.513
  24  1039.085
  25  1046.193
  26  1153.522
  27  1248.888
  28  1251.707
  29  1193.428
  30  1092.152
  31  1102.322
  32  1053.623
  33  943.5251
  34  1059.722
  35  1046.681
  36  989.4093
  37  1129.209
  38  1082.627
  39  1121.845
  40  1128.573
  41  1130.902
  42  1083.196
  43  1090.42
  44  953.885
  45  946.5272
  46  1085.815
  47  1100.749
  48  1153.029
  49  1106.286
  50  1169.197
  51  1118.629
  52  1056.035
  53  1156.085
  54  1048.378
  55  1068.102
  56  1090.342
  57  1051.155
  58  1117.358
  59  1170.026
  60  1174.401
  61  1028.718
  62  1093.069
  63  1102.753
  64  1187.562
  65  1127.358
  66  1026.378
  67  1020.987
  68  936.2899
  69  966.2835
  70  1022.678
  71  1007.116
  72  974.679
  73  1042.042
  74  1054.641
  75  1150.699
  76  1091.288
  77  1041.288
  78  969.7706
  79  1011.208
  80  1160.022
  81  1167.265
  82  1204.886
  83  1145.882
  84  1012.055
  85  994.5373
  86  1007.92
  87  1017.352
  88  1125.799
  89  1117.49
  90  1140.842
  91  1074.574
  92  1033.747
  93  969.6418
  94  1081.126
  95  1172.797
  96  1103.825
  97  1049.414
  98  937.4753
  99  1024.784
 100  997.1696
 101  923.9109
 102  970.7662
 103  933.8728
 104  1124.099
 105  1034.962
 106  947.4164
 107  994.1323
 108  985.8889
 109  1079.601
 110  1134.928
 111  1102.563
 112  1131.703
 113  1143.842
 114  1021.112
 115  1064.336
 116  1115.464
 117  1139.268
 118  1119.456
 119  1148.079
 120  1118.263
 121  1162.677
 122  1185.217
 123  1062.65
 124  1092.056
 125  1142.633
 126  1164.324
 127  1236.335
 128  1211.617
 129  1210.378
 130  1275.957
 131  1158.812
 132  1128.653
 133  1097.713
 134  1116.202
 135  1102.277
 136  1124.231
 137  1102.624
 138  987.6857
 139  1088.022
 140  1021.872
 141  1008.634
 142  1016.87
 143  1005.742
 144  1005.96
 145  1078.193
 146  1130.172
 147  930.5445
 148  1031.92
 149  1034.868
 150  1046.958
 151  980.1588
 152  1134.519
 153  1148.721
 154  1138.048
 155  1097.575
 156  1166.259
 157  1120.632
 158  989.6736
 159  1093.278
 160  1181.45
 161  1147.304
 162  1003.938
 163  1025.73
 164  1059.424
 165  1119.421
 166  1123.819
 167  1031.427
 168  1081.113
 169  1135.5
 170  1191.526
 171  1179.505
 172  1240.414
 173  1188.355
 174  1043.589
 175  1022.651
 176  1071.197
 177  1265.194
 178  1270.686
 179  1152.986
 180  1117.465
 181  1154.853
 182  1188.063
 183  1165.49
 184  1172.835
 185  1089.98
 186  1211.221
 187  1141.397
 188  1189.677
 189  1142.372
 190  1286.107
 191  1351.544
 192  1232.625
 193  1226.625
 194  1172.518
 195  1165.506
 196  1155.763
 197  1266.276
 198  1303.39
 199  1207.292
 200  1161.48
 201  1133.028
 202  1210.16
 203  1148.565
 204  1235.303
 205  1241.242
 206  1171.375
 207  1303.514
 208  1238.472
 209  1243.502
 210  1336.5
 211  1325.19
 212  1308.001
 213  1269.376
 214  1324.76
 215  1364.465
 216  1393.473
 217  1348.412
 218  1204.979
 219  1140.386
 220  1202.291
 221  1253.305
 222  1281.336
 223  1261.435
 224  1223.484
 225  1158.362
 226  1232.371
 227  1235.251
 228  1141.44
 229  1119.389
 230  1255.859
 231  1271.148
 232  1256.433
 233  1205.394
 234  1155.554
 235  1140.563
 236  1296.686
 237  1284.671
 238  1355.021
 239  1175.848
 240  1212.921
 241  1252.832
 242  1162.276
 243  1187.909
 244  1198.233
 245  1129.306
 246  1176.325
 247  1190.736
 248  1092.066
 249  1094.233
 250  1127.647
 251  1179.988
 252  1138.807
 253  1251.427
 254  1278.066
 255  1172.25
 256  1144.317
 257  1169.391
 258  1250.782
 259  1286.868
 260  1208.778
 261  1175.349
 262  1179.392
 263  1182.904
 264  1262.809
 265  1370.556
 266  1295.091
 267  1136.119
 268  1009.552
 269  1159.995
 270  1318.412
 271  1248.872
 272  1207.582
 273  1304.857
 274  1253.213
 275  1340.654
 276  1245.442
 277  1083.346
 278  1043.38
 279  1102.92
 280  1227.18
 281  1206.471
 282  1215.6
 283  1230.133
 284  1248.699
 285  1170.721
 286  1230.233
 287  1205.018
 288  1161.013
 289  1133.115
 290  1180.677
 291  1136.62
 292  1224.243
 293  1259.392
 294  1343.332
 295  1314.391
 296  1225.605
 297  1309.584
 298  1415.598
 299  1422.103
 300  1279.304
 301  1235.754
 302  1253.32
 303  1131.14
 304  1231.03
 305  1367.932
 306  1246.267
 307  1170.985
 308  1131.52
 309  1217.077
 310  1278.264
 311  1188.283
 312  1161.576
 313  1186.565
 314  1261.03
 315  1166.488
 316  1164.705
 317  1150.87
 318  1171.125
 319  1197.776
 320  1194.662
 321  1219.791
 322  1202.828
 323  1190.274
 324  1134.462
 325  1051.521
 326  1126.38
 327  1205.898
 328  1191.061
 329  1110.451
 330  1127.714
 331  1206.615
 332  1263.353
 333  1072.814
 334  1071.287
 335  1111.183
 336  1187.616
 337  1170.627
 338  1226.749
 339  1240.148
 340  1112.277
 341  1147.794
 342  1243.05
 343  1123.94
 344  1060.136
 345  1064.67
 346  1153.235
 347  1142.73
 348  1126.486
 349  1142.568
 350  1080.407
 351  1111.066
 352  1047.408
 353  1064.604
 354  1101.936
 355  1106.106
 356  1163.604
 357  1058.595
 358  996.8446
 359  1105.159
 360  1094.415
 361  1169.373
 362  1083.201
 363  1076.98
 364  1181.295
 365  1042.788
 366  1028.321
 367  1101.371
 368  1066.466
 369  1064.406
 370  1102.804
 371  1186.054
 372  1102.26
 373  1132.502
 374  1144.167
 375  1144.607
 376  1086.876
 377  1110.397
 378  1170.684
 379  1205.198
 380  1173.765
 381  1109.003
 382  1064.909
 383  1133.03
 384  1205.715
 385  1085.245
 386  1085.039
 387  1072.843
 388  1149.232
 389  1106.605
 390  1118.443
 391  1064.281
 392  1084.584
 393  1138.489
 394  1073.311
 395  1151.9
 396  1203.004
 397  1200.538
 398  1118.355
 399  1002.692
 400  974.1946
 401  914.0945
 402  1075.89
 403  1032.226
 404  1044.905
 405  971.7976
 406  962.1299
 407  1064.589
 408  1025.562
 409  1037.133
 410  990.8021
 411  1022.807
 412  1032.504
 413  1035.644
 414  947.2875
 415  912.1097
 416  1032.361
 417  1098.239
 418  1095.007
 419  1102.597
 420  1108.397
 421  1058.07
 422  1028.748
 423  1112.636
 424  1115.702
 425  1027.128
 426  1043.978
 427  1107.439
 428  967.8754
 429  963.7805
 430  1119.673
 431  1065.175
 432  1037.516
 433  1054.004
 434  1032.205
 435  1036.882
 436  1105.163
 437  1118.249
 438  1103.482
 439  1091.169
 440  1065.933
 441  1074.43
 442  1102.845
 443  1034.45
 444  1066.774
 445  1184.607
 446  1192.976
 447  1210.776
 448  1045.563
 449  956.8033
 450  1035.047
 451  1078.592
 452  1119.848
 453  1077.665
 454  1130.061
 455  1169.838
 456  1111.738
 457  1129.045
 458  1120.793
 459  1239.483
 460  1144.787
 461  1101.654
 462  1105.661
 463  1090.04
 464  1204.239
 465  1188.393
 466  1064.019
 467  1067.057
 468  1079.04
 469  1055.677
 470  1065.427
 471  1029.505
 472  1008.279
 473  1003.032
 474  1088.005
 475  1030.071
 476  1038.74
 477  1113.858
 478  981.9597
 479  879.9218
 480  1024.157
 481  1151.442
 482  1137.177
 483  1102.293
 484  1102.384
 485  1054.06
 486  982.4161
 487  1054.723
 488  1060.478
 489  1141.478
 490  1180.202
 491  1055.663
 492  1087.698
 493  1074.325
 494  1116.707
 495  1119.979
 496  1083.032
 497  1036.714
 498  905.8691
 499  940.6354
 500  1106.222
 501  1049.266
 502  1033.099
 503  1070.023
 504  1106.431
 505  1134.645
 506  1057.812
 507  1080.362
 508  1229.624
 509  1346.116
 510  1571.452
 511  1798.107
