# Input file       =  1209359564.108885_cleaned.dat
# Candidate        =  PSR_0332+5434
# Telescope        =  AR
# Epoch_topo       =  58241.217397093576
# Epoch_bary       =  N/A
# T_sample         =  0.002
# Data Folded      =  7143424
# Data Avg         =  0.0503773103543276
# Data StdDev      =  1.00006679237984 
# Profile Bins     =  512
# Profile Avg      =  702.836220129391 
# Profile StdDev   =  118.126473903228 
# Reduced chi-sqr  =  1.769
# Prob(Noise)      <  2.84e-24   (~10.1 sigma)
# P_topo (ms)      =  714.544714805534  +/- 0.000213
# P'_topo (s/s)    =  -0                +/- 1.16e-10
# P''_topo (s/s^2) =  0                 +/- 5.25e-14
# P_bary (ms)      =  N/A
# P'_bary (s/s)    =  N/A
# P''_bary (s/s^2) =  N/A
# P_orb (s)        =  N/A
# asin(i)/c (s)    =  N/A
# eccentricity     =  N/A
# w (rad)          =  N/A
# T_peri           =  N/A
######################################################
   0  1407.788
   1  1510.911
   2  1307.431
   3  1011.303
   4  880.3738
   5  677.7738
   6  704.2883
   7  741.6625
   8  737.9595
   9  804.0338
  10  775.5388
  11  767.3841
  12  606.8324
  13  718.0215
  14  868.7987
  15  691.6288
  16  665.635
  17  740.512
  18  672.7738
  19  650.2704
  20  860.8132
  21  772.3747
  22  695.5425
  23  685.2132
  24  674.1664
  25  659.4554
  26  643.6393
  27  671.7801
  28  715.2595
  29  782.8279
  30  811.3775
  31  679.2707
  32  629.8809
  33  706.0312
  34  786.7351
  35  733.6074
  36  744.0392
  37  667.4574
  38  631.9814
  39  624.675
  40  658.1126
  41  640.8585
  42  606.4742
  43  480.2521
  44  446.6379
  45  481.1564
  46  578.6564
  47  563.9058
  48  687.5757
  49  654.9945
  50  666.1478
  51  650.743
  52  845.4597
  53  843.5329
  54  619.8986
  55  683.2275
  56  702.9091
  57  656.651
  58  591.7116
  59  596.4466
  60  670.4308
  61  691.3828
  62  633.673
  63  644.3037
  64  610.6538
  65  637.9216
  66  654.1541
  67  546.4681
  68  680.2933
  69  714.0532
  70  683.2501
  71  657.6069
  72  705.0814
  73  554.2124
  74  593.1256
  75  653.7562
  76  685.3211
  77  616.6826
  78  603.6215
  79  578.5121
  80  606.3366
  81  769.7329
  82  747.5732
  83  556.4205
  84  659.6676
  85  636.6642
  86  610.8
  87  707.3052
  88  723.7885
  89  642.5742
  90  540.2941
  91  572.4902
  92  544.9206
  93  639.1653
  94  759.7147
  95  634.5085
  96  634.7388
  97  613.9893
  98  593.8201
  99  556.5853
 100  644.5579
 101  681.6133
 102  798.5162
 103  819.3543
 104  699.3751
 105  661.227
 106  551.9581
 107  504.3951
 108  534.5182
 109  494.6986
 110  448.0559
 111  588.2954
 112  641.2766
 113  626.2089
 114  560.2471
 115  639.944
 116  614.1345
 117  736.1482
 118  626.2208
 119  670.9965
 120  753.3951
 121  644.8237
 122  560.4996
 123  505.3424
 124  625.8546
 125  627.1344
 126  673.6202
 127  744.926
 128  670.2472
 129  751.7026
 130  638.4204
 131  626.7134
 132  618.9108
 133  592.4045
 134  645.4345
 135  594.9602
 136  543.1042
 137  643.8828
 138  699.5139
 139  527.2675
 140  559.4318
 141  672.657
 142  745.5634
 143  614.553
 144  607.3563
 145  632.0449
 146  525.372
 147  717.7646
 148  729.0145
 149  669.0602
 150  749.4342
 151  803.2817
 152  778.8632
 153  720.2893
 154  687.4059
 155  648.7539
 156  628.4302
 157  556.6986
 158  665.8502
 159  644.1765
 160  523.6457
 161  527.5221
 162  571.868
 163  685.7215
 164  635.6805
 165  642.835
 166  721.7491
 167  815.9304
 168  845.5118
 169  677.2464
 170  672.9166
 171  702.262
 172  687.3208
 173  626.387
 174  590.0264
 175  671.1795
 176  793.3052
 177  743.4422
 178  679.4561
 179  874.72
 180  935.1282
 181  678.8041
 182  677.4498
 183  758.68
 184  909.0772
 185  758.6014
 186  862.1743
 187  911.3759
 188  656.6774
 189  616.5837
 190  666.2857
 191  677.3961
 192  633.4448
 193  689.0477
 194  804.9367
 195  746.5213
 196  720.4751
 197  758.2917
 198  690.4794
 199  710.619
 200  770.9915
 201  763.9289
 202  787.181
 203  876.8132
 204  807.0986
 205  759.6862
 206  771.6714
 207  769.9883
 208  716.2661
 209  720.7368
 210  756.978
 211  760.2029
 212  649.8798
 213  724.7868
 214  754.2907
 215  718.7427
 216  682.918
 217  622.9935
 218  681.0338
 219  785.3557
 220  720.3461
 221  704.3008
 222  792.7618
 223  773.0161
 224  739.4786
 225  706.8622
 226  728.603
 227  814.0522
 228  800.8194
 229  770.0769
 230  725.6016
 231  680.9269
 232  762.2363
 233  756.5286
 234  759.0751
 235  774.4567
 236  821.8535
 237  883.1967
 238  818.3781
 239  779.446
 240  804.6706
 241  726.829
 242  747.0452
 243  611.3358
 244  734.0628
 245  680.3868
 246  755.2891
 247  805.7806
 248  771.9141
 249  790.5245
 250  882.384
 251  878.9576
 252  722.7801
 253  767.7358
 254  705.8808
 255  589.41
 256  634.0367
 257  750.1209
 258  733.5241
 259  699.1457
 260  715.3665
 261  662.4365
 262  749.5018
 263  608.949
 264  609.113
 265  779.6917
 266  765.3132
 267  728.6503
 268  769.9177
 269  781.2904
 270  690.507
 271  678.6859
 272  747.114
 273  613.9938
 274  634.8491
 275  544.0319
 276  614.3593
 277  748.7815
 278  703.424
 279  644.7565
 280  573.6516
 281  511.708
 282  587.8923
 283  633.4944
 284  717.3918
 285  725.1215
 286  726.5672
 287  639.16
 288  594.3926
 289  582.4474
 290  631.4641
 291  690.9186
 292  645.7689
 293  632.0363
 294  733.7828
 295  702.0674
 296  547.0961
 297  641.3747
 298  700.5461
 299  782.7614
 300  880.8021
 301  779.7822
 302  699.1566
 303  640.7283
 304  628.9434
 305  780.3365
 306  658.9446
 307  637.8292
 308  727.3575
 309  755.2803
 310  776.8545
 311  668.0958
 312  535.1794
 313  540.9935
 314  576.0007
 315  760.712
 316  728.7319
 317  679.5919
 318  693.8692
 319  774.126
 320  729.0952
 321  630.0125
 322  679.3318
 323  713.3734
 324  584.9662
 325  605.0042
 326  703.0667
 327  747.8287
 328  646.6522
 329  678.4119
 330  634.352
 331  697.2726
 332  728.5322
 333  784.7813
 334  777.8823
 335  727.7159
 336  792.2166
 337  704.9186
 338  654.2303
 339  791.6226
 340  832.2662
 341  699.8334
 342  738.5975
 343  805.7786
 344  727.2447
 345  600.894
 346  685.0295
 347  718.0693
 348  887.6669
 349  931.2779
 350  796.8327
 351  758.54
 352  790.6271
 353  611.5239
 354  604.5773
 355  614.9515
 356  628.2752
 357  744.4158
 358  766.0801
 359  723.316
 360  771.5135
 361  849.1494
 362  802.8782
 363  783.9852
 364  783.5376
 365  773.0197
 366  737.4391
 367  701.3768
 368  731.8552
 369  759.8581
 370  653.6896
 371  671.3613
 372  590.8035
 373  712.8492
 374  583.5226
 375  587.3811
 376  719.063
 377  623.0604
 378  715.9052
 379  620.7268
 380  718.4724
 381  813.6536
 382  718.4617
 383  742.6879
 384  707.1142
 385  772.2898
 386  763.4497
 387  709.5835
 388  650.0524
 389  661.5862
 390  634.9729
 391  586.8482
 392  707.9364
 393  681.9701
 394  613.1877
 395  587.822
 396  641.1891
 397  619.936
 398  513.5517
 399  628.2609
 400  789.6306
 401  818.3119
 402  661.6158
 403  718.9249
 404  644.96
 405  642.263
 406  606.9827
 407  617.4861
 408  719.7689
 409  644.2824
 410  758.3903
 411  656.3362
 412  848.7266
 413  744.2292
 414  749.6164
 415  667.9037
 416  586.4137
 417  688.6245
 418  655.4528
 419  647.8359
 420  713.6466
 421  629.5023
 422  671.2651
 423  686.762
 424  766.6636
 425  794.9196
 426  637.8698
 427  619.0186
 428  710.8055
 429  615.3179
 430  661.1292
 431  726.6218
 432  693.7942
 433  623.409
 434  758.1165
 435  748.171
 436  715.596
 437  698.6456
 438  591.4667
 439  545.1667
 440  660.4293
 441  753.2427
 442  748.3596
 443  738.7444
 444  836.3121
 445  768.3731
 446  703.8693
 447  693.0018
 448  681.1553
 449  696.2355
 450  629.8426
 451  620.9604
 452  636.1613
 453  745.1682
 454  680.9637
 455  555.6213
 456  514.3917
 457  683.7507
 458  805.0303
 459  728.8563
 460  672.9492
 461  708.9184
 462  829.6925
 463  714.1213
 464  820.1331
 465  841.0842
 466  758.514
 467  773.9278
 468  620.7606
 469  648.6544
 470  740.0945
 471  777.1382
 472  707.0857
 473  535.4057
 474  650.9723
 475  756.2822
 476  668.958
 477  561.0762
 478  637.0143
 479  842.3434
 480  657.8073
 481  590.196
 482  623.8141
 483  602.1287
 484  598.5471
 485  712.6034
 486  647.6589
 487  661.4014
 488  651.7613
 489  662.3871
 490  748.3435
 491  707.5945
 492  815.6082
 493  826.4678
 494  827.7291
 495  800.5817
 496  801.9924
 497  746.9061
 498  842.9213
 499  803.0173
 500  767.8273
 501  687.0861
 502  807.4298
 503  809.9116
 504  808.377
 505  735.5175
 506  817.3105
 507  1003.298
 508  1006.594
 509  1126.931
 510  1318.176
 511  1516.176
