# Input file       =  1209804988.111969_cleaned.dat
# Candidate        =  PSR_0332+5434
# Telescope        =  AR
# Epoch_topo       =  58246.372767499641
# Epoch_bary       =  N/A
# T_sample         =  0.002
# Data Folded      =  7340032
# Data Avg         =  0.0759485079857262
# Data StdDev      =  1.00014448077152 
# Profile Bins     =  512
# Profile Avg      =  1089.00343691081 
# Profile StdDev   =  119.750335498239 
# Reduced chi-sqr  =  1.046
# Prob(Noise)      <  0.229   (~0.7 sigma)
# P_topo (ms)      =  714.539947541858  +/- 0.000864
# P'_topo (s/s)    =  -0                +/- 4.56e-10
# P''_topo (s/s^2) =  0                 +/- 2.01e-13
# P_bary (ms)      =  N/A
# P'_bary (s/s)    =  N/A
# P''_bary (s/s^2) =  N/A
# P_orb (s)        =  N/A
# asin(i)/c (s)    =  N/A
# eccentricity     =  N/A
# w (rad)          =  N/A
# T_peri           =  N/A
######################################################
   0  1639.393
   1  1469.299
   2  1317.732
   3  1196.505
   4  1120.07
   5  1184.236
   6  1158.471
   7  1149.172
   8  1108.974
   9  1075.759
  10  1097.41
  11  1099.734
  12  1151.382
  13  1058.326
  14  1107.182
  15  1169.729
  16  1176.168
  17  1146.428
  18  1086.615
  19  1062.785
  20  1075.794
  21  1133.015
  22  1055.124
  23  1034.586
  24  1056.671
  25  1037.436
  26  1013.91
  27  1035.744
  28  1076.269
  29  1074.353
  30  1023.838
  31  913.9833
  32  922.753
  33  989.4527
  34  1020.428
  35  981.8325
  36  1038.39
  37  1067.69
  38  1019.746
  39  995.1009
  40  947.0646
  41  948.9439
  42  997.3735
  43  970.1038
  44  953.4739
  45  996.8723
  46  981.4425
  47  1051.142
  48  1089.155
  49  1030.827
  50  1020.673
  51  1106.035
  52  993.7119
  53  979.669
  54  956.3483
  55  946.24
  56  1052.023
  57  1076.891
  58  1015.261
  59  1051.575
  60  1042.159
  61  1040.481
  62  1019.461
  63  1010.105
  64  977.9975
  65  946.1685
  66  902.8232
  67  921.5204
  68  911.3976
  69  936.8084
  70  974.7544
  71  1061.296
  72  1060.77
  73  1062.306
  74  1063.065
  75  990.4528
  76  1030.655
  77  1014.82
  78  910.7523
  79  910.4888
  80  943.6824
  81  983.6407
  82  939.5762
  83  988.3459
  84  1051.62
  85  1009.797
  86  1018.707
  87  945.1866
  88  979.0279
  89  1012.427
  90  982.5596
  91  1081.215
  92  1166.101
  93  1036.513
  94  953.3801
  95  998.0569
  96  1019.126
  97  1040.935
  98  1086.607
  99  1031.996
 100  1013.133
 101  1025.062
 102  1011.908
 103  959.9598
 104  1038.997
 105  1023.745
 106  993.078
 107  1074.653
 108  1077.907
 109  1015.926
 110  1098.623
 111  1148.403
 112  1089.379
 113  1089.198
 114  1127.754
 115  991.71
 116  1041.944
 117  1088.73
 118  1058.904
 119  1039.965
 120  1045.454
 121  1113.931
 122  1139.92
 123  1161.726
 124  1154.091
 125  1153.281
 126  1096.358
 127  1104.467
 128  1054.396
 129  1110.99
 130  1217.337
 131  1210.234
 132  1176.62
 133  1194.21
 134  1127.283
 135  1099.956
 136  1149.53
 137  1167.175
 138  1068.217
 139  1098.395
 140  1200.006
 141  1159.771
 142  941.5829
 143  1050.922
 144  1094.295
 145  1067.032
 146  1137.949
 147  1115.146
 148  1075.155
 149  1060.418
 150  1087.948
 151  1167.005
 152  1190.611
 153  1134.833
 154  1117.326
 155  1098.248
 156  1057.581
 157  1139.323
 158  1088.325
 159  1072.489
 160  1063.168
 161  1049.429
 162  1025.317
 163  945.3022
 164  1050.594
 165  1141.734
 166  918.5058
 167  961.8994
 168  1043.095
 169  1059.647
 170  1038.926
 171  1064.784
 172  1150.56
 173  1183.74
 174  1116.819
 175  1015.081
 176  1045.326
 177  1024.307
 178  1092.769
 179  1088.927
 180  1124.149
 181  1110.414
 182  1019.843
 183  1066.115
 184  1101.946
 185  981.9579
 186  1020.267
 187  1027.334
 188  998.5806
 189  1031.517
 190  1080.361
 191  1146.854
 192  1168.827
 193  1179.661
 194  1167.21
 195  1164.884
 196  1162.943
 197  1120.931
 198  1049.81
 199  1077.667
 200  1070.822
 201  1011.652
 202  1043.753
 203  1055.049
 204  1045.328
 205  1083.882
 206  1109.383
 207  1089.111
 208  1085.777
 209  1069.77
 210  1055.133
 211  1141.623
 212  1184.692
 213  1113.564
 214  1067.204
 215  1148.564
 216  1198.767
 217  1128.634
 218  1212.036
 219  1170.192
 220  1173.58
 221  1234.74
 222  1245.921
 223  1270.4
 224  1280.592
 225  1208.825
 226  1194.204
 227  1293.41
 228  1244.715
 229  1184.588
 230  1232.239
 231  1227.198
 232  1172.775
 233  1163.16
 234  1222.428
 235  1233.592
 236  1092.272
 237  1203.022
 238  1131.399
 239  1114.822
 240  1113.972
 241  1209.081
 242  1224.526
 243  1134.204
 244  1205.854
 245  1175.281
 246  1158.808
 247  1106.208
 248  1140.199
 249  1125.953
 250  1139.202
 251  1173.569
 252  1136.273
 253  1158.203
 254  1254.591
 255  1199.059
 256  1227.859
 257  1249.929
 258  1194.108
 259  1134.184
 260  1167.391
 261  1257.314
 262  1354.744
 263  1322.446
 264  1223.812
 265  1183.624
 266  1120.259
 267  1140.038
 268  1158.618
 269  1167.622
 270  1164.796
 271  1244.696
 272  1218.026
 273  1158.52
 274  1184.191
 275  1194.355
 276  1165.697
 277  1237.955
 278  1249.048
 279  1181.208
 280  1155.426
 281  1196.985
 282  1227.814
 283  1151.903
 284  1208.926
 285  1299.5
 286  1118.793
 287  1147.94
 288  1251.114
 289  1116.083
 290  1076.175
 291  1089.703
 292  1062.411
 293  999.2025
 294  994.257
 295  1094.327
 296  1012.005
 297  1035.958
 298  1128.92
 299  1107.632
 300  1059.213
 301  1170.966
 302  1136.99
 303  1050.562
 304  959.8853
 305  939.3823
 306  1071.901
 307  1047.302
 308  1055.232
 309  1156.776
 310  1193.328
 311  1092.024
 312  1059.142
 313  1126.313
 314  1171.047
 315  1161.543
 316  1143.432
 317  1135.402
 318  1074.751
 319  1118.396
 320  1071.547
 321  1103.012
 322  1070.486
 323  1029.93
 324  986.0649
 325  995.8997
 326  977.2449
 327  960.5724
 328  1093.631
 329  1079.296
 330  1080.784
 331  1068.711
 332  1003.54
 333  1007.173
 334  1126.155
 335  1072.869
 336  1017.718
 337  1072.844
 338  1119.938
 339  1033.092
 340  1044.135
 341  1041.992
 342  961.2731
 343  1030.036
 344  1050.697
 345  1042.68
 346  1060.404
 347  1039.826
 348  969.7523
 349  1028.925
 350  1011.665
 351  1107.499
 352  1175.386
 353  1133.364
 354  1082.291
 355  1043.927
 356  979.0009
 357  1079.473
 358  1042.951
 359  1066.052
 360  1122.907
 361  1131.166
 362  1106.886
 363  1136.263
 364  1165.319
 365  1088.771
 366  996.2604
 367  1132.596
 368  1063.588
 369  1030.05
 370  1057.73
 371  1065.643
 372  1105.501
 373  1086.162
 374  1137.42
 375  1137.001
 376  1106.788
 377  1047.019
 378  1120.171
 379  1165.826
 380  1091.075
 381  1110.342
 382  1123.203
 383  1164.466
 384  1054.921
 385  1126.684
 386  1174.225
 387  1096.88
 388  1104.787
 389  1050.297
 390  1053.192
 391  1049.658
 392  1024.871
 393  1042.043
 394  989.7854
 395  1058.88
 396  1030.665
 397  1089.426
 398  1064.601
 399  1121.057
 400  1079.267
 401  1121.926
 402  1117.185
 403  1126.517
 404  1081.839
 405  1043.823
 406  1088.494
 407  1022.04
 408  965.5527
 409  1004.887
 410  970.2154
 411  995.8705
 412  1078.834
 413  1024.728
 414  965.0212
 415  965.8159
 416  970.808
 417  912.7928
 418  939.2498
 419  1015.206
 420  1013.239
 421  1004.279
 422  1005.949
 423  918.4207
 424  960.0009
 425  1028.653
 426  967.1643
 427  997.7307
 428  1018.059
 429  1038.316
 430  1109.782
 431  1138.979
 432  1072.993
 433  1121.41
 434  1119.168
 435  995.689
 436  1101.057
 437  1156.161
 438  1108.547
 439  1094.694
 440  1021.546
 441  1016.102
 442  1113.737
 443  1124.08
 444  1083.611
 445  1029.921
 446  1122.749
 447  1094.754
 448  1051.65
 449  1108.695
 450  1134.089
 451  1099.974
 452  1113.929
 453  1119.944
 454  1154.814
 455  1105.755
 456  998.9311
 457  957.5204
 458  1036.382
 459  1076.026
 460  1055.63
 461  962.8724
 462  1101.789
 463  1159.134
 464  1041.566
 465  1085.819
 466  1093.902
 467  1066.534
 468  1117.831
 469  1111.161
 470  1087.303
 471  1048.852
 472  1051.414
 473  1093.791
 474  1092.906
 475  1101.003
 476  1128.752
 477  1000.469
 478  935.65
 479  1009.069
 480  1066.359
 481  1081.317
 482  1109.657
 483  1127.616
 484  1119.933
 485  1121.726
 486  1069.454
 487  1087.32
 488  1101.762
 489  1087.688
 490  1042.564
 491  1019.746
 492  1099.365
 493  1136.377
 494  1132.458
 495  1147.284
 496  1052.847
 497  1102.469
 498  1074.745
 499  1117.272
 500  1169.962
 501  1115.772
 502  1068.731
 503  1050.653
 504  1072.212
 505  1150.23
 506  1130.552
 507  1189.774
 508  1217.538
 509  1348.572
 510  1457.262
 511  1628.857
