# Input file       =  1209201872.113502_cleaned.dat
# Candidate        =  PSR_0332+5434
# Telescope        =  AR
# Epoch_topo       =  58239.392258258122
# Epoch_bary       =  N/A
# T_sample         =  0.002
# Data Folded      =  7340032
# Data Avg         =  0.358633059919936
# Data StdDev      =  6.13226091538805 
# Profile Bins     =  512
# Profile Avg      =  5130.75877924466 
# Profile StdDev   =  734.234219253978 
# Reduced chi-sqr  =  1.289
# Prob(Noise)      <  1.01e-05   (~4.3 sigma)
# P_topo (ms)      =  714.546381311668  +/- 0.00025
# P'_topo (s/s)    =  -0                +/- 1.32e-10
# P''_topo (s/s^2) =  0                 +/- 5.81e-14
# P_bary (ms)      =  N/A
# P'_bary (s/s)    =  N/A
# P''_bary (s/s^2) =  N/A
# P_orb (s)        =  N/A
# asin(i)/c (s)    =  N/A
# eccentricity     =  N/A
# w (rad)          =  N/A
# T_peri           =  N/A
######################################################
   0  5653.658
   1  6018.801
   2  6008.889
   3  5748.899
   4  5686.097
   5  5783.743
   6  5647.709
   7  5457.691
   8  5588.644
   9  6079.216
  10  6270.151
  11  6215.421
  12  5991.125
  13  6005.718
  14  5750.353
  15  5750.315
  16  5754.149
  17  5981.292
  18  5602.8
  19  5748.077
  20  5328.522
  21  5030.95
  22  4819.004
  23  4914.419
  24  5107.187
  25  5328.66
  26  5611.752
  27  5356.125
  28  5276.756
  29  5308.216
  30  5354.798
  31  5384.632
  32  4960.467
  33  5324.852
  34  4561.22
  35  4191.427
  36  4725.729
  37  5072.636
  38  4960.622
  39  4677.086
  40  4440.111
  41  4878.169
  42  4982.773
  43  4785.969
  44  4604.271
  45  4788.129
  46  4965.48
  47  5219.812
  48  5063.648
  49  4931.594
  50  5524.114
  51  5355.93
  52  5180.346
  53  5350.253
  54  5256.64
  55  5055.716
  56  5196.269
  57  5771.372
  58  5875.256
  59  5500.329
  60  5554.942
  61  5747.983
  62  5393.137
  63  5905.968
  64  5766.136
  65  5961.263
  66  6138.115
  67  6215.841
  68  5993.826
  69  6199.171
  70  6208.996
  71  6254.161
  72  6531.704
  73  6293.961
  74  6123.523
  75  5931.102
  76  6401.344
  77  6627.385
  78  6199.576
  79  6189.489
  80  6202.406
  81  5766.722
  82  5603.536
  83  5887.741
  84  6098.882
  85  5937.047
  86  5562.824
  87  5765.155
  88  5854.943
  89  5782.506
  90  5325.64
  91  5371.533
  92  5454.527
  93  5821.473
  94  5815.949
  95  5282.529
  96  5185.266
  97  5498.812
  98  5475.872
  99  5590.8
 100  5761.45
 101  5656.566
 102  5398.137
 103  5655.052
 104  5543.678
 105  5498.065
 106  5352.717
 107  5454.735
 108  5360.385
 109  5191.272
 110  5194.616
 111  5095.052
 112  4758.276
 113  4207.842
 114  4508.171
 115  5232.15
 116  5096.534
 117  5002.41
 118  4967.426
 119  5182.853
 120  5013.512
 121  5163.854
 122  5121.192
 123  5194.561
 124  5336.366
 125  5044.164
 126  4569.96
 127  4243.621
 128  4564.17
 129  4796.158
 130  4910.235
 131  5222.031
 132  5123.944
 133  5516.097
 134  5477.237
 135  5378.184
 136  5212.822
 137  5363.613
 138  5377.927
 139  5719.66
 140  5620.72
 141  5291.583
 142  5293.525
 143  5388.9
 144  5509.345
 145  5652.959
 146  6004.212
 147  5730.828
 148  5734.783
 149  5797.141
 150  5627.41
 151  5691.933
 152  5843.449
 153  5321.214
 154  5260.079
 155  5036.915
 156  4882.854
 157  4777.697
 158  4806.426
 159  5053.106
 160  5432.027
 161  5374.1
 162  5102.165
 163  4992.778
 164  4717.844
 165  4788.389
 166  4592.179
 167  4790.99
 168  4550.086
 169  4735.053
 170  4430.779
 171  4640.868
 172  4847.762
 173  4926.672
 174  5308.351
 175  5328.616
 176  5556.255
 177  5400.458
 178  5203.542
 179  5428.408
 180  5203.35
 181  5260.505
 182  4693.761
 183  4727.67
 184  4953.231
 185  4788.031
 186  4349.12
 187  4350.227
 188  4243.993
 189  4293.48
 190  4304.709
 191  4066.272
 192  4122.002
 193  4504.548
 194  4622.429
 195  4739.032
 196  4378.39
 197  4654.836
 198  4769.771
 199  4429.334
 200  4404.054
 201  4623.634
 202  5305.166
 203  5031.533
 204  4759.889
 205  5061.082
 206  5136.615
 207  5106.198
 208  5165.913
 209  5192.396
 210  5477.51
 211  5595.229
 212  5450.923
 213  5656.22
 214  5826.855
 215  5368.669
 216  5213.176
 217  5117.308
 218  5126.634
 219  5391.984
 220  5369.588
 221  5271.999
 222  5370.996
 223  5249.908
 224  5257.311
 225  5201.942
 226  5515.897
 227  5330.515
 228  4914.485
 229  4801.037
 230  5030.021
 231  5495.466
 232  5317.663
 233  5384.858
 234  5577.116
 235  5132.171
 236  4928.093
 237  4648.899
 238  4773.116
 239  4978.162
 240  5054.306
 241  5013.279
 242  4993.005
 243  5051.301
 244  5332.971
 245  4885.969
 246  4504.182
 247  4670.029
 248  5005.792
 249  5122.346
 250  5049.398
 251  5098.759
 252  4892.603
 253  4557.397
 254  4724.14
 255  4673.86
 256  4501.903
 257  4237.11
 258  4264.399
 259  4322.303
 260  3947.503
 261  3987.617
 262  4722.834
 263  4684.876
 264  4399.589
 265  4289.621
 266  4109.15
 267  4137.116
 268  4240.104
 269  4602.573
 270  4494.344
 271  4466.787
 272  4456.185
 273  4505.012
 274  4477.562
 275  4704.697
 276  4766.041
 277  4874.718
 278  5148.715
 279  5081.509
 280  5149.545
 281  5072.821
 282  5162.476
 283  5183.433
 284  5129.199
 285  5214.146
 286  5244.559
 287  5027.008
 288  5226.389
 289  5397.113
 290  5345.94
 291  5546.017
 292  5654.964
 293  5778.373
 294  5759.222
 295  5796.057
 296  5875.373
 297  6512.382
 298  6891.497
 299  7553.472
 300  7784.164
 301  7764.263
 302  7486.229
 303  7108.461
 304  6263.263
 305  6034.791
 306  6009.405
 307  5846.766
 308  5654.328
 309  5682.517
 310  5688.352
 311  5437.088
 312  5440.835
 313  5675.262
 314  5669.871
 315  5559.727
 316  5120.178
 317  5014.093
 318  4525.289
 319  4279.502
 320  4154.94
 321  4096.547
 322  4186.441
 323  4268.574
 324  4007.485
 325  3687.184
 326  3903.756
 327  4271.785
 328  4357.275
 329  4444.906
 330  4645.343
 331  4624.712
 332  4415.172
 333  4279.379
 334  4524.461
 335  4436.188
 336  4205.436
 337  3745.09
 338  3747.101
 339  4030.716
 340  4201.61
 341  4157.733
 342  4095.114
 343  4071.912
 344  3963.684
 345  4177.006
 346  4434.698
 347  4316.274
 348  4170.326
 349  3764.252
 350  3896.003
 351  4210.073
 352  4131.653
 353  3964.54
 354  4323.764
 355  4491.534
 356  4585.792
 357  4943.498
 358  4805.379
 359  4832.137
 360  5125.831
 361  4886.98
 362  4501.157
 363  4534.917
 364  4592.067
 365  4825.256
 366  4629.518
 367  4778.106
 368  5155.525
 369  4936.709
 370  5055.012
 371  5066.896
 372  4965.669
 373  5203.273
 374  5322.228
 375  5348.798
 376  5102.954
 377  5041.189
 378  4994.006
 379  4682.792
 380  4981.884
 381  5070.567
 382  5119.33
 383  5089.865
 384  5233.072
 385  5337.666
 386  5325.162
 387  5426.123
 388  5175.518
 389  5486.327
 390  5304.748
 391  4943.927
 392  5297.337
 393  5330.457
 394  5374.866
 395  4802.212
 396  4620.667
 397  4513.719
 398  4738.394
 399  4848.203
 400  4971.059
 401  4747.605
 402  5261.676
 403  4796.143
 404  4187.761
 405  4622.72
 406  4489.216
 407  4277.986
 408  4149.96
 409  4446.992
 410  4476.028
 411  4252.46
 412  4506.92
 413  4161.096
 414  4217.457
 415  4644.627
 416  4700.068
 417  4869.816
 418  5190.293
 419  5311.003
 420  4992.952
 421  5474.833
 422  5845.175
 423  5781.574
 424  5685.599
 425  5421.5
 426  5041.716
 427  5222.943
 428  4977.925
 429  4922.819
 430  5457.537
 431  5733.552
 432  5561.784
 433  5502.589
 434  5712.396
 435  5754.889
 436  5571.433
 437  5643.345
 438  5986.435
 439  5992.151
 440  5679.747
 441  5671.202
 442  5509.775
 443  5523.763
 444  5540.97
 445  5075.875
 446  5298.629
 447  5630.803
 448  5663.013
 449  5505.944
 450  5248.552
 451  5452.354
 452  5291.29
 453  5183.588
 454  5280.253
 455  5519.732
 456  5520.986
 457  5131.827
 458  4939.79
 459  5493.053
 460  5473.615
 461  5094.483
 462  4967.345
 463  4865.263
 464  5201.541
 465  4890.966
 466  5020.914
 467  5260.478
 468  4673.938
 469  5049.915
 470  4715.328
 471  4486.542
 472  4792.441
 473  4872.15
 474  4807.268
 475  4739.892
 476  4846.239
 477  4948.591
 478  4768.177
 479  4815.506
 480  4683.708
 481  4541.546
 482  4789.146
 483  5146.562
 484  5128.54
 485  4912.018
 486  4894.864
 487  4844.784
 488  4337.216
 489  4318.6
 490  4609.182
 491  4962.081
 492  4808.497
 493  4516.773
 494  4526.721
 495  4119.311
 496  4554.294
 497  4738.419
 498  5109.058
 499  5026.095
 500  5031.715
 501  5380.19
 502  5260.754
 503  4886.914
 504  5427.074
 505  5960.199
 506  5880.928
 507  5834.072
 508  5870.354
 509  5794.348
 510  5693.968
 511  5750.628
