# Input file       =  1209992232.11647_cleaned.dat
# Candidate        =  PSR_0332+5434
# Telescope        =  AR
# Epoch_topo       =  58248.539943477663
# Epoch_bary       =  N/A
# T_sample         =  0.002
# Data Folded      =  7340032
# Data Avg         =  0.143650809518086
# Data StdDev      =  3.58708512686495 
# Profile Bins     =  1024
# Profile Avg      =  1029.69394245072 
# Profile StdDev   =  303.697125673704 
# Reduced chi-sqr  =  1.104
# Prob(Noise)      <  0.0113   (~2.3 sigma)
# P_topo (ms)      =  714.53822745609   +/- 0.000356
# P'_topo (s/s)    =  -0                +/- 1.88e-10
# P''_topo (s/s^2) =  0                 +/- 8.29e-14
# P_bary (ms)      =  N/A
# P'_bary (s/s)    =  N/A
# P''_bary (s/s^2) =  N/A
# P_orb (s)        =  N/A
# asin(i)/c (s)    =  N/A
# eccentricity     =  N/A
# w (rad)          =  N/A
# T_peri           =  N/A
######################################################
   0  945.5384
   1  941.8257
   2  917.2037
   3  853.3286
   4  874.5029
   5  907.504
   6  1090.767
   7  1089.948
   8  1021.094
   9  903.8527
  10  912.0429
  11  1012.641
  12  1058.433
  13  935.3895
  14  864.4786
  15  889.3834
  16  964.7825
  17  1082.462
  18  968.3571
  19  908.8479
  20  856.4605
  21  951.8318
  22  927.3492
  23  923.1497
  24  908.5978
  25  897.0054
  26  902.6198
  27  956.2054
  28  991.9666
  29  884.7263
  30  750.6269
  31  684.0963
  32  830.1315
  33  885.5007
  34  960.7645
  35  987.3207
  36  941.8391
  37  980.431
  38  946.5316
  39  1000.785
  40  923.5521
  41  889.9182
  42  798.7698
  43  767.7805
  44  783.6873
  45  829.2239
  46  819.8492
  47  853.1696
  48  810.6891
  49  780.7175
  50  626.8976
  51  592.0678
  52  665.3795
  53  747.0883
  54  779.7354
  55  543.3126
  56  636.2859
  57  655.063
  58  770.0257
  59  677.6947
  60  717.1866
  61  760.1628
  62  770.2007
  63  691.5305
  64  713.8434
  65  819.924
  66  924.9706
  67  903.4174
  68  898.6663
  69  844.6198
  70  767.5004
  71  754.0275
  72  740.4292
  73  787.3595
  74  751.6772
  75  846.0605
  76  977.9307
  77  1003.656
  78  982.9101
  79  938.9365
  80  865.7956
  81  687.6309
  82  624.8144
  83  724.5178
  84  837.9447
  85  876.6915
  86  882.5491
  87  931.1041
  88  1038.712
  89  1009.557
  90  961.948
  91  837.95
  92  816.4465
  93  872.015
  94  929.8828
  95  856.8763
  96  799.707
  97  766.3427
  98  845.3066
  99  894.4475
 100  988.2805
 101  963.2784
 102  1061.277
 103  1075.704
 104  969.0791
 105  881.8156
 106  909.2227
 107  1072.926
 108  1137.584
 109  1085.681
 110  977.5242
 111  981.7678
 112  1037.632
 113  1051.738
 114  1085.909
 115  999.2946
 116  1019.861
 117  1057.154
 118  1157.863
 119  1121.635
 120  1027.276
 121  979.6204
 122  1015.955
 123  1123.473
 124  1117.844
 125  1081.851
 126  940.9498
 127  978.8336
 128  935.3603
 129  907.5483
 130  870.5666
 131  961.8641
 132  994.5663
 133  963.2463
 134  863.5185
 135  834.2059
 136  807.4814
 137  930.363
 138  959.8672
 139  963.3192
 140  981.0181
 141  1044.611
 142  1108.491
 143  1179.713
 144  1120.037
 145  1155.787
 146  1045.626
 147  952.9186
 148  854.1307
 149  944.2053
 150  979.1935
 151  1012.591
 152  1054.655
 153  1230.767
 154  1234.769
 155  1138.688
 156  935.3165
 157  875.2277
 158  943.7706
 159  943.0115
 160  991.1512
 161  963.7509
 162  887.6954
 163  865.6493
 164  886.4883
 165  1007.651
 166  1000.255
 167  1059.314
 168  1049.966
 169  978.1127
 170  840.0777
 171  854.401
 172  954.951
 173  1014.461
 174  1000.661
 175  943.9843
 176  878.0492
 177  893.7437
 178  867.6723
 179  1039.007
 180  1060.781
 181  1086.293
 182  975.9394
 183  965.4137
 184  984.3451
 185  954.9706
 186  1036.63
 187  1067.033
 188  1034.268
 189  1025.584
 190  976.9777
 191  983.4519
 192  955.2599
 193  1067.795
 194  1071.673
 195  1004.547
 196  999.48
 197  975.2597
 198  983.6754
 199  998.1562
 200  1002.017
 201  1049.195
 202  963.1123
 203  1017.735
 204  922.6516
 205  859.4901
 206  918.7652
 207  1068.168
 208  1146.509
 209  1136.742
 210  1099.758
 211  1031.644
 212  827.3178
 213  725.9211
 214  681.5866
 215  755.9162
 216  827.2516
 217  898.2302
 218  931.5068
 219  956.9277
 220  837.4036
 221  773.0864
 222  765.2118
 223  859.401
 224  867.4795
 225  843.3076
 226  831.6294
 227  824.1093
 228  855.573
 229  972.4346
 230  1032.109
 231  1054.861
 232  1091.375
 233  1081.753
 234  954.8679
 235  809.0181
 236  844.8141
 237  851.4921
 238  860.8881
 239  926.4654
 240  924.3161
 241  929.6262
 242  801.3088
 243  948.9635
 244  892.0854
 245  890.9561
 246  787.84
 247  920.4586
 248  940.893
 249  898.5833
 250  784.1794
 251  787.8694
 252  792.2411
 253  831.4193
 254  830.8979
 255  783.6431
 256  720.8569
 257  789.1375
 258  837.4344
 259  848.1614
 260  728.3029
 261  718.5378
 262  773.5378
 263  1002.59
 264  1180.471
 265  1087.132
 266  992.312
 267  944.6124
 268  979.2009
 269  1028.082
 270  1007.048
 271  1130.503
 272  1074.405
 273  1134.511
 274  1012.715
 275  973.3344
 276  1010.057
 277  1082.587
 278  1052.501
 279  915.2354
 280  872.241
 281  835.5659
 282  888.34
 283  838.325
 284  949.4373
 285  1065.627
 286  1159.192
 287  1130.021
 288  1092.896
 289  1120.086
 290  1137.368
 291  1087.31
 292  1037.543
 293  1009.193
 294  961.0062
 295  868.9899
 296  823.4189
 297  795.2131
 298  788.4756
 299  807.1279
 300  793.7881
 301  905.3499
 302  890.4888
 303  986.1244
 304  1018.151
 305  1096.455
 306  1013.356
 307  1014.832
 308  1027.809
 309  1021.743
 310  981.5738
 311  969.6974
 312  996.1682
 313  1039.855
 314  1053.606
 315  1001.773
 316  978.301
 317  1062.8
 318  1179.881
 319  1144.003
 320  1241.563
 321  1307.948
 322  1387.265
 323  1308.911
 324  1238.08
 325  1271.04
 326  1263.375
 327  1253.812
 328  1170.397
 329  1190.451
 330  1199.044
 331  1121.935
 332  1048.598
 333  1026.098
 334  998.0834
 335  1006.141
 336  970.6281
 337  923.5306
 338  883.168
 339  1099.365
 340  1183.277
 341  1252.12
 342  1265.477
 343  1325.932
 344  1414.975
 345  1219.747
 346  1145.803
 347  1052.411
 348  1168.758
 349  1155.484
 350  1114.803
 351  1092.131
 352  1071.367
 353  1015.85
 354  968.7034
 355  990.7569
 356  1087.244
 357  1138.825
 358  1105.269
 359  1005.165
 360  881.7512
 361  828.5547
 362  819.3496
 363  855.2984
 364  913.2389
 365  965.5151
 366  926.5414
 367  813.5717
 368  800.9476
 369  907.4552
 370  901.7974
 371  862.8849
 372  799.6542
 373  876.2928
 374  967.8275
 375  1003.662
 376  1045.932
 377  1103.677
 378  1126.175
 379  1091.379
 380  1032.556
 381  1039.119
 382  1040.416
 383  1019.7
 384  943.3138
 385  970.554
 386  948.7046
 387  970.832
 388  929.7402
 389  980.7788
 390  1081.921
 391  1073.585
 392  1011.037
 393  1037.027
 394  1186.322
 395  1116.343
 396  1012.817
 397  944.7269
 398  1033.067
 399  1008.044
 400  987.5662
 401  946.8098
 402  893.2323
 403  913.7416
 404  1049.677
 405  1173.5
 406  1192.319
 407  1171.335
 408  1272.799
 409  1299.028
 410  1202.701
 411  1109.127
 412  1141.869
 413  1109.237
 414  1036.257
 415  932.3802
 416  852.8475
 417  854.8673
 418  1035.329
 419  1185.109
 420  1196.228
 421  1078.714
 422  1077.822
 423  1099.416
 424  1154.228
 425  1189.916
 426  1149.438
 427  1083.962
 428  1053.711
 429  1007.478
 430  947.5076
 431  865.124
 432  900.8275
 433  897.0685
 434  1000.931
 435  1084.369
 436  1124.726
 437  1171.123
 438  1145.856
 439  1136.526
 440  1134.804
 441  1146.802
 442  1148.032
 443  1010.563
 444  822.7732
 445  679.4351
 446  668.1019
 447  804.6955
 448  961.5463
 449  1069.925
 450  1045.359
 451  1073.337
 452  1076.342
 453  1108.058
 454  1135.65
 455  1174.357
 456  1258.311
 457  1233.631
 458  1210.477
 459  1163.181
 460  1109.481
 461  1192.955
 462  1162.432
 463  1214.333
 464  1207.301
 465  1204.412
 466  1175.876
 467  1158.025
 468  1149.805
 469  1098.569
 470  1058.081
 471  1070.834
 472  1007.523
 473  1054.155
 474  1157.3
 475  1283.613
 476  1293.648
 477  1299.311
 478  1309.758
 479  1119.812
 480  975.056
 481  1020.479
 482  1214.84
 483  1339.263
 484  1241.489
 485  1164.025
 486  1108.578
 487  1025.584
 488  1022.474
 489  1014.797
 490  963.2866
 491  942.2631
 492  857.0959
 493  954.855
 494  976.8679
 495  964.2253
 496  934.6906
 497  981.7004
 498  985.0886
 499  960.926
 500  926.0226
 501  1044.686
 502  1038.065
 503  1012.38
 504  1097.312
 505  1059.539
 506  917.1082
 507  926.2411
 508  1005.879
 509  1119.655
 510  1005.419
 511  1082.238
 512  1029.726
 513  1090.99
 514  1092.854
 515  1289.556
 516  1366.51
 517  1306.077
 518  1158.497
 519  1016.173
 520  981.8042
 521  957.3582
 522  969.0289
 523  1204.546
 524  1328.051
 525  1341.139
 526  1067.03
 527  964.9793
 528  1050.658
 529  1265.25
 530  1308.099
 531  1191.737
 532  1105.309
 533  1059.229
 534  1059.364
 535  955.7442
 536  1016.757
 537  955.1226
 538  950.6413
 539  891.5085
 540  991.9243
 541  990.8956
 542  1041.906
 543  1056.199
 544  1032.217
 545  929.0236
 546  789.6578
 547  708.7188
 548  780.2429
 549  885.4844
 550  861.3168
 551  730.8344
 552  740.3902
 553  795.6138
 554  911.345
 555  905.0283
 556  855.4764
 557  850.8253
 558  1010.45
 559  1077.857
 560  1069.445
 561  954.3513
 562  983.207
 563  1081.572
 564  1113.252
 565  1092.502
 566  945.0939
 567  1019.158
 568  976.7615
 569  1000.949
 570  893.3862
 571  1027.874
 572  1000.797
 573  1056.098
 574  1017.984
 575  996.6612
 576  1108.495
 577  1142.958
 578  1220.811
 579  1198.628
 580  1172.249
 581  1098.609
 582  1054.005
 583  1025.364
 584  1003.825
 585  969.3884
 586  1007.352
 587  1108.233
 588  1104.45
 589  1093.34
 590  1117.442
 591  1281.179
 592  1420.634
 593  1508.923
 594  1519.683
 595  1633.367
 596  1746.111
 597  1928.398
 598  2075.022
 599  2164.367
 600  2177.263
 601  2146.945
 602  2075.046
 603  2037.162
 604  1867.807
 605  1748.23
 606  1609.498
 607  1357.108
 608  1198.491
 609  1087.965
 610  1136.769
 611  1155.308
 612  1081.881
 613  948.1434
 614  813.8785
 615  789.7753
 616  885.776
 617  1005.349
 618  1033.266
 619  1175.345
 620  1050.23
 621  1065.518
 622  1025.253
 623  1170.529
 624  1227.163
 625  1262.259
 626  1207.932
 627  1201.923
 628  1119.967
 629  1114.277
 630  1138.046
 631  1207.751
 632  1137.958
 633  984.1755
 634  983.3249
 635  1010.388
 636  1194.457
 637  1277.633
 638  1305.76
 639  1158.409
 640  1064.238
 641  962.8997
 642  898.0757
 643  939.9951
 644  979.6626
 645  970.8324
 646  839.4006
 647  799.9267
 648  826.8948
 649  839.9037
 650  891.1488
 651  932.1702
 652  1037.356
 653  1087.791
 654  1031.591
 655  1026.461
 656  940.6973
 657  913.9276
 658  840.0872
 659  940.1243
 660  943.5234
 661  933.7236
 662  858.8469
 663  899.2479
 664  1008.896
 665  1064.215
 666  1008.682
 667  930.4551
 668  986.0133
 669  1091.209
 670  1120.898
 671  1127.197
 672  1097.582
 673  1078.763
 674  1041.262
 675  1001.584
 676  1003.723
 677  1041.367
 678  1155.488
 679  1266.695
 680  1228.496
 681  1225.788
 682  1240.854
 683  1260.367
 684  1288.703
 685  1354.801
 686  1384.181
 687  1313.402
 688  1308.407
 689  1323.542
 690  1477.365
 691  1426.11
 692  1392.588
 693  1281.406
 694  1220.769
 695  1095.453
 696  1038.768
 697  1091.24
 698  1182.373
 699  1275.243
 700  1223.706
 701  1203.114
 702  1135.397
 703  1175.462
 704  1291.042
 705  1397.437
 706  1303.124
 707  1099.193
 708  1032.724
 709  1129.614
 710  1144.692
 711  1133.941
 712  1135.048
 713  1200.393
 714  1227.163
 715  1260.579
 716  1268.743
 717  1226.79
 718  1233.537
 719  1258.351
 720  1297.494
 721  1177.941
 722  1071.762
 723  1064.107
 724  1190.536
 725  1253.75
 726  1270.313
 727  1180.112
 728  1144.551
 729  1154.524
 730  1228.694
 731  1199.201
 732  1176.233
 733  1192.807
 734  1167.461
 735  1191.332
 736  1121.569
 737  1174.379
 738  1207.658
 739  1380.455
 740  1362.679
 741  1223.416
 742  1000.63
 743  985.2366
 744  1140.397
 745  1214.135
 746  1273.118
 747  1239.037
 748  1195.959
 749  1083.453
 750  1094.967
 751  1182.904
 752  1270.113
 753  1172.36
 754  1108.375
 755  1040.595
 756  1126.058
 757  1073.633
 758  1046.145
 759  1008.628
 760  1028.916
 761  1083.263
 762  1016.735
 763  886.9835
 764  842.4298
 765  919.77
 766  1016.396
 767  987.8589
 768  889.3012
 769  778.4261
 770  843.4355
 771  968.5548
 772  1079.301
 773  1106.335
 774  1073.173
 775  984.0651
 776  886.0095
 777  929.9474
 778  1055.527
 779  1239.799
 780  1102.753
 781  971.8223
 782  890.9128
 783  1139.713
 784  1227.572
 785  1194.455
 786  1136.085
 787  1133.142
 788  1095.371
 789  1097.567
 790  976.8259
 791  983.6161
 792  958.9675
 793  1077.081
 794  1086.027
 795  1015.11
 796  895.5989
 797  928.8684
 798  1040.406
 799  1116.733
 800  1144.829
 801  1041.495
 802  1105.908
 803  1105.747
 804  1243.1
 805  1248.44
 806  1282.25
 807  1187.893
 808  1125.202
 809  1018.375
 810  970.4879
 811  1010.004
 812  1028.74
 813  1012.124
 814  1028.069
 815  1160.704
 816  1152.597
 817  1035.034
 818  884.3851
 819  980.5038
 820  1128.081
 821  1188.326
 822  1194.373
 823  1198.888
 824  1273.563
 825  1299.406
 826  1336.741
 827  1210.482
 828  1142.643
 829  1098.594
 830  1191.23
 831  1200.213
 832  1232.769
 833  1285.629
 834  1207.795
 835  1145.111
 836  983.4753
 837  978.4945
 838  932.4299
 839  929.236
 840  1019.962
 841  1082.441
 842  1125.839
 843  1111.379
 844  977.603
 845  985.923
 846  1030.53
 847  1131.151
 848  1100.89
 849  984.8714
 850  946.1238
 851  917.1583
 852  942.588
 853  903.3873
 854  949.6226
 855  955.1285
 856  1022.641
 857  740.0351
 858  639.8434
 859  599.6964
 860  787.3181
 861  863.3097
 862  1052.189
 863  1076.668
 864  984.2903
 865  853.6081
 866  939.0521
 867  1072.165
 868  1122.018
 869  1141.979
 870  1169.538
 871  1173.619
 872  1170.259
 873  1188.663
 874  1182.958
 875  1152.153
 876  1150.01
 877  1114.418
 878  1091.506
 879  1075.518
 880  1028.673
 881  925.7383
 882  979.022
 883  1087.331
 884  1106.049
 885  1018.02
 886  983.0842
 887  1017.484
 888  1099.403
 889  1067.022
 890  1027.461
 891  987.6189
 892  1002.324
 893  996.1498
 894  952.706
 895  1022.683
 896  953.6326
 897  866.7429
 898  801.6763
 899  889.1232
 900  934.4291
 901  988.1445
 902  987.5998
 903  959.2435
 904  966.3892
 905  972.2239
 906  1111.931
 907  1072.282
 908  1023.587
 909  968.2769
 910  1012.616
 911  960.756
 912  982.1591
 913  1042.787
 914  1089.381
 915  1088.729
 916  1004.847
 917  969.7516
 918  923.11
 919  883.325
 920  745.3934
 921  771.6438
 922  864.588
 923  1001.898
 924  1053.913
 925  1065.464
 926  1082.389
 927  1047.651
 928  1012.811
 929  945.4442
 930  1030.117
 931  1028.141
 932  1070.378
 933  1008.913
 934  1026.601
 935  1048.135
 936  1059.55
 937  1153.736
 938  1241.101
 939  1308.458
 940  1208.748
 941  1166.61
 942  1001.011
 943  927.0518
 944  859.5067
 945  962.4017
 946  955.5052
 947  987.0369
 948  1046.925
 949  1062.338
 950  1009.135
 951  1041.066
 952  1091.169
 953  1086.377
 954  1008.445
 955  934.7133
 956  895.2916
 957  896.5268
 958  852.1343
 959  754.9759
 960  785.2201
 961  855.529
 962  978.7977
 963  1012.28
 964  1063.82
 965  947.3979
 966  1018.746
 967  1016.262
 968  1040.64
 969  938.5289
 970  1010.949
 971  1098.582
 972  1127.492
 973  1086.685
 974  1069.978
 975  1041.838
 976  1070.119
 977  1018.087
 978  1005.952
 979  836.0551
 980  708.8364
 981  712.007
 982  735.9867
 983  882.7042
 984  868.9552
 985  951.1417
 986  922.5198
 987  887.0602
 988  923.8751
 989  824.063
 990  860.3738
 991  896.904
 992  1018.843
 993  1066.103
 994  1148.301
 995  1118.105
 996  1114.606
 997  1032.439
 998  1094.191
 999  1060.257
1000  860.4683
1001  838.9835
1002  849.8359
1003  1086.078
1004  1102.008
1005  1039.526
1006  861.6307
1007  827.7414
1008  1001.682
1009  1050.349
1010  1018.917
1011  964.7866
1012  1033.159
1013  1088.118
1014  1027.17
1015  1015.73
1016  987.2868
1017  906.1923
1018  960.1569
1019  983.5367
1020  1082.048
1021  1011.709
1022  1007.938
1023  1011.03
