# Input file       =  1209389081.116451_cleaned.dat
# Candidate        =  PSR_0332+5434
# Telescope        =  AR
# Epoch_topo       =  58241.559029125594
# Epoch_bary       =  N/A
# T_sample         =  0.002
# Data Folded      =  7340032
# Data Avg         =  0.284249769876104
# Data StdDev      =  5.84906550993859 
# Profile Bins     =  256
# Profile Avg      =  8149.05615734169 
# Profile StdDev   =  990.411055451054 
# Reduced chi-sqr  =  2.497
# Prob(Noise)      <  1.38e-34   (~12.2 sigma)
# P_topo (ms)      =  714.544750252507  +/- 0.000196
# P'_topo (s/s)    =  -0                +/- 1.03e-10
# P''_topo (s/s^2) =  0                 +/- 4.56e-14
# P_bary (ms)      =  N/A
# P'_bary (s/s)    =  N/A
# P''_bary (s/s^2) =  N/A
# P_orb (s)        =  N/A
# asin(i)/c (s)    =  N/A
# eccentricity     =  N/A
# w (rad)          =  N/A
# T_peri           =  N/A
######################################################
   0  10447.92
   1  9797.55
   2  10385.77
   3  9749.928
   4  8844.736
   5  7730.264
   6  8188.636
   7  7479.744
   8  7149.313
   9  6666.312
  10  6935.271
  11  7418.318
  12  7477.878
  13  7281.162
  14  6912.425
  15  6935.656
  16  7906.729
  17  7004.91
  18  6536.222
  19  7224.355
  20  7052.123
  21  5958.657
  22  6554.836
  23  6330.394
  24  6000.971
  25  6545.571
  26  7574.8
  27  7623.661
  28  7116.098
  29  8020.576
  30  8114.647
  31  8842.346
  32  9074.301
  33  9904.994
  34  10553.26
  35  10754.22
  36  10378.56
  37  11076.83
  38  10827.52
  39  10548.63
  40  9947.312
  41  9248.597
  42  9894.812
  43  9822.355
  44  9337.708
  45  9085.181
  46  9117.549
  47  9203.378
  48  8848.762
  49  8900.585
  50  8711.488
  51  8331.013
  52  8181.063
  53  8368.719
  54  9336.31
  55  9344.996
  56  9735.525
  57  9211.735
  58  9819.751
  59  9794.67
  60  8288.119
  61  7918.29
  62  8488.665
  63  8998.826
  64  8464.498
  65  8462.753
  66  9566.084
  67  9861.32
  68  10007.65
  69  10125.92
  70  10714.05
  71  10326.69
  72  10355.51
  73  10275.07
  74  10695.38
  75  10647.55
  76  10072.11
  77  9021.525
  78  8822.222
  79  8514.945
  80  7194.363
  81  7926.651
  82  7777.57
  83  7144.706
  84  7192.414
  85  6757.357
  86  5795.213
  87  6151.815
  88  6675.955
  89  6513.655
  90  7028.11
  91  7410.763
  92  7217.504
  93  7720.018
  94  7571.465
  95  7705.829
  96  7063.568
  97  7802.678
  98  7662.409
  99  7954.406
 100  7121.278
 101  8836.262
 102  8618.807
 103  8821.887
 104  9562.016
 105  9414.844
 106  9224.996
 107  9103.445
 108  9460.651
 109  9403.062
 110  9114.661
 111  8787.203
 112  8193.034
 113  8029.763
 114  8106.855
 115  7940.149
 116  7576.905
 117  7268.718
 118  7585.207
 119  6329.013
 120  6682.167
 121  6304.859
 122  6435.639
 123  7101.687
 124  6965.767
 125  6848.788
 126  6996.294
 127  6564.759
 128  6704.039
 129  6826.14
 130  5828.699
 131  5798.504
 132  5921.539
 133  6205.721
 134  5996.43
 135  6360.162
 136  6372.702
 137  6045.645
 138  7115.324
 139  7239.827
 140  8235.747
 141  7373.726
 142  8246.682
 143  8859.507
 144  9207.335
 145  9513.446
 146  10229.05
 147  10196.36
 148  10731.59
 149  11712.22
 150  12952.47
 151  12557.45
 152  9910.53
 153  8740.128
 154  8337.582
 155  7571
 156  7318.885
 157  7938.846
 158  7322.955
 159  6657.662
 160  6731.191
 161  6457.413
 162  6341.679
 163  6460.278
 164  6654.037
 165  6461.759
 166  5909.843
 167  6903.444
 168  6972.598
 169  7370.366
 170  7129.043
 171  7116.383
 172  7328.09
 173  7742.917
 174  6950.654
 175  7819.351
 176  7957.727
 177  7414.293
 178  7981.33
 179  7774.059
 180  9002.825
 181  9326.239
 182  8835.122
 183  9380.193
 184  10396.9
 185  9962.046
 186  9455.94
 187  9033.289
 188  7928.745
 189  8222.529
 190  6756.406
 191  6793.633
 192  6871.699
 193  6474.548
 194  6621.21
 195  6614.098
 196  7228.75
 197  8456.467
 198  8403.551
 199  7469.998
 200  7523.625
 201  7791.044
 202  7841.365
 203  7194.348
 204  7585.489
 205  7598.085
 206  7110.864
 207  7090.335
 208  7353.392
 209  7045.567
 210  6317.251
 211  6771.469
 212  8098.514
 213  8146.837
 214  8258.843
 215  8509.247
 216  8839.47
 217  9356.252
 218  9842.214
 219  8934.064
 220  10070.71
 221  10023.34
 222  9233.072
 223  8589.786
 224  8637.904
 225  8773.388
 226  7712.047
 227  7806.58
 228  8031.256
 229  7399.785
 230  7302.801
 231  7321.634
 232  7315.252
 233  7834.301
 234  7888.414
 235  7893.729
 236  7656.165
 237  7667.054
 238  7320.929
 239  6614.818
 240  6748.915
 241  7136.695
 242  7287.604
 243  6811.689
 244  7598.732
 245  8143.773
 246  8248.82
 247  8314.24
 248  8479.196
 249  8640.576
 250  8725.499
 251  9687.901
 252  9461.431
 253  9617.128
 254  10260.57
 255  10495.87
