# Input file       =  1209561351.137129_cleaned.dat
# Candidate        =  PSR_0332+5434
# Telescope        =  AR
# Epoch_topo       =  58243.552895105662
# Epoch_bary       =  N/A
# T_sample         =  0.002
# Data Folded      =  7340032
# Data Avg         =  0.0473579380261997
# Data StdDev      =  1.00009814015897 
# Profile Bins     =  512
# Profile Avg      =  678.636332886043 
# Profile StdDev   =  119.744786995989 
# Reduced chi-sqr  =  1.181
# Prob(Noise)      <  0.00291   (~2.8 sigma)
# P_topo (ms)      =  714.542914918828  +/- 0.000512
# P'_topo (s/s)    =  -0                +/- 2.7e-10
# P''_topo (s/s^2) =  0                 +/- 1.19e-13
# P_bary (ms)      =  N/A
# P'_bary (s/s)    =  N/A
# P''_bary (s/s^2) =  N/A
# P_orb (s)        =  N/A
# asin(i)/c (s)    =  N/A
# eccentricity     =  N/A
# w (rad)          =  N/A
# T_peri           =  N/A
######################################################
   0  594.6262
   1  471.6275
   2  558.3224
   3  646.8718
   4  575.1841
   5  542.4315
   6  619.4519
   7  575.0431
   8  583.1436
   9  609.2912
  10  636.4188
  11  615.6362
  12  676.3645
  13  732.1097
  14  627.6387
  15  634.3452
  16  703.6127
  17  700.338
  18  718.4759
  19  718.9734
  20  640.7081
  21  652.401
  22  639.6034
  23  693.3449
  24  686.5132
  25  605.7839
  26  540.2556
  27  634.5631
  28  698.4492
  29  600.4211
  30  493.2701
  31  632.5186
  32  720.2057
  33  613.1313
  34  639.4396
  35  675.7981
  36  601.9223
  37  659.5425
  38  646.5587
  39  646.0603
  40  605.7975
  41  582.9852
  42  614.715
  43  677.6588
  44  569.1576
  45  561.0944
  46  614.0022
  47  646.1801
  48  655.3015
  49  595.1807
  50  609.4757
  51  680.1229
  52  662.3681
  53  690.7291
  54  778.4997
  55  699.079
  56  606.734
  57  674.0627
  58  757.8185
  59  740.7935
  60  602.3878
  61  683.3943
  62  741.8611
  63  788.4214
  64  655.7972
  65  597.0613
  66  647.2527
  67  609.5185
  68  666.9842
  69  693.0859
  70  677.0312
  71  714.353
  72  711.5065
  73  583.8323
  74  552.8613
  75  570.6498
  76  633.664
  77  633.8372
  78  671.2651
  79  653.494
  80  573.0113
  81  644.1751
  82  747.4117
  83  673.9132
  84  539.9501
  85  631.2983
  86  643.176
  87  656.2436
  88  728.6112
  89  698.9947
  90  679.0451
  91  706.6559
  92  710.1952
  93  701.404
  94  693.1975
  95  693.7478
  96  696.4869
  97  705.1987
  98  739.6209
  99  744.7238
 100  669.2061
 101  616.7959
 102  686.6507
 103  762.3678
 104  832.2849
 105  711.2343
 106  724.0353
 107  737.1832
 108  823.8748
 109  738.1164
 110  690.4865
 111  712.0974
 112  824.3116
 113  862.085
 114  741.9998
 115  744.5732
 116  821.1389
 117  840.0447
 118  766.7048
 119  732.6266
 120  745.1577
 121  629.3854
 122  781.2249
 123  815.0427
 124  630.3835
 125  789.5536
 126  796.0265
 127  907.4877
 128  805.3901
 129  645.0474
 130  656.451
 131  657.6843
 132  554.7891
 133  710.3651
 134  647.1486
 135  661.3486
 136  765.7581
 137  692.1793
 138  733.1298
 139  745.9014
 140  776.7616
 141  716.2415
 142  603.6576
 143  720.6827
 144  771.2645
 145  828.2327
 146  768.2015
 147  789.0816
 148  750.6763
 149  691.4929
 150  589.2726
 151  610.9887
 152  633.4882
 153  550.866
 154  680.4066
 155  762.7946
 156  619.1202
 157  660.886
 158  710.97
 159  686.2805
 160  743.8316
 161  697.1412
 162  613.8426
 163  750.8098
 164  662.5555
 165  611.6309
 166  692.1141
 167  659.4545
 168  683.1422
 169  607.1575
 170  649.3387
 171  544.3647
 172  598.8458
 173  668.6592
 174  655.5467
 175  634.8821
 176  772.2398
 177  749.2494
 178  661.5316
 179  662.3409
 180  764.8465
 181  748.7935
 182  716.2616
 183  628.0052
 184  635.8819
 185  581.79
 186  576.9061
 187  768.725
 188  814.7757
 189  801.1484
 190  701.1447
 191  739.4397
 192  843.3246
 193  748.046
 194  688.1471
 195  571.553
 196  625.2494
 197  744.2586
 198  794.6155
 199  716.1807
 200  695.8425
 201  744.6743
 202  766.2298
 203  747.265
 204  608.2698
 205  599.6738
 206  664.4007
 207  724.2792
 208  750.5881
 209  693.7647
 210  803.4619
 211  735.9785
 212  677.6187
 213  683.3546
 214  797.5761
 215  786.0728
 216  729.6468
 217  789.2436
 218  784.0739
 219  678.3573
 220  692.6277
 221  694.113
 222  673.5574
 223  677.6406
 224  629.4081
 225  654.7497
 226  729.5896
 227  678.8427
 228  734.1346
 229  723.4602
 230  625.3954
 231  689.664
 232  678.7688
 233  741.8875
 234  733.2925
 235  697.6088
 236  670.6574
 237  689.8027
 238  737.5165
 239  785.0145
 240  746.321
 241  689.6996
 242  657.9971
 243  681.0163
 244  724.9623
 245  673.679
 246  676.6312
 247  716.8987
 248  841.2315
 249  754.9415
 250  668.3723
 251  658.92
 252  689.5618
 253  707.0168
 254  709.7344
 255  541.0402
 256  586.6882
 257  616.3301
 258  595.0395
 259  647.4613
 260  676.76
 261  675.1002
 262  612.557
 263  783.7253
 264  804.264
 265  738.4105
 266  706.7086
 267  654.2726
 268  711.6749
 269  698.1589
 270  689.3096
 271  736.6626
 272  709.7231
 273  682.6564
 274  673.8886
 275  762.8335
 276  849.5796
 277  762.2252
 278  730.5007
 279  780.3929
 280  639.845
 281  735.6068
 282  708.6096
 283  600.908
 284  691.2242
 285  742.4225
 286  747.3323
 287  751.4869
 288  780.3297
 289  702.2125
 290  699.0543
 291  687.618
 292  683.317
 293  737.9515
 294  797.6932
 295  797.8879
 296  830.5316
 297  867.5266
 298  787.1105
 299  707.423
 300  641.0359
 301  653.6433
 302  692.2825
 303  670.2395
 304  652.1681
 305  618.739
 306  637.3883
 307  818.6538
 308  814.5778
 309  695.9586
 310  678.0848
 311  780.8335
 312  834.6873
 313  813.7101
 314  966.0245
 315  1214.106
 316  1249.867
 317  1198.372
 318  1093.931
 319  1002.743
 320  924.3937
 321  831.6095
 322  731.6486
 323  622.4789
 324  706.0599
 325  781.6453
 326  650.571
 327  691.9541
 328  733.87
 329  691.9441
 330  788.2156
 331  792.8619
 332  752.9258
 333  790.8936
 334  729.312
 335  658.7623
 336  665.8383
 337  663.1226
 338  662.3527
 339  678.0587
 340  712.9075
 341  780.8112
 342  697.2346
 343  589.3052
 344  626.4424
 345  677.8268
 346  651.4607
 347  681.2665
 348  598.8248
 349  539.207
 350  547.883
 351  599.6587
 352  623.3296
 353  600.814
 354  582.2726
 355  578.3582
 356  524.1842
 357  500.105
 358  530.9453
 359  546.3355
 360  535.9162
 361  530.7936
 362  520.6227
 363  671.9158
 364  620.4719
 365  513.502
 366  486.5596
 367  499.709
 368  428.0258
 369  583.2385
 370  577.7675
 371  608.451
 372  548.1415
 373  599.6772
 374  486.2442
 375  478.0279
 376  589.1404
 377  533.3533
 378  513.9314
 379  547.4011
 380  487.6762
 381  496.4227
 382  615.9874
 383  552.475
 384  527.6239
 385  563.7805
 386  589.8395
 387  650.4057
 388  596.6582
 389  692.6681
 390  723.3585
 391  745.1264
 392  652.2137
 393  661.2137
 394  587.7711
 395  565.8827
 396  669.4595
 397  604.2182
 398  587.3853
 399  555.3874
 400  640.0649
 401  711.3295
 402  701.8984
 403  698.0793
 404  737.9198
 405  809.8271
 406  742.3417
 407  753.7217
 408  677.9035
 409  702.0252
 410  742.0791
 411  649.8038
 412  719.61
 413  722.8322
 414  658.8661
 415  677.2802
 416  551.5234
 417  648.9793
 418  747.9944
 419  747.5728
 420  807.6216
 421  772.022
 422  749.1432
 423  724.9675
 424  784.2086
 425  790.4902
 426  781.9783
 427  655.9959
 428  626.4152
 429  624.9512
 430  648.4384
 431  633.8787
 432  546.2224
 433  663.071
 434  652.2183
 435  656.3159
 436  553.0812
 437  553.9142
 438  631.085
 439  632.7494
 440  495.3162
 441  462.2415
 442  605.6752
 443  490.1079
 444  537.4905
 445  631.8281
 446  566.7821
 447  586.0963
 448  719.3252
 449  765.2017
 450  650.6392
 451  695.5562
 452  704.8544
 453  688.7081
 454  686.2789
 455  656.1424
 456  719.7748
 457  692.2695
 458  741.7723
 459  771.9993
 460  838.4948
 461  699.9777
 462  546.4832
 463  714.4699
 464  711.5939
 465  659.7299
 466  626.6757
 467  627.5535
 468  722.6004
 469  669.2971
 470  576.3691
 471  613.8682
 472  696.3999
 473  705.1581
 474  706.676
 475  544.0198
 476  641.7642
 477  640.9429
 478  481.4784
 479  695.7405
 480  731.142
 481  688.2907
 482  578.1558
 483  691.1721
 484  592.6178
 485  610.0974
 486  649.4282
 487  647.7839
 488  508.118
 489  530.7543
 490  656.7422
 491  696.007
 492  655.3683
 493  601.0228
 494  587.5204
 495  593.6035
 496  579.1029
 497  655.8278
 498  779.2263
 499  666.9401
 500  611.0552
 501  688.1198
 502  678.3115
 503  723.7441
 504  670.9813
 505  625.1873
 506  671.234
 507  686.5386
 508  613.616
 509  621.663
 510  568.5066
 511  671.9429
