# Input file       =  1209632602.116271_cleaned.dat
# Candidate        =  PSR_0332+5434
# Telescope        =  AR
# Epoch_topo       =  58244.377559216096
# Epoch_bary       =  N/A
# T_sample         =  0.002
# Data Folded      =  7340032
# Data Avg         =  0.0824593080677529
# Data StdDev      =  4.46809742952347 
# Profile Bins     =  512
# Profile Avg      =  1181.71479265452 
# Profile StdDev   =  534.978872064069 
# Reduced chi-sqr  =  1.031
# Prob(Noise)      <  0.304   (~0.5 sigma)
# P_topo (ms)      =  714.541816108704  +/- 0.000418
# P'_topo (s/s)    =  -0                +/- 2.2e-10
# P''_topo (s/s^2) =  0                 +/- 9.73e-14
# P_bary (ms)      =  N/A
# P'_bary (s/s)    =  N/A
# P''_bary (s/s^2) =  N/A
# P_orb (s)        =  N/A
# asin(i)/c (s)    =  N/A
# eccentricity     =  N/A
# w (rad)          =  N/A
# T_peri           =  N/A
######################################################
   0  674.4083
   1  965.2971
   2  848.6208
   3  496.5051
   4  571.8414
   5  789.9684
   6  943.2888
   7  801.3209
   8  724.936
   9  865.4064
  10  898.056
  11  1076.052
  12  983.1926
  13  963.2045
  14  804.5347
  15  896.3277
  16  1197.154
  17  1261.268
  18  1099.675
  19  1048.824
  20  859.5267
  21  789.8122
  22  475.8374
  23  397.3419
  24  746.514
  25  1000.311
  26  1243.39
  27  1276.356
  28  1312.481
  29  1299.094
  30  1274.812
  31  1474.73
  32  1421.669
  33  1575.413
  34  1664.033
  35  1084.834
  36  951.3371
  37  1419.646
  38  1141.664
  39  883.0421
  40  1396.81
  41  1371.547
  42  1334.96
  43  1443.492
  44  1381.547
  45  1804.6
  46  1899.106
  47  2171.618
  48  2457.725
  49  3181.362
  50  3462.74
  51  3651.762
  52  3398.433
  53  3088.854
  54  2504.977
  55  2139.591
  56  2071.169
  57  1622.494
  58  1810.032
  59  1686.564
  60  1566.536
  61  1176.88
  62  1247.164
  63  1640.249
  64  1861.52
  65  1553.418
  66  1622.341
  67  1800.316
  68  1409.833
  69  1283.242
  70  1114.886
  71  1212.157
  72  1106.58
  73  1355.61
  74  1298.098
  75  966.4088
  76  1277.35
  77  1440.528
  78  1537.866
  79  1197.523
  80  1345.492
  81  1290.974
  82  1343.328
  83  1131.275
  84  1043.451
  85  1003.825
  86  1153.962
  87  1142.368
  88  1124.52
  89  1305.046
  90  1617.073
  91  1699.18
  92  1258.342
  93  1163.99
  94  1152.719
  95  1129.204
  96  1133.179
  97  1169.843
  98  1017.12
  99  1015.42
 100  1170.006
 101  1142.537
 102  1114.98
 103  1148.188
 104  1195.153
 105  1416.229
 106  1407.658
 107  1287.269
 108  937.6636
 109  821.5742
 110  1171.919
 111  1224.858
 112  1084.655
 113  981.6749
 114  1256.976
 115  891.5723
 116  768.2513
 117  734.9699
 118  685.9352
 119  781.9398
 120  553.5293
 121  287.93
 122  349.4582
 123  809.9052
 124  707.5605
 125  823.7825
 126  809.5247
 127  829.2976
 128  803.7092
 129  777.9529
 130  1030.694
 131  1376.74
 132  1088.559
 133  478.7388
 134  115.3923
 135  248.3355
 136  576.0373
 137  552.0986
 138  458.467
 139  657.8915
 140  1019.636
 141  691.3889
 142  419.9839
 143  671.7277
 144  876.4717
 145  1164.167
 146  1127.988
 147  1344.196
 148  1256.229
 149  1424.602
 150  1355.973
 151  855.8482
 152  1200.708
 153  1043.066
 154  1034.387
 155  1154.37
 156  1064.497
 157  1031.322
 158  1106.61
 159  1124.052
 160  1381.519
 161  1412.4
 162  1587.177
 163  1002.158
 164  954.6678
 165  1333.24
 166  1053.448
 167  1232.646
 168  1108.092
 169  1001.589
 170  1044.357
 171  1282.229
 172  1711.925
 173  1423.404
 174  1103.375
 175  1045.615
 176  1101.715
 177  1351.686
 178  1195.795
 179  1346.11
 180  1607.543
 181  1464.256
 182  1254.188
 183  1192.389
 184  1335.923
 185  1266.816
 186  1593.235
 187  1504.066
 188  1421.718
 189  1369.521
 190  1444.928
 191  1529.335
 192  1337.111
 193  1434.362
 194  1577.146
 195  1898.789
 196  1717.19
 197  1687.393
 198  1188.598
 199  1470.749
 200  1492.343
 201  1168.894
 202  984.8921
 203  1164.256
 204  1596.037
 205  1576.85
 206  1444.763
 207  1409.426
 208  1300.633
 209  1277.77
 210  1237.909
 211  1538.196
 212  1698.403
 213  1629.34
 214  1141.276
 215  1047.23
 216  1214.434
 217  1414.219
 218  1086.961
 219  802.2311
 220  946.5181
 221  1270.648
 222  1243.784
 223  1139.932
 224  1087.503
 225  984.9789
 226  1299.637
 227  1469.823
 228  1243.707
 229  995.8745
 230  1218.651
 231  1167.732
 232  1093.682
 233  949.4898
 234  1232.223
 235  1026.774
 236  556.2734
 237  784.9296
 238  1020.934
 239  1389.192
 240  1380.869
 241  1249.373
 242  1089.382
 243  1000.557
 244  983.1237
 245  940.2916
 246  1013.547
 247  1137.119
 248  881.9166
 249  694.9095
 250  720.4978
 251  856.6362
 252  606.3991
 253  957.151
 254  984.4233
 255  727.152
 256  877.5731
 257  727.2079
 258  838.8422
 259  1014.863
 260  1104.984
 261  1012.274
 262  1011.933
 263  966.3694
 264  1025.458
 265  1207.299
 266  1129.85
 267  1051.822
 268  1071.048
 269  838.9667
 270  700.5337
 271  1035.16
 272  1109.647
 273  992.1005
 274  1409.106
 275  1439.769
 276  1547.202
 277  1363.055
 278  1430.476
 279  1771.119
 280  1640.453
 281  1669.784
 282  1368.188
 283  1334.407
 284  1144.363
 285  954.0883
 286  1216.931
 287  1392.405
 288  1399.043
 289  1401.815
 290  1332.148
 291  1248.221
 292  1100.535
 293  1104.468
 294  1010.41
 295  954.7109
 296  880.1006
 297  839.588
 298  1012.633
 299  1091.287
 300  953.1641
 301  1197.79
 302  1277.102
 303  1091.194
 304  988.7028
 305  1013.774
 306  1267.911
 307  1330.972
 308  1230.204
 309  1354.662
 310  1260.324
 311  1365.044
 312  1414.889
 313  1351.167
 314  1304.566
 315  1095.037
 316  1121.321
 317  1147.523
 318  1159.673
 319  1061.746
 320  1468.828
 321  1565.724
 322  1316.258
 323  1396.909
 324  1229.848
 325  1276.455
 326  939.1967
 327  965.7502
 328  1229.097
 329  1093.595
 330  901.7382
 331  461.2066
 332  819.6058
 333  1242.939
 334  668.3138
 335  778.7762
 336  854.4207
 337  906.2252
 338  778.0125
 339  661.9636
 340  1065.278
 341  1315.618
 342  1318.85
 343  1310.726
 344  1305.778
 345  1374.221
 346  1259.872
 347  1239.598
 348  1529.611
 349  1076.18
 350  854.6838
 351  873.4099
 352  995.2023
 353  1074.882
 354  1279.963
 355  1594.186
 356  1611.881
 357  1519.489
 358  1439.862
 359  1188.606
 360  1248.377
 361  1448.683
 362  1707.679
 363  1436.146
 364  1169.705
 365  1699.184
 366  1231.492
 367  759.4186
 368  1147.468
 369  1474.2
 370  1386.191
 371  1484.715
 372  1486.917
 373  1836.877
 374  2238.311
 375  2258.17
 376  1853.199
 377  1668.188
 378  1901.975
 379  2081.748
 380  1887.371
 381  1738.639
 382  1559.02
 383  1436.961
 384  1420.727
 385  1441.699
 386  1468.225
 387  1610.951
 388  1858.799
 389  1702.74
 390  1306.992
 391  1518.448
 392  1398.944
 393  1382.807
 394  1391.959
 395  1383.526
 396  1270.527
 397  1017.33
 398  1102.993
 399  916.1171
 400  992.14
 401  1034.493
 402  1079.728
 403  1342.018
 404  1154.671
 405  1113.82
 406  1389.153
 407  1606.202
 408  1393.813
 409  1399.93
 410  1457.926
 411  1170.212
 412  1043.96
 413  718.9745
 414  796.982
 415  937.111
 416  815.6709
 417  861.572
 418  715.1713
 419  720.7745
 420  579.7815
 421  756.5019
 422  918.3065
 423  773.9291
 424  793.4385
 425  879.2224
 426  895.0672
 427  697.0994
 428  932.7906
 429  913.2597
 430  596.5301
 431  664.3723
 432  863.3637
 433  843.0229
 434  663.6062
 435  917.3443
 436  775.8119
 437  848.1926
 438  1073.437
 439  1083.692
 440  1598.408
 441  1263.473
 442  1497.062
 443  1297.244
 444  1081.244
 445  1201.485
 446  1210.486
 447  1561.46
 448  1580.741
 449  1235.336
 450  1027.781
 451  1134.039
 452  1254.766
 453  867.7344
 454  755.4437
 455  1002.755
 456  1066.106
 457  1127.727
 458  978.2711
 459  936.881
 460  1130.445
 461  1123.672
 462  1044.802
 463  922.737
 464  1094.325
 465  1119.105
 466  1039.803
 467  1091.102
 468  1162.771
 469  1162.592
 470  1007.193
 471  1010.173
 472  1043.548
 473  1390.856
 474  1329.323
 475  1098.501
 476  1316.954
 477  1321.715
 478  1103.781
 479  729.5643
 480  652.5019
 481  1141.01
 482  1028.627
 483  858.7338
 484  807.8902
 485  1122.069
 486  908.3751
 487  1277.519
 488  1336.844
 489  1211.879
 490  1197.267
 491  973.556
 492  1028.52
 493  967.1981
 494  1079.51
 495  1322.917
 496  1337.721
 497  1141.231
 498  956.9067
 499  657.1342
 500  408.7513
 501  615.8955
 502  1002.051
 503  990.2382
 504  857.5891
 505  1060.801
 506  940.1949
 507  970.2787
 508  691.4266
 509  921.7735
 510  684.9953
 511  820.0348
