# Input file       =  1209101040.113664_cleaned.dat
# Candidate        =  PSR_0332+5434
# Telescope        =  AR
# Epoch_topo       =  58238.225221222965
# Epoch_bary       =  N/A
# T_sample         =  0.002
# Data Folded      =  7208960
# Data Avg         =  0.0445696422444628
# Data StdDev      =  1.00006546860919 
# Profile Bins     =  512
# Profile Avg      =  627.516868289857 
# Profile StdDev   =  118.666944244738 
# Reduced chi-sqr  =  1.572
# Prob(Noise)      <  2.35e-15   (~7.8 sigma)
# P_topo (ms)      =  714.547414357547  +/- 6.35e-05
# P'_topo (s/s)    =  -0                +/- 3.41e-11
# P''_topo (s/s^2) =  0                 +/- 1.53e-14
# P_bary (ms)      =  N/A
# P'_bary (s/s)    =  N/A
# P''_bary (s/s^2) =  N/A
# P_orb (s)        =  N/A
# asin(i)/c (s)    =  N/A
# eccentricity     =  N/A
# w (rad)          =  N/A
# T_peri           =  N/A
######################################################
   0  556.0223
   1  759.9982
   2  746.2869
   3  767.8984
   4  680.8605
   5  652.5606
   6  619.173
   7  645.5374
   8  636.3869
   9  544.4921
  10  663.2453
  11  720.2262
  12  645.9639
  13  584.9457
  14  447.3449
  15  508.5812
  16  551.2051
  17  599.8898
  18  638.8198
  19  626.9439
  20  564.5436
  21  590.111
  22  621.1262
  23  563.5255
  24  523.2161
  25  528.5812
  26  608.4932
  27  740.7557
  28  609.0082
  29  600.7308
  30  587.6243
  31  606.6682
  32  607.3973
  33  644.259
  34  531.2018
  35  506.4907
  36  665.8141
  37  585.9959
  38  546.4175
  39  459.6677
  40  490.2509
  41  576.4414
  42  633.0291
  43  581.969
  44  677.4092
  45  667.3491
  46  618.4742
  47  660.2435
  48  710.0812
  49  710.9232
  50  669.9636
  51  684.0998
  52  729.834
  53  621.7484
  54  577.2464
  55  455.1619
  56  527.8337
  57  524.5416
  58  539.4666
  59  577.3468
  60  652.8937
  61  657.6185
  62  576.3423
  63  615.011
  64  673.5297
  65  677.7924
  66  627.3832
  67  642.6188
  68  717.7783
  69  766.8843
  70  694.6087
  71  733.3732
  72  764.9395
  73  745.5361
  74  697.3156
  75  707.2844
  76  738.5242
  77  671.4043
  78  585.6856
  79  778.9938
  80  760.5623
  81  688.4791
  82  634.6233
  83  685.9028
  84  731.3006
  85  599.3504
  86  703.3882
  87  773.0085
  88  701.3069
  89  523.5648
  90  506.9774
  91  621.8885
  92  782.2749
  93  651.9283
  94  568.9398
  95  548.7736
  96  567.8639
  97  531.4045
  98  538.2534
  99  659.1078
 100  664.757
 101  655.0052
 102  577.4774
 103  694.0857
 104  607.8658
 105  566.2363
 106  493.5251
 107  643.0498
 108  512.5513
 109  604.3478
 110  581.1424
 111  460.6273
 112  471.9897
 113  542.5029
 114  616.9557
 115  647.2518
 116  673.4704
 117  685.1588
 118  690.4267
 119  652.8696
 120  589.0732
 121  656.2453
 122  583.6411
 123  561.7797
 124  520.291
 125  609.1322
 126  723.1542
 127  710.9672
 128  620.581
 129  586.3878
 130  675.2143
 131  561.3829
 132  493.6606
 133  719.4438
 134  738.778
 135  719.2632
 136  686.8231
 137  694.7316
 138  754.6004
 139  760.7249
 140  688.1908
 141  687.8223
 142  809.9233
 143  843.3152
 144  740.0936
 145  608.7333
 146  704.4577
 147  652.6818
 148  735.4576
 149  886.0115
 150  729.4628
 151  872.5844
 152  735.9086
 153  645.538
 154  639.6121
 155  661.9227
 156  654.4788
 157  599.1125
 158  645.1156
 159  648.4727
 160  778.8937
 161  731.8433
 162  583.6271
 163  721.105
 164  644.868
 165  645.4926
 166  677.2029
 167  864.1295
 168  686.4697
 169  649.9631
 170  636.4498
 171  534.4526
 172  577.4498
 173  575.2795
 174  632.2656
 175  708.5057
 176  732.5811
 177  676.9111
 178  643.8342
 179  636.4344
 180  590.8687
 181  620.2009
 182  632.7896
 183  679.374
 184  734.5762
 185  673.2407
 186  553.6985
 187  541.364
 188  522.9493
 189  427.8373
 190  566.306
 191  676.1519
 192  661.4111
 193  634.4719
 194  576.2722
 195  586.6688
 196  570.4095
 197  703.1121
 198  634.252
 199  656.4451
 200  609.4865
 201  464.3347
 202  554.4889
 203  639.5067
 204  601.7203
 205  567.7322
 206  471.2171
 207  549.6257
 208  579.6702
 209  590.6821
 210  623.3185
 211  763.9041
 212  684.741
 213  633.5857
 214  561.4041
 215  549.8467
 216  584.4359
 217  699.3667
 218  684.536
 219  538.5305
 220  673.7263
 221  570.5186
 222  417.8499
 223  517.9607
 224  757.1382
 225  807.6498
 226  614.358
 227  759.3741
 228  710.4803
 229  562.3633
 230  529.2627
 231  536.8878
 232  659.6705
 233  714.0858
 234  791.7964
 235  581.9587
 236  572.81
 237  570.7687
 238  501.5304
 239  589.3703
 240  625.1647
 241  561.6898
 242  661.5372
 243  694.7964
 244  708.9899
 245  594.5622
 246  446.7415
 247  452.8141
 248  492.3857
 249  553.5999
 250  513.0984
 251  573.2164
 252  600.1922
 253  540.3955
 254  437.1745
 255  494.9729
 256  360.0211
 257  521.6523
 258  514.4085
 259  559.5658
 260  526.7274
 261  577.5046
 262  530.5237
 263  455.9431
 264  522.7967
 265  573.863
 266  647.5134
 267  640.1221
 268  542.5764
 269  466.1819
 270  438.2324
 271  478.8864
 272  437.1324
 273  413.4154
 274  520.9226
 275  595.7817
 276  640.7435
 277  609.5663
 278  687.2549
 279  771.4541
 280  668.3189
 281  567.2546
 282  520.7744
 283  643.2447
 284  689.7878
 285  718.0927
 286  632.6718
 287  599.8571
 288  559.7712
 289  509.4212
 290  459.3163
 291  575.8762
 292  534.226
 293  672.0931
 294  684.5569
 295  500.0899
 296  502.2996
 297  539.3867
 298  478.9948
 299  623.9257
 300  789.2748
 301  737.4957
 302  672.0162
 303  605.3462
 304  452.1519
 305  252.2767
 306  437.1756
 307  583.6964
 308  543.8974
 309  513.4698
 310  690.6844
 311  700.028
 312  669.8928
 313  593.0366
 314  628.2637
 315  717.1797
 316  618.9941
 317  582.0689
 318  611.0094
 319  578.64
 320  503.9116
 321  517.8058
 322  481.4821
 323  529.6602
 324  626.472
 325  746.7001
 326  739.1825
 327  584.7673
 328  658.2946
 329  442.6664
 330  600.1178
 331  701.0118
 332  610.1379
 333  678.8718
 334  593.8809
 335  611.6501
 336  567.1895
 337  511.5523
 338  502.3526
 339  529.6757
 340  547.03
 341  545.2436
 342  575.8659
 343  547.0588
 344  446.0955
 345  353.3227
 346  413.0368
 347  572.7812
 348  490.3127
 349  487.2439
 350  552.2802
 351  614.098
 352  574.8842
 353  448.6592
 354  504.5686
 355  444.6831
 356  548.09
 357  642.6517
 358  528.9384
 359  539.8361
 360  664.8738
 361  759.9892
 362  651.8755
 363  704.4769
 364  678.2573
 365  640.21
 366  644.6755
 367  674.5057
 368  680.5515
 369  680.3375
 370  607.9795
 371  523.4993
 372  582.3854
 373  615.28
 374  666.6934
 375  665.9594
 376  561.4543
 377  558.8449
 378  495.2438
 379  445.1544
 380  582.8557
 381  549.9189
 382  652.3082
 383  652.9286
 384  664.3375
 385  638.6455
 386  615.5417
 387  550.3434
 388  453.3488
 389  624.4158
 390  669.109
 391  711.7626
 392  691.4111
 393  729.1082
 394  585.0316
 395  583.1031
 396  592.4705
 397  557.5795
 398  683.3
 399  666.8283
 400  697.6843
 401  603.2648
 402  540.6885
 403  424.8636
 404  632.6153
 405  614.5362
 406  762.8492
 407  795.3353
 408  803.9974
 409  594.3576
 410  529.0153
 411  685.8848
 412  556.1052
 413  643.5818
 414  686.4584
 415  606.972
 416  592.3467
 417  625.4019
 418  680.7108
 419  569.6667
 420  535.7792
 421  511.5515
 422  601.7798
 423  684.231
 424  741.7129
 425  690.4504
 426  679.561
 427  701.0847
 428  598.4435
 429  587.7316
 430  693.6615
 431  719.7481
 432  749.5697
 433  756.4728
 434  731.7718
 435  630.9152
 436  667.3624
 437  638.8112
 438  610.2261
 439  714.3616
 440  765.0155
 441  736.2282
 442  754.0541
 443  681.4102
 444  595.6716
 445  589.9019
 446  628.3604
 447  605.4972
 448  698.6749
 449  611.8244
 450  613.6326
 451  666.9562
 452  617.1605
 453  527.6134
 454  529.116
 455  583.2877
 456  657.3806
 457  744.3644
 458  808.4656
 459  682.4595
 460  517.0688
 461  544.6812
 462  602.6265
 463  764.3069
 464  650.6383
 465  697.3984
 466  711.4717
 467  741.2415
 468  686.6869
 469  645.742
 470  635.1219
 471  775.7344
 472  858.1772
 473  988.7944
 474  1119.27
 475  1238.42
 476  1377.786
 477  1233.127
 478  1011.7
 479  675.2716
 480  652.7915
 481  738.5797
 482  587.823
 483  639.9506
 484  647.0734
 485  558.4915
 486  547.1982
 487  571.8039
 488  566.2747
 489  693.047
 490  802.5964
 491  679.7132
 492  667.0495
 493  615.9025
 494  625.5143
 495  643.6144
 496  720.3026
 497  737.1499
 498  596.6633
 499  707.3624
 500  701.8665
 501  581.3687
 502  588.6185
 503  686.5637
 504  774.5181
 505  668.2354
 506  688.8453
 507  606.1905
 508  651.1905
 509  611.3188
 510  741.2561
 511  620.7628
