# Input file       =  1209475210.112065_cleaned.dat
# Candidate        =  PSR_0332+5434
# Telescope        =  AR
# Epoch_topo       =  58242.555892500750
# Epoch_bary       =  N/A
# T_sample         =  0.002
# Data Folded      =  7340032
# Data Avg         =  0.0469142572872501
# Data StdDev      =  1.00010918536877 
# Profile Bins     =  512
# Profile Avg      =  672.591626913396 
# Profile StdDev   =  119.746109472496 
# Reduced chi-sqr  =  1.307
# Prob(Noise)      <  3.5e-06   (~4.5 sigma)
# P_topo (ms)      =  714.543834986498  +/- 0.000256
# P'_topo (s/s)    =  -0                +/- 1.35e-10
# P''_topo (s/s^2) =  0                 +/- 5.96e-14
# P_bary (ms)      =  N/A
# P'_bary (s/s)    =  N/A
# P''_bary (s/s^2) =  N/A
# P_orb (s)        =  N/A
# asin(i)/c (s)    =  N/A
# eccentricity     =  N/A
# w (rad)          =  N/A
# T_peri           =  N/A
######################################################
   0  1306.296
   1  1181.519
   2  1008.284
   3  966.9677
   4  710.0286
   5  638.8834
   6  714.4984
   7  698.5721
   8  737.9554
   9  683.0622
  10  769.8559
  11  738.0667
  12  813.8031
  13  708.5926
  14  680.3578
  15  726.5209
  16  625.9149
  17  628.4783
  18  608.8278
  19  556.0012
  20  623.9348
  21  594.3602
  22  484.7777
  23  501.8791
  24  549.7791
  25  636.5369
  26  621.7896
  27  616.2075
  28  742.0773
  29  638.8304
  30  682.7691
  31  593.9111
  32  629.3916
  33  642.6105
  34  494.3123
  35  555.0348
  36  656.5125
  37  667.9095
  38  727.4455
  39  635.0599
  40  666.4537
  41  669.4748
  42  719.3381
  43  660.2088
  44  556.3755
  45  610.9698
  46  634.2875
  47  674.6255
  48  674.0507
  49  647.1138
  50  684.5959
  51  691.9604
  52  664.0281
  53  681.7393
  54  701.6471
  55  705.6876
  56  771.991
  57  745.8931
  58  692.5685
  59  599.9507
  60  630.0591
  61  779.3745
  62  687.4092
  63  690.4504
  64  811.6516
  65  752.7584
  66  686.1988
  67  711.0628
  68  704.666
  69  628.5833
  70  685.555
  71  686.5052
  72  612.8337
  73  762.6548
  74  751.65
  75  667.3303
  76  603.4099
  77  641.9644
  78  802.1993
  79  780.731
  80  779.6763
  81  728.793
  82  598.768
  83  600.4501
  84  702.9471
  85  698.8329
  86  764.2655
  87  731.6354
  88  663.9999
  89  619.7838
  90  667.0315
  91  679.8079
  92  736.7332
  93  684.9581
  94  676.3899
  95  728.9449
  96  703.2974
  97  693.8441
  98  566.5223
  99  627.2224
 100  630.0785
 101  664.3826
 102  618.4728
 103  613.5464
 104  603.5592
 105  618.8875
 106  721.8717
 107  719.6113
 108  732.1561
 109  787.6428
 110  811.6498
 111  769.2914
 112  746.3159
 113  723.8788
 114  711.063
 115  867.3498
 116  722.5977
 117  610.1005
 118  669.9741
 119  741.0751
 120  699.6721
 121  636.3941
 122  593.8038
 123  736.7344
 124  751.4738
 125  608.8722
 126  458.3442
 127  484.2924
 128  630.7512
 129  665.0436
 130  713.4236
 131  636.9099
 132  626.2866
 133  567.8558
 134  541.7065
 135  616.2735
 136  752.0469
 137  675.5339
 138  557.282
 139  638.0994
 140  757.254
 141  669.8019
 142  643.2535
 143  664.2362
 144  680.3485
 145  629.9507
 146  623.6089
 147  542.8917
 148  586.464
 149  537.1727
 150  585.1631
 151  593.9782
 152  590.2077
 153  596.215
 154  614.4157
 155  705.3633
 156  654.8237
 157  673.3453
 158  691.1307
 159  683.2122
 160  586.9389
 161  626.7097
 162  696.1266
 163  726.6324
 164  657.3431
 165  705.7087
 166  687.3642
 167  537.3925
 168  618.7413
 169  745.6251
 170  763.4801
 171  743.0575
 172  633.7672
 173  497.3246
 174  769.5237
 175  878.3456
 176  804.1216
 177  654.7928
 178  579.2818
 179  612.4225
 180  588.9357
 181  526.2581
 182  500.0037
 183  497.137
 184  676.9454
 185  698.7111
 186  650.5575
 187  700.1463
 188  645.486
 189  656.939
 190  683.9985
 191  709.1022
 192  663.4021
 193  728.5531
 194  839.7534
 195  800.5098
 196  698.3356
 197  758.6787
 198  823.5283
 199  692.6606
 200  703.2906
 201  750.1235
 202  726.7458
 203  757.248
 204  622.2586
 205  676.3344
 206  687.2816
 207  708.0623
 208  615.1367
 209  566.1544
 210  641.1613
 211  650.4608
 212  596.114
 213  656.7448
 214  730.3604
 215  569.541
 216  543.035
 217  564.2808
 218  744.8557
 219  768.316
 220  725.9584
 221  746.2302
 222  740.9194
 223  819.7963
 224  723.9395
 225  728.0142
 226  721.0451
 227  692.7114
 228  627.1888
 229  640.6462
 230  629.1358
 231  604.692
 232  586.9752
 233  567.2003
 234  520.6341
 235  594.2436
 236  595.2857
 237  626.8016
 238  773.5178
 239  849.4821
 240  800.1385
 241  788.3403
 242  695.6353
 243  701.3156
 244  805.8348
 245  802.6729
 246  782.7668
 247  775.0966
 248  719.9619
 249  667.1095
 250  588.2914
 251  610.8289
 252  642.4918
 253  647.864
 254  633.4956
 255  715.9547
 256  826.637
 257  773.4702
 258  812.8102
 259  767.0705
 260  769.0825
 261  769.6919
 262  714.8422
 263  624.3831
 264  653.7636
 265  684.259
 266  601.3176
 267  575.1565
 268  627.1703
 269  691.0662
 270  657.746
 271  669.6691
 272  655.0688
 273  659.6005
 274  719.0091
 275  685.2248
 276  588.2303
 277  686.3762
 278  610.1144
 279  572.7861
 280  690.6339
 281  740.2396
 282  645.4078
 283  630.9233
 284  687.8854
 285  718.8037
 286  677.1513
 287  641.1742
 288  689.8857
 289  765.3505
 290  749.9078
 291  656.8646
 292  588.0392
 293  630.6315
 294  761.6249
 295  791.7509
 296  744.5972
 297  670.2999
 298  596.6719
 299  565.5913
 300  556.6177
 301  549.5084
 302  560.2952
 303  584.7038
 304  658.6028
 305  626.0854
 306  635.4869
 307  623.2552
 308  617.0255
 309  580.5039
 310  602.0649
 311  622.1406
 312  662.8195
 313  645.0172
 314  688.1711
 315  560.2725
 316  568.5814
 317  514.8925
 318  599.9366
 319  591.0389
 320  547.3389
 321  594.134
 322  690.9192
 323  620.2102
 324  586.4139
 325  656.6701
 326  734.1952
 327  730.2655
 328  685.2495
 329  800.4177
 330  748.1041
 331  584.4344
 332  519.2947
 333  571.2197
 334  635.2297
 335  609.7205
 336  646.1138
 337  654.7506
 338  554.6844
 339  599.4181
 340  588.9493
 341  653.6328
 342  638.506
 343  665.4739
 344  700.1214
 345  634.7599
 346  605.9333
 347  629.8661
 348  586.101
 349  615.05
 350  628.4367
 351  669.9165
 352  588.533
 353  590.9515
 354  709.3528
 355  680.9216
 356  559.9685
 357  636.2604
 358  635.65
 359  631.2148
 360  639.4177
 361  553.5531
 362  673.3996
 363  717.8912
 364  668.6979
 365  752.4326
 366  818.0283
 367  772.3326
 368  798.2416
 369  790.0309
 370  646.2571
 371  602.8239
 372  668.5142
 373  651.6829
 374  693.7842
 375  655.4171
 376  746.5889
 377  696.8137
 378  723.1404
 379  661.4124
 380  613.5542
 381  631.0895
 382  633.4832
 383  717.8497
 384  700.5833
 385  639.8585
 386  724.9118
 387  717.1613
 388  621.6714
 389  693.1732
 390  751.9758
 391  723.1107
 392  642.4156
 393  603.1931
 394  644.0734
 395  651.1956
 396  677.2216
 397  631.9769
 398  648.6302
 399  639.5148
 400  659.9256
 401  798.0312
 402  879.0209
 403  745.9732
 404  703.732
 405  749.9333
 406  720.0306
 407  728.1015
 408  774.6774
 409  724.8485
 410  726.9067
 411  785.1823
 412  668.8525
 413  739.9467
 414  782.4819
 415  738.2312
 416  819.1229
 417  874.8461
 418  718.2577
 419  689.8598
 420  792.0031
 421  752.2718
 422  716.4035
 423  673.2766
 424  733.0422
 425  684.5098
 426  615.3542
 427  609.6622
 428  597.103
 429  650.4197
 430  538.7662
 431  592.6832
 432  610.7421
 433  552.5934
 434  538.2563
 435  494.9453
 436  510.8102
 437  576.415
 438  632.6745
 439  691.7725
 440  601.4106
 441  512.4782
 442  476.6149
 443  443.089
 444  474.3327
 445  653.4564
 446  637.5998
 447  653.1897
 448  688.9808
 449  703.4977
 450  579.4693
 451  680.785
 452  621.4272
 453  624.2412
 454  711.2787
 455  777.9385
 456  765.6025
 457  770.1513
 458  682.0057
 459  517.8871
 460  518.7984
 461  640.2572
 462  706.5441
 463  580.8755
 464  504.8447
 465  519.8437
 466  661.6954
 467  766.861
 468  617.6591
 469  494.8054
 470  633.7194
 471  755.5793
 472  689.395
 473  790.0377
 474  816.9047
 475  693.3635
 476  577.1494
 477  461.0591
 478  529.7823
 479  609.3939
 480  622.4307
 481  563.8063
 482  536.0717
 483  447.4602
 484  437.7422
 485  636.9075
 486  704.597
 487  592.8103
 488  682.6246
 489  641.2681
 490  570.153
 491  613.6102
 492  754.2012
 493  789.236
 494  780.1378
 495  813.494
 496  779.9932
 497  664.3723
 498  668.2132
 499  702.6403
 500  649.4439
 501  724.1375
 502  847.4491
 503  767.3355
 504  666.3085
 505  756.0911
 506  721.3728
 507  675.0478
 508  849.8401
 509  1074.35
 510  1201.466
 511  1343.409
