# Input file       =  1209804988.111969_cleaned.dat
# Candidate        =  PSR_0332+5434
# Telescope        =  AR
# Epoch_topo       =  58246.372767499641
# Epoch_bary       =  N/A
# T_sample         =  0.002
# Data Folded      =  7340032
# Data Avg         =  0.45293951489917 
# Data StdDev      =  5.95103732420247 
# Profile Bins     =  512
# Profile Avg      =  6495.47363548465 
# Profile StdDev   =  712.535768418228 
# Reduced chi-sqr  =  0.874
# Prob(Noise)      <  0.981   (~0.0 sigma)
# P_topo (ms)      =  714.539948285569  +/- 0.00107
# P'_topo (s/s)    =  -0                +/- 5.64e-10
# P''_topo (s/s^2) =  0                 +/- 2.49e-13
# P_bary (ms)      =  N/A
# P'_bary (s/s)    =  N/A
# P''_bary (s/s^2) =  N/A
# P_orb (s)        =  N/A
# asin(i)/c (s)    =  N/A
# eccentricity     =  N/A
# w (rad)          =  N/A
# T_peri           =  N/A
######################################################
   0  7289.662
   1  7300.943
   2  6884.351
   3  6724.332
   4  7197.192
   5  7173.824
   6  7140.062
   7  7448.459
   8  7249.363
   9  7403.985
  10  7510.612
  11  7565.803
  12  7834.335
  13  7709.227
  14  7432.172
  15  7413.454
  16  7801.625
  17  7350.526
  18  7265.138
  19  7435.048
  20  7559.269
  21  7443.025
  22  7379.556
  23  7701.36
  24  7225.452
  25  6843.196
  26  7048.206
  27  6666.935
  28  6793.687
  29  6771.246
  30  7416.434
  31  6914.974
  32  6904.146
  33  7160.988
  34  7011.727
  35  6845.465
  36  6818.765
  37  6887.796
  38  6686.599
  39  6927.427
  40  6803.818
  41  6849.519
  42  6724.408
  43  7105.996
  44  7010.433
  45  7321.582
  46  7280.236
  47  6865.665
  48  6933.57
  49  7204.872
  50  7640.278
  51  7822.891
  52  7615.636
  53  7201.65
  54  7223.098
  55  6971.781
  56  7294.815
  57  7211.924
  58  6897.278
  59  7088.537
  60  7423.093
  61  7245.836
  62  7044.17
  63  7004.826
  64  7187.859
  65  7141.347
  66  7531.228
  67  7125.694
  68  6927.803
  69  6852.098
  70  6994.688
  71  7169.067
  72  7020.903
  73  7712.043
  74  7572.429
  75  6868.178
  76  7357.697
  77  7376.945
  78  6837.345
  79  6690.252
  80  6736.598
  81  6366.46
  82  5994.619
  83  6195.651
  84  6504.557
  85  6198.624
  86  6358.891
  87  6594.792
  88  6355.248
  89  6507.15
  90  6872.944
  91  6507.158
  92  6266.714
  93  5966.491
  94  6182.354
  95  6714.856
  96  6476.193
  97  6617.873
  98  7043.152
  99  6788.75
 100  6503.636
 101  6692.623
 102  7026.185
 103  6883.198
 104  6876.796
 105  6590.104
 106  6583.133
 107  6498.978
 108  6606.46
 109  6371.986
 110  6356.017
 111  6110.602
 112  6007.77
 113  5752.354
 114  6019.176
 115  5764.514
 116  6002.858
 117  6212.035
 118  6239.949
 119  6251.756
 120  6179.629
 121  5710.43
 122  6186.446
 123  6223.547
 124  6118.263
 125  5875.279
 126  6163.512
 127  6002.547
 128  5755.67
 129  5938.057
 130  5671.74
 131  5684.107
 132  6034.265
 133  5966.419
 134  6059.713
 135  6034.375
 136  5790.006
 137  5536.577
 138  5848.004
 139  5847.579
 140  6234.89
 141  6337.048
 142  6034.62
 143  5988.482
 144  5892.741
 145  5997.729
 146  6366.489
 147  6053.636
 148  6216.864
 149  6301.608
 150  6218.233
 151  6328.064
 152  6568.474
 153  6605.215
 154  6106.952
 155  6142.239
 156  6315.29
 157  5893.245
 158  6090.269
 159  6075.39
 160  6186.429
 161  6144.664
 162  6238.853
 163  6351.961
 164  6284.517
 165  6065.413
 166  6081.679
 167  6382.126
 168  6337.734
 169  6295.205
 170  6252.064
 171  6431.854
 172  6477.04
 173  6228.152
 174  6668.74
 175  6364.875
 176  6221.163
 177  6239.701
 178  6033.034
 179  6211.076
 180  6012.714
 181  5945.92
 182  5955.011
 183  5908.421
 184  6176.915
 185  6113.034
 186  6141.537
 187  6032.992
 188  6158.934
 189  6299.443
 190  6347.801
 191  6182.333
 192  6418.06
 193  6200.831
 194  6290.451
 195  6199.625
 196  5739.266
 197  5893.944
 198  5870.938
 199  5796.571
 200  6179.702
 201  6243.158
 202  6113.925
 203  5825.445
 204  5870.113
 205  5785.725
 206  5867.786
 207  5945.379
 208  6115.22
 209  5863.205
 210  6014.08
 211  5899.257
 212  5580.015
 213  5672.65
 214  5895.482
 215  5727.46
 216  5998.752
 217  5913.399
 218  6182.848
 219  6524.063
 220  6636.095
 221  6629.03
 222  6767.908
 223  6544.688
 224  6316.88
 225  6780.125
 226  6784.758
 227  6759.22
 228  6550.406
 229  6277.966
 230  6476.062
 231  6751.846
 232  6710.737
 233  6498.872
 234  6523.919
 235  6585.09
 236  6405.935
 237  6385.716
 238  6585.696
 239  6478.131
 240  6423.38
 241  6592.464
 242  6599.584
 243  6646.521
 244  6315.215
 245  5725.739
 246  5541.844
 247  5957.446
 248  6095.201
 249  5903.484
 250  5754.211
 251  6392.634
 252  6035.386
 253  5729.587
 254  6099.267
 255  6062.12
 256  6071.419
 257  6293.955
 258  6082.587
 259  6353.33
 260  6360.292
 261  6421.879
 262  6480.103
 263  6474.803
 264  6525.43
 265  6328.362
 266  5809.295
 267  5813.924
 268  6100.183
 269  6172.497
 270  6188.305
 271  6291.634
 272  6277.052
 273  6479.032
 274  6402.816
 275  6186.032
 276  6319.677
 277  6321.163
 278  6356.039
 279  5816.536
 280  5914.531
 281  6243.075
 282  6036.062
 283  6177.693
 284  6122.051
 285  6020.436
 286  6079.541
 287  6028.854
 288  6205.106
 289  6357.24
 290  6009.509
 291  6113.203
 292  6093.84
 293  6220.345
 294  6399.322
 295  6482.88
 296  6839.656
 297  7041.003
 298  7440.034
 299  7889.235
 300  8500.436
 301  8343.483
 302  7851.317
 303  7227.607
 304  6780.209
 305  6603.797
 306  6697.715
 307  6651.742
 308  6722.089
 309  6574.644
 310  6726.201
 311  6616.037
 312  6701.412
 313  6540.105
 314  6062.297
 315  6568.345
 316  6771.159
 317  6876.887
 318  6625.953
 319  6475.253
 320  6269.19
 321  6381.827
 322  6654.182
 323  6410.891
 324  6420.251
 325  6547.631
 326  6234.032
 327  6246.696
 328  6464.847
 329  6431.769
 330  6426.035
 331  5901.888
 332  5607.808
 333  5551.755
 334  5923.972
 335  5872.541
 336  5945.102
 337  6150.836
 338  6244.778
 339  6083.039
 340  5951.631
 341  5569.105
 342  5941.515
 343  5996.405
 344  5756.206
 345  5662.754
 346  5918.634
 347  5952.612
 348  6272.675
 349  6445.667
 350  6204.675
 351  6362.194
 352  6420.095
 353  5944.385
 354  6004.489
 355  5752.249
 356  5853.158
 357  6152.802
 358  6230.791
 359  6100.175
 360  6220.845
 361  6252.262
 362  6217.126
 363  6146.119
 364  6190.069
 365  5992.246
 366  5876.624
 367  5861.983
 368  6114.131
 369  5967.227
 370  6158.932
 371  6480.516
 372  6808.183
 373  6563.317
 374  6604.106
 375  6402.335
 376  6490.333
 377  6821.258
 378  6383.544
 379  5936.165
 380  6008.937
 381  6277.428
 382  6215.363
 383  6069.68
 384  6319.652
 385  6411.371
 386  6315.449
 387  6223.479
 388  6080.991
 389  6369.803
 390  6587.266
 391  6628.749
 392  7002.333
 393  6935.195
 394  6336.714
 395  6308.283
 396  6462.673
 397  6443.707
 398  6776.58
 399  6663.024
 400  6308.15
 401  6139.455
 402  6264.402
 403  6103.448
 404  6174.423
 405  6613.195
 406  6255.733
 407  6239.701
 408  6537.236
 409  6423.332
 410  6505.028
 411  7106.959
 412  7239.708
 413  6932.811
 414  7172.863
 415  6954.937
 416  6400.637
 417  6747.16
 418  6606.778
 419  6481.826
 420  6309.813
 421  6604.265
 422  6750.172
 423  7010.08
 424  7041.989
 425  6993.206
 426  6874.597
 427  6508.741
 428  6551.661
 429  6337.134
 430  6908.78
 431  7294.208
 432  7098.587
 433  6928.151
 434  7019.997
 435  6883.354
 436  6933.252
 437  6658.169
 438  6793.519
 439  6392.722
 440  6786.431
 441  7148.885
 442  6716.486
 443  6258.695
 444  6900.675
 445  6951.192
 446  6872.501
 447  7232.971
 448  7002.476
 449  6643.118
 450  6580.501
 451  6906.48
 452  7159.615
 453  7004.665
 454  6914.354
 455  6738.569
 456  6688.316
 457  6527.412
 458  6810.105
 459  6636.218
 460  6768.177
 461  6575.101
 462  6466.623
 463  6205.27
 464  6003.487
 465  6655.836
 466  6641.678
 467  5902.679
 468  6356.569
 469  6394.733
 470  6286.935
 471  6370.945
 472  6848.201
 473  7239.82
 474  7186.403
 475  6683.076
 476  6327.404
 477  6578.914
 478  6625.234
 479  6823.421
 480  6645.492
 481  6740.801
 482  6497.83
 483  6260.193
 484  6408.611
 485  6276.843
 486  5988.345
 487  6156.747
 488  5981.561
 489  6176.33
 490  6247.716
 491  6509.957
 492  6826.85
 493  6836.05
 494  6746.293
 495  6634.977
 496  6647.08
 497  6628.465
 498  6553.58
 499  6377.923
 500  6697.634
 501  6323.906
 502  6235.777
 503  6317.894
 504  6506.833
 505  6670.851
 506  6777.655
 507  6785.02
 508  6705.467
 509  6790.956
 510  6679.792
 511  6784.234
