# Input file       =  1209647534.116264_cleaned.dat
# Candidate        =  PSR_0332+5434
# Telescope        =  AR
# Epoch_topo       =  58244.550383290094
# Epoch_bary       =  N/A
# T_sample         =  0.002
# Data Folded      =  7340032
# Data Avg         =  0.0391074327539415
# Data StdDev      =  1.00009237008831 
# Profile Bins     =  512
# Profile Avg      =  560.640775722055 
# Profile StdDev   =  119.74409612791  
# Reduced chi-sqr  =  1.495
# Prob(Noise)      <  2.37e-12   (~6.9 sigma)
# P_topo (ms)      =  714.541988361617  +/- 0.000278
# P'_topo (s/s)    =  -0                +/- 1.47e-10
# P''_topo (s/s^2) =  0                 +/- 6.47e-14
# P_bary (ms)      =  N/A
# P'_bary (s/s)    =  N/A
# P''_bary (s/s^2) =  N/A
# P_orb (s)        =  N/A
# asin(i)/c (s)    =  N/A
# eccentricity     =  N/A
# w (rad)          =  N/A
# T_peri           =  N/A
######################################################
   0  1377.392
   1  1179.999
   2  953.2452
   3  744.0653
   4  631.6378
   5  549.0084
   6  600.061
   7  631.3273
   8  710.4014
   9  647.6488
  10  584.8121
  11  680.2433
  12  533.8709
  13  471.138
  14  552.6829
  15  492.7423
  16  463.3362
  17  535.2659
  18  532.6459
  19  572.7589
  20  572.8872
  21  572.8221
  22  591.9852
  23  629.0768
  24  616.8636
  25  662.2338
  26  650.9646
  27  607.7074
  28  590.4312
  29  587.9868
  30  505.8934
  31  555.7417
  32  662.6371
  33  660.7185
  34  660.0585
  35  709.238
  36  782.4862
  37  651.8665
  38  620.3082
  39  568.1198
  40  534.8326
  41  530.8511
  42  616.4927
  43  679.3734
  44  748.1409
  45  552.0198
  46  606.5335
  47  642.4226
  48  610.0018
  49  577.0934
  50  664.6252
  51  555.6159
  52  543.041
  53  584.9578
  54  574.4
  55  555.5925
  56  584.0937
  57  591.2404
  58  514.4453
  59  549.6786
  60  568.303
  61  564.6982
  62  444.7698
  63  498.6465
  64  582.6686
  65  632.2006
  66  513.1109
  67  398.8274
  68  420.7428
  69  561.2616
  70  555.2676
  71  489.8961
  72  429.0652
  73  572.6376
  74  700.2517
  75  644.1493
  76  688.3282
  77  700.8704
  78  544.5094
  79  419.5354
  80  458.2041
  81  457.0423
  82  537.4062
  83  479.7117
  84  483.3684
  85  415.5167
  86  438.8799
  87  502.4845
  88  510.0631
  89  450.2152
  90  401.5573
  91  492.2161
  92  588.3065
  93  656.4461
  94  677.6071
  95  608.8787
  96  675.8224
  97  529.823
  98  460.4811
  99  493.9206
 100  619.7036
 101  567.9556
 102  517.9625
 103  611.0385
 104  546.5237
 105  448.4938
 106  440.2896
 107  471.8286
 108  524.0511
 109  493.681
 110  442.7589
 111  509.1501
 112  456.6165
 113  454.3856
 114  617.3536
 115  648.4155
 116  675.8209
 117  583.6006
 118  552.3009
 119  578.5003
 120  697.2982
 121  578.0559
 122  454.1461
 123  576.9926
 124  589.8814
 125  472.1573
 126  533.4223
 127  513.9424
 128  474.8071
 129  510.0044
 130  533.7242
 131  506.1203
 132  537.4337
 133  610.2219
 134  604.7597
 135  578.6561
 136  532.4066
 137  751.0505
 138  621.9106
 139  558.0361
 140  531.9861
 141  572.7816
 142  550.7706
 143  472.3829
 144  472.0061
 145  568.6509
 146  507.2039
 147  485.2954
 148  502.0449
 149  471.4739
 150  391.4121
 151  547.324
 152  600.3713
 153  511.7814
 154  545.9461
 155  576.6785
 156  491.0606
 157  515.5949
 158  661.3984
 159  574.8513
 160  560.2862
 161  428.524
 162  442.1808
 163  536.4086
 164  581.9479
 165  586.8423
 166  571.6278
 167  657.4597
 168  450.0566
 169  325.1068
 170  397.2227
 171  527.1155
 172  590.0816
 173  574.4244
 174  604.5314
 175  641.3056
 176  648.3577
 177  691.1948
 178  514.538
 179  595.5167
 180  635.9808
 181  525.2451
 182  640.587
 183  623.0912
 184  535.3496
 185  646.0006
 186  641.8309
 187  514.7011
 188  488.2137
 189  444.0285
 190  400.4842
 191  424.3015
 192  430.7047
 193  510.4053
 194  536.1995
 195  507.567
 196  467.7198
 197  497.7502
 198  611.961
 199  530.416
 200  534.1135
 201  580.4149
 202  514.9676
 203  538.2833
 204  597.7176
 205  544.3464
 206  508.0839
 207  533.0035
 208  441.4777
 209  455.6149
 210  428.2462
 211  417.5769
 212  572.6387
 213  512.2772
 214  487.6634
 215  472.4083
 216  583.4244
 217  532.0471
 218  486.7168
 219  508.4768
 220  422.0491
 221  480.9367
 222  489.7393
 223  424.319
 224  434.7277
 225  522.9984
 226  522.5601
 227  446.6351
 228  465.1829
 229  528.3404
 230  504.9343
 231  405.7735
 232  378.2922
 233  363.4292
 234  421.9782
 235  560.7135
 236  498.9309
 237  443.3661
 238  503.1939
 239  576.6333
 240  550.1558
 241  489.2195
 242  475.445
 243  575.923
 244  532.9836
 245  530.3538
 246  697.5976
 247  787.9675
 248  679.3021
 249  594.8289
 250  710.5386
 251  664.2245
 252  583.0584
 253  530.6907
 254  499.06
 255  547.8946
 256  554.8068
 257  543.0755
 258  453.5593
 259  557.7111
 260  602.0318
 261  584.8481
 262  531.901
 263  395.2078
 264  508.7548
 265  547.5623
 266  584.1537
 267  625.3434
 268  500.3958
 269  681.9554
 270  661.1364
 271  525.2299
 272  452.8566
 273  557.5856
 274  599.4399
 275  586.6856
 276  714.9951
 277  619.1259
 278  643.8026
 279  600.5736
 280  650.4166
 281  599.0912
 282  587.0771
 283  713.2419
 284  611.3746
 285  507.4536
 286  565.7733
 287  518.1521
 288  471.4946
 289  514.5511
 290  568.7828
 291  618.5192
 292  639.5593
 293  653.679
 294  578.7712
 295  591.1127
 296  556.399
 297  618.1627
 298  665.5677
 299  568.1676
 300  545.8676
 301  540.0521
 302  641.736
 303  527.6093
 304  571.9826
 305  606.8778
 306  644.5618
 307  631.2855
 308  627.5475
 309  647.2903
 310  620.6507
 311  546.1526
 312  598.5618
 313  589.5433
 314  531.0015
 315  427.6193
 316  425.2392
 317  491.8829
 318  562.7595
 319  551.3577
 320  438.756
 321  457.3539
 322  549.2274
 323  472.8369
 324  518.0591
 325  363.8312
 326  380.5562
 327  399.9945
 328  590.1829
 329  607.0268
 330  569.179
 331  491.4521
 332  561.7729
 333  566.8679
 334  417.4457
 335  417.5784
 336  524.9587
 337  503.0501
 338  437.4022
 339  478.802
 340  518.5679
 341  548.5986
 342  524.8582
 343  471.6338
 344  499.0943
 345  523.4684
 346  430.3428
 347  496.7918
 348  484.2624
 349  441.8009
 350  550.1812
 351  601.1004
 352  527.0316
 353  416.696
 354  409.232
 355  265.6303
 356  455.1973
 357  646.1446
 358  694.859
 359  650.5151
 360  585.6572
 361  598.0688
 362  626.3076
 363  547.9976
 364  564.1605
 365  655.3028
 366  497.4193
 367  396.329
 368  449.375
 369  529.8846
 370  522.9689
 371  442.6953
 372  477.964
 373  547.2805
 374  546.9802
 375  521.9201
 376  565.3293
 377  571.7242
 378  526.9147
 379  405.3405
 380  429.2135
 381  408.4185
 382  435.5207
 383  465.5585
 384  424.0947
 385  478.6867
 386  574.0132
 387  514.5468
 388  424.5042
 389  462.0448
 390  402.4188
 391  482.2093
 392  484.4933
 393  561.7846
 394  571.2348
 395  499.2548
 396  551.3588
 397  556.4098
 398  626.8068
 399  466.5132
 400  433.7097
 401  460.4218
 402  444.7412
 403  526.2238
 404  464.5302
 405  437.3602
 406  465.4234
 407  489.4943
 408  399.3669
 409  460.3495
 410  448.8154
 411  392.0905
 412  373.7612
 413  470.2982
 414  448.9317
 415  604.3022
 416  567.4688
 417  586.2941
 418  476.0164
 419  530.9898
 420  597.4276
 421  586.5117
 422  576.8087
 423  588.6563
 424  603.7402
 425  572.7706
 426  601.8442
 427  703.4189
 428  720.5742
 429  717.8298
 430  669.3385
 431  694.1368
 432  612.4746
 433  451.4211
 434  517.463
 435  535.0521
 436  509.6132
 437  501.1966
 438  568.1653
 439  598.231
 440  634.0219
 441  654.2865
 442  581.2691
 443  642.6164
 444  604.567
 445  683.8379
 446  604.3616
 447  617.6537
 448  639.6305
 449  649.3061
 450  584.0326
 451  645.9431
 452  782.1619
 453  769.0453
 454  642.5457
 455  755.9744
 456  676.5182
 457  726.697
 458  707.2555
 459  715.8119
 460  633.895
 461  633.3655
 462  594.5974
 463  682.1611
 464  761.4877
 465  788.3482
 466  774.3492
 467  713.6539
 468  651.4415
 469  562.1586
 470  555.4022
 471  665.9695
 472  654.4824
 473  654.8091
 474  588.5295
 475  592.4491
 476  591.3904
 477  648.1799
 478  600.0045
 479  573.7458
 480  587.0938
 481  542.2229
 482  522.0607
 483  498.7269
 484  562.483
 485  559.3484
 486  669.3627
 487  566.9506
 488  560.0496
 489  598.3749
 490  563.5289
 491  530.348
 492  477.5353
 493  524.8254
 494  605.199
 495  607.9457
 496  552.43
 497  450.7308
 498  467.2208
 499  479.4467
 500  597.5156
 501  700.1573
 502  716.2651
 503  523.7631
 504  603.41
 505  770.2814
 506  750.7261
 507  816.4651
 508  782.032
 509  874.9363
 510  975.5233
 511  1160.518
