# Input file       =  1209130620.106693_cleaned.dat
# Candidate        =  PSR_0332+5434
# Telescope        =  AR
# Epoch_topo       =  58238.567582253389
# Epoch_bary       =  N/A
# T_sample         =  0.002
# Data Folded      =  7340032
# Data Avg         =  0.258969148051359
# Data StdDev      =  5.81458080311327 
# Profile Bins     =  256
# Profile Avg      =  7425.05801970586 
# Profile StdDev   =  984.571826120187 
# Reduced chi-sqr  =  1.335
# Prob(Noise)      <  0.00027   (~3.5 sigma)
# P_topo (ms)      =  714.547455504126  +/- 0.000188
# P'_topo (s/s)    =  -0                +/- 9.93e-11
# P''_topo (s/s^2) =  0                 +/- 4.38e-14
# P_bary (ms)      =  N/A
# P'_bary (s/s)    =  N/A
# P''_bary (s/s^2) =  N/A
# P_orb (s)        =  N/A
# asin(i)/c (s)    =  N/A
# eccentricity     =  N/A
# w (rad)          =  N/A
# T_peri           =  N/A
######################################################
   0  8969.813
   1  8625.449
   2  8512.959
   3  8304.435
   4  7284.346
   5  7670.33
   6  7450.954
   7  7616.821
   8  6849.745
   9  6989.249
  10  6933.534
  11  7464.797
  12  7225.905
  13  7740.576
  14  7917.362
  15  7133.135
  16  7279.011
  17  8096.975
  18  8620.97
  19  8472.418
  20  8284.182
  21  7909.957
  22  7948.956
  23  8172.443
  24  7668.472
  25  7863.2
  26  7765.585
  27  7686.65
  28  7981.372
  29  7016.849
  30  7001.033
  31  7205.985
  32  7136.741
  33  7147.986
  34  7339.263
  35  7807.959
  36  7607.708
  37  7718.019
  38  7151.431
  39  8217.618
  40  8975.781
  41  6749.934
  42  6424.772
  43  7306.339
  44  5974.006
  45  5983.689
  46  5444.533
  47  5495.402
  48  6578.066
  49  7277.466
  50  8148.242
  51  9034.537
  52  9011.546
  53  8834.716
  54  8217.602
  55  8498.826
  56  8779.082
  57  8145.775
  58  7501.502
  59  7517.943
  60  7003.771
  61  7786.949
  62  7107.237
  63  6053.041
  64  6975.581
  65  7498.903
  66  6475.324
  67  6668.562
  68  7223.487
  69  7616.354
  70  7507.241
  71  7158.296
  72  6863.593
  73  7729.583
  74  7943.754
  75  7091.546
  76  6709.146
  77  7456.099
  78  7423.445
  79  6287.376
  80  5593.812
  81  5613.003
  82  5909.978
  83  6715.59
  84  7176.577
  85  8410.33
  86  7397.923
  87  7626.414
  88  8330.583
  89  8610.29
  90  8811.356
  91  8598.944
  92  8253.818
  93  8350.644
  94  7738.651
  95  6805.066
  96  6956.29
  97  6936.521
  98  7064.398
  99  7043.64
 100  6295.814
 101  6005.239
 102  6450.505
 103  6543.76
 104  6500.59
 105  7049.211
 106  6582.723
 107  6593.523
 108  6269.412
 109  6401.852
 110  5984.155
 111  7062.924
 112  6623.861
 113  6530.476
 114  6714.793
 115  7522.022
 116  6327.782
 117  5390.812
 118  5594.097
 119  5384.114
 120  5324.482
 121  4911.812
 122  6082.512
 123  6243.965
 124  6403.852
 125  7175.653
 126  7003.395
 127  6723.405
 128  6942.64
 129  7119.001
 130  6193.499
 131  6714.238
 132  7577.665
 133  7120.279
 134  6389.384
 135  6837.396
 136  7337.882
 137  6272.791
 138  6265.02
 139  6570.991
 140  6889.767
 141  6474.598
 142  7801.902
 143  7753.916
 144  8321.498
 145  8560.209
 146  8831.088
 147  9199.501
 148  9158.596
 149  10632.94
 150  11174.19
 151  11051.95
 152  7499.206
 153  6714.417
 154  6052.167
 155  5974.27
 156  6314.512
 157  7085.457
 158  7141.528
 159  6608.063
 160  7413.131
 161  7797.939
 162  7161.804
 163  7418.718
 164  8381.153
 165  8773.218
 166  7913.99
 167  8376.37
 168  7811.621
 169  7224.217
 170  7223.343
 171  7036.527
 172  6807.706
 173  7000.387
 174  7661.442
 175  7610.575
 176  7034.148
 177  7219.73
 178  7254.656
 179  7941.662
 180  7759.862
 181  7207.831
 182  7830.255
 183  7949.495
 184  8179.017
 185  7839.58
 186  8550.07
 187  7582.111
 188  8242.762
 189  8235.464
 190  7279.505
 191  7528.76
 192  6938.93
 193  5943.899
 194  6725.038
 195  6916.455
 196  7837.738
 197  7590.112
 198  7251.355
 199  7200.832
 200  6757.556
 201  6889.527
 202  7436.806
 203  7165.599
 204  6288.8
 205  7233.753
 206  6225.148
 207  6884.585
 208  6484.36
 209  6757.674
 210  6850.748
 211  6254.134
 212  6461.012
 213  6869.632
 214  6064.33
 215  7684.061
 216  7135.264
 217  7166.472
 218  9108.28
 219  9321.221
 220  8822.069
 221  9324.412
 222  9643.105
 223  10174.09
 224  9501.934
 225  8776.546
 226  8052.053
 227  7552.746
 228  7392.868
 229  7357.586
 230  7113.228
 231  7144.753
 232  7629.457
 233  7334.756
 234  8161.852
 235  8214.357
 236  9006.736
 237  8759.683
 238  8965.791
 239  9332.803
 240  8702.157
 241  8576.807
 242  7586.1
 243  7523.986
 244  7412.856
 245  7096.992
 246  7719.795
 247  7831.381
 248  6909.969
 249  6560.957
 250  6681.386
 251  7555.651
 252  8306.446
 253  7368.155
 254  8728.081
 255  8812.576
