# Input file       =  1209546443.111069_cleaned.dat
# Candidate        =  PSR_0332+5434
# Telescope        =  AR
# Epoch_topo       =  58243.380348507744
# Epoch_bary       =  N/A
# T_sample         =  0.002
# Data Folded      =  7340032
# Data Avg         =  0.0759066834056693
# Data StdDev      =  1.00014028607825 
# Profile Bins     =  512
# Profile Avg      =  1088.94315664918 
# Profile StdDev   =  119.749833254877 
# Reduced chi-sqr  =  2.051
# Prob(Noise)      <  2.92e-39   (~13.1 sigma)
# P_topo (ms)      =  714.542741231207  +/- 0.000754
# P'_topo (s/s)    =  -0                +/- 3.98e-10
# P''_topo (s/s^2) =  0                 +/- 1.76e-13
# P_bary (ms)      =  N/A
# P'_bary (s/s)    =  N/A
# P''_bary (s/s^2) =  N/A
# P_orb (s)        =  N/A
# asin(i)/c (s)    =  N/A
# eccentricity     =  N/A
# w (rad)          =  N/A
# T_peri           =  N/A
######################################################
   0  1085.028
   1  1172.558
   2  1191.145
   3  1196.667
   4  1139.202
   5  1208.899
   6  1262.656
   7  1300.357
   8  1234.426
   9  1151.751
  10  1242.801
  11  1212.51
  12  1158.908
  13  1133.519
  14  1190.508
  15  1163.342
  16  1149.78
  17  1130.831
  18  1157.579
  19  1210.121
  20  1172.725
  21  1108.123
  22  1100.611
  23  1154.279
  24  1199.58
  25  1194.614
  26  1098.469
  27  1090.277
  28  1181.24
  29  1164.52
  30  1162.52
  31  1194.376
  32  1151.328
  33  1190.874
  34  1247.858
  35  1270.461
  36  1282.053
  37  1273.942
  38  1218.608
  39  1288.606
  40  1282.36
  41  1313.589
  42  1274.731
  43  1217.149
  44  1177.767
  45  1287.706
  46  1294.622
  47  1295.481
  48  1222.337
  49  1227.689
  50  1197.153
  51  1104.309
  52  1115.568
  53  1200.528
  54  1241.321
  55  1205.292
  56  1215.817
  57  1183.724
  58  1208.363
  59  1177.726
  60  1148.141
  61  1125.558
  62  1132.694
  63  1158.889
  64  1227.703
  65  1211.673
  66  1150.495
  67  1177.79
  68  1140.895
  69  1169.902
  70  1104.56
  71  1159.589
  72  1218.38
  73  1217.019
  74  1197.841
  75  1195.86
  76  1164.581
  77  1187.131
  78  1212.312
  79  1187.778
  80  1254.34
  81  1169.387
  82  1124.726
  83  1163.774
  84  1195.169
  85  1162.726
  86  1197.483
  87  1241.575
  88  1267.745
  89  1291.59
  90  1262.973
  91  1245.775
  92  1223.353
  93  1194.607
  94  1146.434
  95  1184.486
  96  1212.664
  97  1186.755
  98  1164.588
  99  1213.999
 100  1228.189
 101  1117.442
 102  1128.116
 103  1204.967
 104  1218.248
 105  1137.782
 106  1107.735
 107  1155.347
 108  1142.627
 109  1078.364
 110  1097.745
 111  1083.451
 112  1124.511
 113  1146.09
 114  1194.898
 115  1176.831
 116  1217.279
 117  1212.147
 118  1206.535
 119  1216.28
 120  1221.399
 121  1249.719
 122  1247.5
 123  1303.212
 124  1232.979
 125  1276.706
 126  1241.07
 127  1191.236
 128  1179.346
 129  1252.208
 130  1194.177
 131  1149.932
 132  1169.622
 133  1236.555
 134  1242.559
 135  1154.377
 136  1234.036
 137  1221.722
 138  1174.783
 139  1161.842
 140  1123.175
 141  1132.801
 142  1123.554
 143  1191.864
 144  1050.047
 145  971.9383
 146  1018.838
 147  1162.315
 148  1100.433
 149  1045.928
 150  1056.399
 151  1111.693
 152  1113.113
 153  1214.125
 154  1234.534
 155  1140.391
 156  1123.954
 157  1097.441
 158  1120.62
 159  1007.53
 160  1065.8
 161  1097.058
 162  1038.971
 163  1063.991
 164  1120.935
 165  1126.506
 166  1097.515
 167  1092.664
 168  1125.205
 169  1226.223
 170  1197.807
 171  1226.794
 172  1288.535
 173  1342.494
 174  1365.838
 175  1496.25
 176  1641.184
 177  1602.572
 178  1530.999
 179  1432.074
 180  1356.217
 181  1226.538
 182  1139.107
 183  1148.149
 184  1200.706
 185  1234.918
 186  1217.66
 187  1123.091
 188  1151.904
 189  1244.996
 190  1253.099
 191  1195.748
 192  1194.586
 193  1223.644
 194  1242.834
 195  1219.499
 196  1114.972
 197  1143.596
 198  1174.912
 199  1213.167
 200  1176.088
 201  1118.402
 202  1114.296
 203  1198.274
 204  1237.872
 205  1220.602
 206  1175.406
 207  1251.474
 208  1177.014
 209  1148.484
 210  1136.839
 211  1194.557
 212  1147.809
 213  1182.362
 214  1230.982
 215  1232.427
 216  1172.41
 217  1172.021
 218  1174.324
 219  1119.758
 220  1154.351
 221  1113.558
 222  1117.41
 223  1127.891
 224  1067.208
 225  974.8687
 226  948.2752
 227  1038.936
 228  1093.908
 229  1025.399
 230  996.3909
 231  1055.509
 232  1132.622
 233  1134.724
 234  1030.241
 235  1022.321
 236  1061.433
 237  1143.345
 238  1076.73
 239  1036.301
 240  1046.878
 241  1044.323
 242  1003.141
 243  1014.393
 244  981.3161
 245  999.9546
 246  1021.521
 247  951.2078
 248  909.0629
 249  863.0831
 250  924.4727
 251  949.6102
 252  919.065
 253  878.7026
 254  885.9407
 255  889.3303
 256  935.2581
 257  907.9934
 258  929.1304
 259  926.563
 260  891.7965
 261  937.1365
 262  903.5081
 263  864.9021
 264  938.1522
 265  954.254
 266  937.5541
 267  911.3113
 268  944.3368
 269  1006.053
 270  992.0142
 271  1003.484
 272  1014.225
 273  934.7787
 274  949.4248
 275  932.1665
 276  1019.051
 277  1034.76
 278  976.1392
 279  1005.002
 280  1024.716
 281  1010.068
 282  992.6377
 283  1021.363
 284  989.6777
 285  953.3212
 286  991.3644
 287  998.2476
 288  966.8666
 289  947.199
 290  946.4651
 291  1026.258
 292  1043.104
 293  987.9581
 294  909.9561
 295  909.7369
 296  1019.072
 297  1044.148
 298  988.7173
 299  986.8314
 300  1095.14
 301  1083.541
 302  992.8765
 303  962.6463
 304  1114.769
 305  1104.731
 306  1071.827
 307  1070.557
 308  1050.583
 309  963.0694
 310  893.2573
 311  951.476
 312  1016.795
 313  975.3615
 314  962.7596
 315  916.0162
 316  884.881
 317  1020.883
 318  1014.321
 319  941.6754
 320  1023.206
 321  1045.448
 322  1001.518
 323  975.0941
 324  945.1731
 325  982.1685
 326  940.0081
 327  922.3868
 328  994.4868
 329  961.0022
 330  987.5854
 331  988.4512
 332  979.7911
 333  1018.213
 334  972.335
 335  1013.815
 336  1031.964
 337  999.1194
 338  975.7694
 339  1065.073
 340  1002.925
 341  1041.795
 342  1091.372
 343  1063.804
 344  1137.18
 345  1090.895
 346  1153.859
 347  1125.514
 348  1129.316
 349  1105.516
 350  1090.004
 351  1082.337
 352  1091.837
 353  1016.695
 354  983.6168
 355  967.5312
 356  917.109
 357  1027.891
 358  999.6609
 359  992.8315
 360  1003.06
 361  1018.691
 362  1055.88
 363  1040.542
 364  987.1564
 365  1048.68
 366  1098.671
 367  1099.271
 368  1060.249
 369  974.0207
 370  983.4202
 371  962.1078
 372  968.4616
 373  984.5185
 374  1017.237
 375  980.762
 376  850.5818
 377  842.1044
 378  823.5081
 379  896.1145
 380  944.292
 381  921.6613
 382  893.9297
 383  837.8243
 384  960.7936
 385  915.1841
 386  885.2958
 387  904.0385
 388  943.7034
 389  884.9713
 390  983.2923
 391  998.1465
 392  860.0337
 393  906.0825
 394  907.1073
 395  925.2061
 396  932.9882
 397  851.1378
 398  853.6122
 399  862.8306
 400  831.7382
 401  870.8694
 402  945.4669
 403  916.4842
 404  935.4109
 405  883.1584
 406  849.2519
 407  900.4413
 408  919.7498
 409  827.5771
 410  763.8174
 411  866.8318
 412  884.6835
 413  875.8063
 414  949.2232
 415  892.0197
 416  951.8353
 417  909.3942
 418  840.6583
 419  849.7645
 420  924.7435
 421  960.2767
 422  908.8552
 423  939.8761
 424  996.8071
 425  907.4055
 426  912.0334
 427  971.9769
 428  1027.75
 429  1053.516
 430  1056.579
 431  1062.309
 432  1027.205
 433  954.2817
 434  1000.802
 435  989.8851
 436  959.0184
 437  988.0004
 438  1026.462
 439  1047.417
 440  1096.448
 441  1070.637
 442  1131.909
 443  1132.998
 444  1068.054
 445  1057.341
 446  1069.433
 447  1103.708
 448  1058.255
 449  1016.58
 450  1047.643
 451  1073.085
 452  1090.811
 453  1091.809
 454  1015.832
 455  1084.443
 456  1126.447
 457  1133.796
 458  1080.776
 459  1118.34
 460  1219.381
 461  1150.904
 462  1140.63
 463  1225.734
 464  1185.844
 465  1128.654
 466  1093.408
 467  1083.903
 468  1161.349
 469  1137.278
 470  1163.983
 471  1169.677
 472  1126.752
 473  1248.137
 474  1259.758
 475  1234.959
 476  1184.9
 477  1040.635
 478  1047.054
 479  1089.679
 480  1086.757
 481  1080.106
 482  993.4875
 483  1033.525
 484  1055.989
 485  1057.285
 486  1023.38
 487  1079.76
 488  1041.508
 489  1072.194
 490  1105.259
 491  1048.326
 492  1074.884
 493  1108.771
 494  1109.514
 495  1159.028
 496  1165.898
 497  1193.682
 498  1133.695
 499  1171.77
 500  1121.387
 501  1066.813
 502  1046.64
 503  1002.333
 504  1127.779
 505  1211.361
 506  1158.183
 507  1225.286
 508  1158.126
 509  1185.041
 510  1129.381
 511  1118.405
