# Input file       =  1209187230.109958_cleaned.dat
# Candidate        =  PSR_0332+5434
# Telescope        =  AR
# Epoch_topo       =  58239.222790624510
# Epoch_bary       =  N/A
# T_sample         =  0.002
# Data Folded      =  7208960
# Data Avg         =  0.205901248191103
# Data StdDev      =  5.82556207351856 
# Profile Bins     =  1024
# Profile Avg      =  1449.53121537709 
# Profile StdDev   =  488.792083861657 
# Reduced chi-sqr  =  1.599
# Prob(Noise)      <  4.87e-31   (~11.5 sigma)
# P_topo (ms)      =  714.546520875305  +/- 2.59e-05
# P'_topo (s/s)    =  -0                +/- 1.39e-11
# P''_topo (s/s^2) =  0                 +/- 6.27e-15
# P_bary (ms)      =  N/A
# P'_bary (s/s)    =  N/A
# P''_bary (s/s^2) =  N/A
# P_orb (s)        =  N/A
# asin(i)/c (s)    =  N/A
# eccentricity     =  N/A
# w (rad)          =  N/A
# T_peri           =  N/A
######################################################
   0  1841.373
   1  1473.055
   2  1134.859
   3  1492.601
   4  1532.391
   5  1286.989
   6  1313.597
   7  1264.849
   8  1435.164
   9  1234.173
  10  1348.318
  11  1578.225
  12  1390.997
  13  1627.546
  14  1800.369
  15  1480.093
  16  1327.222
  17  1367.42
  18  1383.086
  19  1262.992
  20  1003.975
  21  1221.014
  22  1091.413
  23  825.0167
  24  924.0928
  25  852.4395
  26  800.3588
  27  889.8638
  28  1265.392
  29  1317.489
  30  1359.356
  31  1400.607
  32  1704.506
  33  1623.384
  34  1376.752
  35  1518.574
  36  1772.072
  37  1675.747
  38  1573.696
  39  1625.599
  40  1460.911
  41  1384.206
  42  1207.855
  43  1422.354
  44  1484.309
  45  1423.279
  46  1835.931
  47  1647.513
  48  1421.906
  49  1418.889
  50  1472.102
  51  1469.377
  52  1194.17
  53  1206.924
  54  1375.591
  55  1087.569
  56  910.726
  57  982.4679
  58  1005.109
  59  985.009
  60  1186.372
  61  1542.638
  62  1627.16
  63  1502.415
  64  1536.23
  65  1568.936
  66  1414.397
  67  1340.77
  68  1484.091
  69  1576.975
  70  1303.518
  71  1499.729
  72  1387.826
  73  1487.101
  74  1393.161
  75  1495.677
  76  1676.403
  77  1559.964
  78  1795.842
  79  2178.059
  80  1694.464
  81  1333.982
  82  1170.899
  83  1169.412
  84  1102.782
  85  926.1473
  86  1133.692
  87  1193.986
  88  943.8666
  89  1013.932
  90  1065.719
  91  1056.376
  92  1098.782
  93  1476.339
  94  1693.105
  95  1802.276
  96  1783.906
  97  1801.739
  98  1669.454
  99  1411.584
 100  1465.845
 101  1572.343
 102  1299.911
 103  1181.314
 104  1308.025
 105  1285.925
 106  1461.681
 107  1376.379
 108  1638.573
 109  1700.837
 110  1649.792
 111  1943.29
 112  1847.078
 113  1619.188
 114  1701.053
 115  1533.927
 116  1390.925
 117  1083.286
 118  1050.048
 119  1101.172
 120  888.3472
 121  905.0316
 122  1096.513
 123  1083.565
 124  992.8939
 125  1206.179
 126  1587.188
 127  1675.634
 128  1648.329
 129  1886.489
 130  1972.812
 131  1872.227
 132  1591.424
 133  1729.357
 134  1442.876
 135  1071.354
 136  1272.53
 137  1408.955
 138  1317.125
 139  1230.508
 140  1176.463
 141  1480.125
 142  1528.297
 143  1892.676
 144  2234.276
 145  1933.664
 146  1683.418
 147  1722.923
 148  1558.991
 149  1420.328
 150  1166.177
 151  1245.794
 152  1156.847
 153  742.4221
 154  712.3566
 155  751.9235
 156  624.496
 157  686.9402
 158  968.1351
 159  1121.844
 160  1174.112
 161  1450.683
 162  1781.913
 163  1861.078
 164  1672.65
 165  1699.268
 166  1804.12
 167  1447.779
 168  1217.71
 169  1434.848
 170  1312.679
 171  1274.024
 172  1130.021
 173  1180.306
 174  1329.206
 175  1244.843
 176  1434.401
 177  1488.445
 178  1441.521
 179  1639.823
 180  1682.738
 181  1507.707
 182  1496.317
 183  1337.678
 184  1384.989
 185  1123.188
 186  918.111
 187  1089.542
 188  1008.011
 189  973.1631
 190  911.5747
 191  938.6566
 192  1056.984
 193  1299.209
 194  1589.602
 195  1662.465
 196  1620.539
 197  1588.176
 198  1822.967
 199  1746.004
 200  1454.821
 201  1465.018
 202  1588.859
 203  1359.092
 204  1141.125
 205  1050.497
 206  1238.606
 207  1278.829
 208  1406.736
 209  1760.766
 210  1560.036
 211  1568.696
 212  1755.536
 213  1614.786
 214  1451.132
 215  1320.925
 216  1322.654
 217  1207.67
 218  939.5073
 219  1028.185
 220  1198.085
 221  996.6534
 222  920.2209
 223  1077.727
 224  1225.405
 225  1457.889
 226  1627.665
 227  1772.317
 228  1733.672
 229  1669.434
 230  1843.823
 231  1933.964
 232  1543.763
 233  1436.604
 234  1707.391
 235  1531.65
 236  1314.465
 237  1463.716
 238  1727.316
 239  1940.489
 240  1749.474
 241  1993.697
 242  2156.362
 243  2005.067
 244  2089.492
 245  2006.455
 246  1749.624
 247  1536.303
 248  1464.409
 249  1441.883
 250  1299.659
 251  1313.641
 252  1547.976
 253  1490.095
 254  1285.684
 255  1250.03
 256  1421.961
 257  1604.365
 258  1798.799
 259  1918.844
 260  1865.295
 261  1812.911
 262  1767.359
 263  1657.554
 264  1489.099
 265  1262.462
 266  1682.046
 267  1990.102
 268  1909.723
 269  1872.403
 270  1808.611
 271  1896.596
 272  1992.829
 273  1972.052
 274  2165.859
 275  1937.282
 276  1917.332
 277  2187.818
 278  1813.185
 279  1553.362
 280  1475.42
 281  1623.439
 282  1584.969
 283  1346.733
 284  1457.819
 285  1474.769
 286  1212.611
 287  1210.309
 288  1354.801
 289  1365.18
 290  1400.385
 291  1660.935
 292  1840.545
 293  1809.177
 294  1921.875
 295  2300.886
 296  2380.355
 297  2084.502
 298  1792.015
 299  1920.532
 300  1594.045
 301  1353.271
 302  1491.008
 303  1459.033
 304  1575.882
 305  1551.763
 306  1756.093
 307  2012.811
 308  2061.787
 309  2439.156
 310  2517.686
 311  2070.321
 312  1982.273
 313  1961.963
 314  1730.082
 315  1396.939
 316  1204.728
 317  1470.556
 318  1396.012
 319  1249.159
 320  1201.942
 321  1151.762
 322  1088.174
 323  1308.641
 324  1516.732
 325  1799.855
 326  1912.137
 327  2128.744
 328  2033.747
 329  1977.727
 330  1678.999
 331  1813.22
 332  1924.232
 333  1627.307
 334  1514.232
 335  1549.599
 336  1450.366
 337  1573.624
 338  1353.921
 339  1560.375
 340  1610.904
 341  1831.264
 342  2208.207
 343  2051.911
 344  1754.512
 345  1884.35
 346  1782.129
 347  1742.288
 348  1511.085
 349  1485.837
 350  1471.123
 351  1250.174
 352  1075.862
 353  1069.871
 354  838.8799
 355  956.0316
 356  1024.67
 357  1254.113
 358  1299.592
 359  1588.236
 360  1923.042
 361  1989.693
 362  1942.986
 363  1800.593
 364  1951.951
 365  1697.193
 366  1390.908
 367  1515.729
 368  1449.551
 369  1338.551
 370  1311.484
 371  1245.214
 372  1458.603
 373  1403.805
 374  1663.773
 375  1853.626
 376  1659.42
 377  1842.316
 378  2006.707
 379  1821.871
 380  1579.806
 381  1307.816
 382  1260.95
 383  1128.327
 384  980.8337
 385  1107.982
 386  1085.458
 387  1019.125
 388  956.6818
 389  1077.753
 390  1147.447
 391  1369.302
 392  1652.552
 393  1747.568
 394  1595.228
 395  1412.179
 396  1511.336
 397  1609.169
 398  1384.43
 399  1401.845
 400  1514.506
 401  1437.599
 402  1435.979
 403  1358.204
 404  1277.705
 405  1422.065
 406  1438.466
 407  1836.377
 408  1769.706
 409  1592.947
 410  1803.842
 411  1681.917
 412  1484.339
 413  1213.183
 414  1139.614
 415  1168.711
 416  1073.29
 417  1101.879
 418  1313.75
 419  1184.351
 420  1130.187
 421  1237.011
 422  1404.581
 423  1490.778
 424  1656.61
 425  2034.647
 426  2045.635
 427  1912.599
 428  1811.305
 429  1881.113
 430  1631.988
 431  1236.477
 432  1538.396
 433  1613.767
 434  1487.751
 435  1730.303
 436  1788.821
 437  1984.853
 438  1673.62
 439  1898.36
 440  2153.097
 441  1936.783
 442  2063.778
 443  2214.35
 444  1750.987
 445  1423.07
 446  1314.996
 447  1451.287
 448  1157.222
 449  982.8297
 450  1211.638
 451  1364.557
 452  1135.359
 453  1115.282
 454  1188.69
 455  1259.683
 456  1472.306
 457  1968.472
 458  2059.012
 459  2059.602
 460  2079.447
 461  2346.062
 462  2293.299
 463  1871.039
 464  1690.751
 465  1920.949
 466  1555.512
 467  1481.965
 468  1388.806
 469  1385.331
 470  1430.777
 471  1469.275
 472  1879.507
 473  1979.712
 474  1871.895
 475  2281.142
 476  2185.298
 477  1855.079
 478  1642.316
 479  1638.191
 480  1513.627
 481  1092.069
 482  963.8276
 483  1095.971
 484  1046.797
 485  964.4055
 486  1083.358
 487  1178.879
 488  1223.847
 489  1496.975
 490  1858.88
 491  1757.696
 492  1792.827
 493  1943.024
 494  2170.628
 495  2147.34
 496  1729.516
 497  1866.66
 498  1696.383
 499  1444.541
 500  1492.244
 501  1438.615
 502  1368.104
 503  1399.719
 504  1410.717
 505  1630.242
 506  1500.865
 507  1633.78
 508  1863.131
 509  1594.576
 510  1588.89
 511  1703.759
 512  1544.951
 513  1413.272
 514  1174.044
 515  1267
 516  1178.474
 517  957.873
 518  1000.462
 519  1091.155
 520  940.5981
 521  1030.984
 522  1202.686
 523  1295.729
 524  1351.208
 525  1660
 526  1899.824
 527  1859.444
 528  1597.11
 529  1577.338
 530  1784.605
 531  1529.763
 532  1378.932
 533  1414.535
 534  1296.957
 535  1316.912
 536  1268.086
 537  1298.564
 538  1460.827
 539  1535.745
 540  1976.723
 541  1952.946
 542  1526.501
 543  1515.095
 544  1541.21
 545  1430.406
 546  1272.806
 547  1164.153
 548  1219.126
 549  920.2518
 550  888.1802
 551  1067.526
 552  1024.02
 553  844.5106
 554  1019.534
 555  1351.754
 556  1444.937
 557  1595.491
 558  1862.309
 559  1951.507
 560  1907.939
 561  1608.57
 562  1837.721
 563  1777.383
 564  1507.8
 565  1457.373
 566  1462.672
 567  1445.862
 568  1497.35
 569  1423.331
 570  1666.635
 571  1697.304
 572  1825.12
 573  2055.191
 574  1920.605
 575  1689.933
 576  1656.938
 577  1434.576
 578  1365.284
 579  1147.208
 580  1171.158
 581  1077.726
 582  838.3835
 583  865.5837
 584  1060.369
 585  1086.745
 586  1231.59
 587  1408.394
 588  1543.878
 589  1717.479
 590  1967.638
 591  2097.699
 592  2046.125
 593  2016.938
 594  2178.435
 595  2342.756
 596  2090.194
 597  1976.63
 598  2329.138
 599  2334.357
 600  2318.771
 601  2262.033
 602  2339.49
 603  2570.244
 604  2344.779
 605  2376.935
 606  2204.119
 607  1931.026
 608  2024.123
 609  2026.431
 610  1690.734
 611  1268.042
 612  1145.325
 613  1307.226
 614  1179.216
 615  979.5428
 616  1042.62
 617  1069.526
 618  898.7996
 619  890.7176
 620  1238.72
 621  1352.063
 622  1597.919
 623  1877.483
 624  1963.995
 625  1923.935
 626  1700.989
 627  1804.797
 628  1687.333
 629  1348.583
 630  1557.408
 631  1692.873
 632  1480.09
 633  1422.94
 634  1327.221
 635  1386.344
 636  1415.229
 637  1472.507
 638  1944.253
 639  1780.815
 640  1736.37
 641  1753.764
 642  1514.302
 643  1371.078
 644  1246.61
 645  1252.536
 646  1137.361
 647  878.8755
 648  935.0724
 649  901.5974
 650  682.9055
 651  669.0977
 652  813.4388
 653  804.2614
 654  831.5372
 655  1135.701
 656  1540.506
 657  1647.719
 658  1844.8
 659  2129.137
 660  2134.925
 661  1684.684
 662  1364.045
 663  1552.066
 664  1348.445
 665  1111.482
 666  1226.893
 667  1216.691
 668  1277.483
 669  1116.636
 670  1327.192
 671  1512.763
 672  1457.509
 673  1798.068
 674  1909.071
 675  1495.439
 676  1408.698
 677  1480.003
 678  1368.58
 679  1053.459
 680  877.1498
 681  1097.37
 682  1142.525
 683  814.9688
 684  798.1346
 685  678.9908
 686  658.3373
 687  824.2642
 688  1164.355
 689  1351.477
 690  1499.8
 691  1629.503
 692  1725.429
 693  1609.303
 694  1327.866
 695  1494.514
 696  1600.337
 697  1469.031
 698  1469.205
 699  1488.245
 700  1370.014
 701  1395.459
 702  1329.15
 703  1469.064
 704  1432.512
 705  1455.8
 706  1769.276
 707  1516.407
 708  1327.678
 709  1377.864
 710  1376.729
 711  1308.831
 712  1144.969
 713  1178.776
 714  1243.746
 715  1076.326
 716  1120.681
 717  1147.481
 718  1018.577
 719  908.7614
 720  1210.922
 721  1435.092
 722  1432.638
 723  1389.068
 724  1530.972
 725  1670.51
 726  1501.591
 727  1218.214
 728  1351.999
 729  1219.986
 730  1104.166
 731  1311.331
 732  1323.302
 733  1339.838
 734  1314.084
 735  1341.738
 736  1548.927
 737  1371.279
 738  1656.39
 739  1850.298
 740  1583.55
 741  1597.909
 742  1671.593
 743  1403.603
 744  1269.635
 745  1275.577
 746  1567.654
 747  1546.486
 748  1285.454
 749  1330.235
 750  1192.958
 751  930.5967
 752  963.5276
 753  1303.685
 754  1425.889
 755  1491.498
 756  1660.346
 757  1781.009
 758  1781.132
 759  1740.399
 760  1845.212
 761  1847.404
 762  1434.725
 763  1479.131
 764  1562.418
 765  1362.12
 766  1284.25
 767  1239.575
 768  1513.544
 769  1598.673
 770  1516.661
 771  1851.078
 772  1738.973
 773  1576.021
 774  1703.943
 775  1665.788
 776  1507.631
 777  1238.557
 778  1147.166
 779  1177.97
 780  841.5563
 781  761.0367
 782  692.9234
 783  655.3931
 784  621.5871
 785  994.6481
 786  1326.376
 787  1413.701
 788  1661.312
 789  1931.131
 790  2002.089
 791  1729.058
 792  1467.821
 793  1611.439
 794  1507.039
 795  1355.262
 796  1632.407
 797  1536.027
 798  1233.989
 799  1237.595
 800  1359.566
 801  1621.546
 802  1427.846
 803  1450.32
 804  1664.816
 805  1453.795
 806  1452.808
 807  1611.422
 808  1353.695
 809  1183.229
 810  1086.66
 811  1241.013
 812  1239.178
 813  1034.303
 814  1221.272
 815  1150.891
 816  866.9933
 817  763.7021
 818  1023.536
 819  987.6622
 820  1038.053
 821  1363.05
 822  1633.901
 823  1698.612
 824  1718.824
 825  1938.223
 826  1944.687
 827  1502.831
 828  1302.629
 829  1486.518
 830  1251.438
 831  1187.576
 832  1085.909
 833  1071.217
 834  1209.529
 835  1290.915
 836  1707.183
 837  1562.33
 838  1415.056
 839  1663.089
 840  1693.998
 841  1431.19
 842  1388.996
 843  1283.501
 844  1259.005
 845  923.5247
 846  859.3491
 847  1015.533
 848  922.7994
 849  823.9492
 850  889.8755
 851  922.877
 852  981.4337
 853  1190.932
 854  1544.905
 855  1622.999
 856  1647.189
 857  1773.597
 858  1784.84
 859  1538.186
 860  1205.692
 861  1482.788
 862  1626.448
 863  1274.685
 864  1213.908
 865  1164.557
 866  1210.538
 867  1182.917
 868  1269.942
 869  1796.418
 870  1720.98
 871  1690.699
 872  1820.287
 873  1563.2
 874  1411.503
 875  1485.534
 876  1357.844
 877  1348.729
 878  1212.737
 879  1313.955
 880  1299.403
 881  815.9359
 882  724.2675
 883  864.2911
 884  787.0197
 885  1070.687
 886  1222.747
 887  1421.551
 888  1536.472
 889  1578.717
 890  1815.865
 891  1729.54
 892  1551.895
 893  1607.37
 894  1767.288
 895  1549.899
 896  1430.126
 897  1727.707
 898  1599.695
 899  1611.524
 900  1414.059
 901  1467.281
 902  1241.266
 903  1155.654
 904  1464.293
 905  1596.969
 906  1292.118
 907  1343.548
 908  1369.206
 909  1304.292
 910  1100.923
 911  1106.855
 912  1327.52
 913  1287.182
 914  1003.003
 915  991.9064
 916  832.3435
 917  771.5176
 918  988.7346
 919  1447.862
 920  1538.846
 921  1374.045
 922  1343.108
 923  1385.551
 924  1403.264
 925  1255.389
 926  1493.088
 927  1622.979
 928  1270.067
 929  1321.379
 930  1202.854
 931  1163.533
 932  1276.201
 933  1378.841
 934  1804.224
 935  1644.905
 936  1644.266
 937  1900.616
 938  1720.981
 939  1510.401
 940  1412.436
 941  1165.701
 942  958.3249
 943  707.2146
 944  843.3347
 945  983.843
 946  787.5676
 947  727.1418
 948  844.902
 949  698.596
 950  817.4142
 951  1092.358
 952  1493.29
 953  1589.754
 954  1760.663
 955  1914.874
 956  1773.526
 957  1271.724
 958  1140.909
 959  1344.103
 960  1241.789
 961  1058.044
 962  1445.245
 963  1380.772
 964  1457.129
 965  1295.828
 966  1340.239
 967  1503.995
 968  1575.436
 969  2006.922
 970  2037.314
 971  1578.733
 972  1498.198
 973  1369.823
 974  1191.548
 975  1033.698
 976  1226.198
 977  1376.726
 978  1154.402
 979  979.0574
 980  1143.498
 981  1116.263
 982  785.126
 983  896.0735
 984  1364.799
 985  1485.382
 986  1449.06
 987  1548.011
 988  1748.316
 989  1674.201
 990  1478.273
 991  1576.632
 992  1638.999
 993  1213.23
 994  1242.871
 995  1284.58
 996  1129.763
 997  1098.723
 998  978.9622
 999  1181.234
1000  1259.393
1001  1293.506
1002  1713.886
1003  1522.464
1004  1499.932
1005  1874.832
1006  1815.41
1007  1580.571
1008  1248.36
1009  1244.396
1010  1318.215
1011  917.4819
1012  922.3815
1013  967.0878
1014  746.4874
1015  673.0483
1016  817.6811
1017  1010.767
1018  1044.474
1019  1272.244
1020  1665.211
1021  1818.697
1022  1708.225
1023  1895.645
