# Input file       =  1209460304.110143_cleaned.dat
# Candidate        =  PSR_0332+5434
# Telescope        =  AR
# Epoch_topo       =  58242.383369330360
# Epoch_bary       =  N/A
# T_sample         =  0.002
# Data Folded      =  7340032
# Data Avg         =  0.482256845183397
# Data StdDev      =  6.53355956865015 
# Profile Bins     =  512
# Profile Avg      =  6910.68450209054 
# Profile StdDev   =  782.282925502956 
# Reduced chi-sqr  =  0.641
# Prob(Noise)      <  1   (~0.0 sigma)
# P_topo (ms)      =  714.543660621648  +/- 0.00049
# P'_topo (s/s)    =  -0                +/- 2.59e-10
# P''_topo (s/s^2) =  0                 +/- 1.14e-13
# P_bary (ms)      =  N/A
# P'_bary (s/s)    =  N/A
# P''_bary (s/s^2) =  N/A
# P_orb (s)        =  N/A
# asin(i)/c (s)    =  N/A
# eccentricity     =  N/A
# w (rad)          =  N/A
# T_peri           =  N/A
######################################################
   0  6610.565
   1  6536.244
   2  6337.819
   3  6090.606
   4  5709.738
   5  6026.055
   6  5993.112
   7  6076.538
   8  6468.699
   9  6288.948
  10  6107.225
  11  6702.521
  12  6583.121
  13  6593.159
  14  6469.129
  15  6779.013
  16  6767.275
  17  6901.985
  18  6839.584
  19  7005.448
  20  6728.076
  21  6326.725
  22  6654.704
  23  6561.938
  24  6573.371
  25  6780.996
  26  6943.783
  27  6800.462
  28  6801.398
  29  6601.396
  30  6810.365
  31  6937.125
  32  6923.029
  33  7163.373
  34  7111.254
  35  6490.019
  36  6109.793
  37  6073.833
  38  6223.499
  39  6045.26
  40  6063.55
  41  6536.026
  42  6019.829
  43  5983.813
  44  6061.214
  45  6343.391
  46  6212.581
  47  6544.349
  48  6779.49
  49  6424.645
  50  6662.776
  51  6632.286
  52  6905.163
  53  6707.592
  54  6204.463
  55  6549.792
  56  6835.868
  57  6968.365
  58  6850.156
  59  7113.642
  60  6907.99
  61  7284.495
  62  7335.36
  63  7039.586
  64  6789.739
  65  7162.409
  66  7174.627
  67  6962.492
  68  7241.283
  69  7354.366
  70  7269.6
  71  7071.28
  72  7124.511
  73  7310.435
  74  7593.855
  75  8315.99
  76  8366.608
  77  7644.52
  78  7435.437
  79  7597.734
  80  7265.546
  81  7235.864
  82  7419.195
  83  7580.186
  84  7432.129
  85  6957.916
  86  6683.364
  87  6364.227
  88  6488.852
  89  6616.048
  90  6936.665
  91  6691.083
  92  6604.166
  93  6756.096
  94  6640.096
  95  6631.42
  96  6632.662
  97  7035.503
  98  6968.187
  99  7054.528
 100  7117.029
 101  7000.937
 102  6578.96
 103  6359.803
 104  6462.869
 105  6403.256
 106  6387.741
 107  6713.981
 108  6695.622
 109  6329.548
 110  6462.353
 111  6874.036
 112  6991.216
 113  6787.961
 114  6865.584
 115  6958.345
 116  6998.918
 117  6924.125
 118  6993.384
 119  6914.768
 120  7002.444
 121  6694.64
 122  7004.739
 123  6778.843
 124  6745.824
 125  7274.232
 126  7572.973
 127  7983.099
 128  7462.237
 129  7338.33
 130  6934.958
 131  7024.562
 132  7064.495
 133  7215.993
 134  7322.474
 135  7307.256
 136  7401.992
 137  7552.816
 138  7244.992
 139  6863.825
 140  6840.652
 141  6877.991
 142  7281.953
 143  7049.176
 144  7161.088
 145  7014.382
 146  6481.501
 147  6714.01
 148  6784.107
 149  6962.166
 150  7050.929
 151  7270.09
 152  7166.567
 153  6722.582
 154  6213.115
 155  6479.709
 156  7081.839
 157  7442.931
 158  7444.389
 159  7160.581
 160  6880.33
 161  7230.169
 162  7444.508
 163  7306.41
 164  7880.079
 165  7845.45
 166  7410.261
 167  7635.084
 168  7643.205
 169  7558.816
 170  7478.686
 171  7322.443
 172  6946.901
 173  6922.875
 174  6739.824
 175  6994.795
 176  7469.67
 177  6951.858
 178  6641.059
 179  6759.64
 180  6393.502
 181  6573.799
 182  6612.093
 183  6825.501
 184  6645.204
 185  6869.456
 186  6654.393
 187  6260.203
 188  6186.911
 189  6534.412
 190  6502.173
 191  6975.375
 192  7148.479
 193  7202.523
 194  6983.735
 195  6926.499
 196  6967.956
 197  7138.452
 198  7312.875
 199  7147.124
 200  7130.25
 201  7252.749
 202  6732.726
 203  6430.506
 204  6423.912
 205  6756.026
 206  6649.408
 207  6511.744
 208  6522.998
 209  6318.013
 210  6260.244
 211  6767.019
 212  6958.33
 213  7124.584
 214  6889.924
 215  6567.191
 216  6711.626
 217  6562.785
 218  6958.02
 219  7116.853
 220  7072.179
 221  6798.435
 222  7231.026
 223  7268.229
 224  7145.842
 225  7330.349
 226  7000.097
 227  7225.806
 228  7583.663
 229  7795.918
 230  7897.301
 231  7258.279
 232  6704.374
 233  6343.311
 234  6542.399
 235  6606.596
 236  6798.809
 237  6617.791
 238  6241.188
 239  6870.182
 240  6813.407
 241  6940.858
 242  7049.028
 243  7102.894
 244  7208.755
 245  7007.544
 246  7364.46
 247  7063.636
 248  6629.192
 249  6912.719
 250  7292.33
 251  7267.761
 252  7672.077
 253  7977.841
 254  7584.177
 255  7445.133
 256  7042.954
 257  7225.936
 258  7459.518
 259  7399.354
 260  7075.168
 261  7151.036
 262  7203.865
 263  7328.309
 264  7276.46
 265  6993.382
 266  6983.599
 267  6894.218
 268  6482.954
 269  6392.265
 270  6666.489
 271  6825.602
 272  6755.297
 273  6519.312
 274  6517.249
 275  6839.579
 276  6870.417
 277  6644.649
 278  6947.138
 279  6973.97
 280  7016.972
 281  6968.68
 282  6415.164
 283  6424.725
 284  6926.831
 285  6952.996
 286  6625.376
 287  6385.905
 288  6705.829
 289  7169.804
 290  7024.314
 291  6877.645
 292  6904.264
 293  6920.457
 294  7390.64
 295  7467.758
 296  7400.047
 297  7502.268
 298  7880.996
 299  8206.745
 300  8623.805
 301  8750.219
 302  8235.721
 303  7829.062
 304  6764.94
 305  6643.499
 306  6729.935
 307  7151.763
 308  6930.333
 309  6627.584
 310  6811.585
 311  6819.525
 312  7054.936
 313  7319.959
 314  7321.304
 315  7391.494
 316  7586.028
 317  7228.719
 318  7065.498
 319  7367.211
 320  7501.429
 321  7878.343
 322  7853.82
 323  7927.378
 324  7691.233
 325  7360.973
 326  7378.736
 327  7624.908
 328  7691.501
 329  7523.908
 330  7530.172
 331  7717.672
 332  7445.124
 333  7221.164
 334  7652.638
 335  7738.359
 336  7322.829
 337  7413.389
 338  7233.584
 339  7328.976
 340  7825.801
 341  7481.013
 342  7322.547
 343  7017.713
 344  6937.237
 345  7113.256
 346  6649.531
 347  6474.933
 348  6733.379
 349  6640.151
 350  6874.651
 351  7316.48
 352  7172.266
 353  6925.772
 354  6781.882
 355  6780.558
 356  6849.438
 357  7505.577
 358  7487.577
 359  7087.089
 360  7072.91
 361  7314.798
 362  7649.737
 363  7712.336
 364  7261.712
 365  7100.533
 366  7356.929
 367  6915.117
 368  6780.494
 369  6511.83
 370  6391.793
 371  6144.993
 372  6198.424
 373  6812.35
 374  6674.747
 375  6993.792
 376  6648.984
 377  6533.258
 378  6667.579
 379  6839.757
 380  6882.209
 381  6775.338
 382  6499.719
 383  6674.261
 384  6541.043
 385  6094.767
 386  6600.482
 387  6958.13
 388  6666.102
 389  6349.44
 390  6178.16
 391  5848.418
 392  5754.659
 393  6410.478
 394  6825.688
 395  6856.965
 396  6902.083
 397  6869.594
 398  6637.891
 399  6107.153
 400  6234.304
 401  6588.111
 402  6345.732
 403  6362.744
 404  6714.11
 405  6839.246
 406  7000.941
 407  6984.143
 408  6995.532
 409  6900.93
 410  6703.281
 411  6378.757
 412  6736.172
 413  6939.726
 414  6812.188
 415  6859.445
 416  7100.009
 417  6733.793
 418  6723.583
 419  6613.487
 420  6792.418
 421  6834.317
 422  7121.564
 423  6910.558
 424  6896.809
 425  6643.697
 426  6585.831
 427  6580.394
 428  6919.965
 429  6583.284
 430  6829.814
 431  6785.617
 432  6956.312
 433  7171.299
 434  6839.365
 435  7196.002
 436  7445.815
 437  7356.271
 438  7222.928
 439  6920.559
 440  6920.488
 441  6899.57
 442  6971.997
 443  6740.842
 444  6773.355
 445  6913.293
 446  6347.074
 447  6699.061
 448  6781.365
 449  6093.147
 450  6093.83
 451  6462.815
 452  6638.652
 453  6657.465
 454  6735.868
 455  6459.595
 456  6266.684
 457  6600.531
 458  6449.921
 459  6767.953
 460  6871.115
 461  6846.077
 462  7102.531
 463  7165.166
 464  7261.373
 465  7000.635
 466  6953.084
 467  6954.726
 468  7213.731
 469  7211.175
 470  7293.488
 471  7356.253
 472  7215.735
 473  6972.034
 474  6922.499
 475  7531.459
 476  7578.668
 477  7480.568
 478  7621.308
 479  7490.323
 480  7108.983
 481  7141.972
 482  6976.231
 483  6688.9
 484  6323.261
 485  6267.513
 486  5999.186
 487  5700.76
 488  5844.616
 489  5904.865
 490  5932.685
 491  6223.164
 492  5927.021
 493  6078.779
 494  6328.907
 495  6411.769
 496  6853.946
 497  7115.677
 498  7020.406
 499  6710.143
 500  6579.004
 501  6559.061
 502  6643.969
 503  6560.442
 504  6642.72
 505  6886.538
 506  6684.65
 507  6808.704
 508  6917.463
 509  6647.048
 510  6828.977
 511  6597.337
