# Input file       =  1209201872.113502_cleaned.dat
# Candidate        =  PSR_0332+5434
# Telescope        =  AR
# Epoch_topo       =  58239.392258258122
# Epoch_bary       =  N/A
# T_sample         =  0.002
# Data Folded      =  7340032
# Data Avg         =  0.0627275018725531
# Data StdDev      =  0.999914946564682
# Profile Bins     =  512
# Profile Avg      =  898.248244611302 
# Profile StdDev   =  119.722852670701 
# Reduced chi-sqr  =  1.813
# Prob(Noise)      <  1.87e-26   (~10.6 sigma)
# P_topo (ms)      =  714.54638122993   +/- 0.000341
# P'_topo (s/s)    =  -0                +/- 1.8e-10
# P''_topo (s/s^2) =  0                 +/- 7.93e-14
# P_bary (ms)      =  N/A
# P'_bary (s/s)    =  N/A
# P''_bary (s/s^2) =  N/A
# P_orb (s)        =  N/A
# asin(i)/c (s)    =  N/A
# eccentricity     =  N/A
# w (rad)          =  N/A
# T_peri           =  N/A
######################################################
   0  698.9264
   1  800.9023
   2  788.8969
   3  849.4036
   4  848.4496
   5  888.1395
   6  818.8542
   7  871.5354
   8  986.1397
   9  989.457
  10  943.9371
  11  894.2032
  12  818.8302
  13  849.7082
  14  830.7136
  15  768.6392
  16  838.1542
  17  933.9113
  18  884.2821
  19  877.0571
  20  874.576
  21  918.2335
  22  861.9566
  23  819.9539
  24  887.0922
  25  928.3231
  26  887.0941
  27  870.0507
  28  897.2828
  29  868.9952
  30  925.6089
  31  835.3241
  32  821.4329
  33  908.6367
  34  936.973
  35  897.2562
  36  836.8821
  37  903.9932
  38  860.4156
  39  827.2423
  40  846.4642
  41  889.8858
  42  910.6395
  43  827.5178
  44  807.9954
  45  924.0095
  46  983.1025
  47  852.0278
  48  844.4551
  49  790.3528
  50  846.0566
  51  840.1458
  52  872.9966
  53  949.8162
  54  830.6108
  55  887.0346
  56  894.8417
  57  842.5775
  58  874.7327
  59  899.681
  60  836.0782
  61  847.4735
  62  869.0582
  63  907.544
  64  856.6384
  65  860.5352
  66  840.2843
  67  775.9214
  68  804.2861
  69  844.0884
  70  867.2727
  71  828.045
  72  813.5132
  73  826.6609
  74  751.7271
  75  740.0122
  76  827.2659
  77  878.0832
  78  869.5452
  79  808.0193
  80  827.4048
  81  749.3847
  82  770.9992
  83  807.8165
  84  844.3297
  85  850.0286
  86  808.38
  87  907.2204
  88  905.5546
  89  801.7451
  90  861.0593
  91  967.2528
  92  985.1152
  93  1002.599
  94  971.1978
  95  957.064
  96  970.8611
  97  981.6741
  98  966.4353
  99  1009.341
 100  1041.98
 101  936.9077
 102  911.3169
 103  952.8395
 104  939.4329
 105  880.3201
 106  904.7439
 107  1013.682
 108  1078.068
 109  1058.986
 110  1021.739
 111  1053.483
 112  1018.212
 113  1015.863
 114  970.5604
 115  1018.078
 116  964.3597
 117  967.8997
 118  922.0767
 119  903.8088
 120  902.0616
 121  880.8235
 122  892.0442
 123  931.2934
 124  1049.213
 125  977.5102
 126  943.4389
 127  918.3448
 128  912.9962
 129  990.0975
 130  888.4348
 131  967.0361
 132  846.4639
 133  760.6053
 134  822.7259
 135  873.0984
 136  845.591
 137  859.8378
 138  807.48
 139  869.7541
 140  877.4537
 141  847.5858
 142  791.7089
 143  851.5782
 144  857.1962
 145  941.5851
 146  937.3349
 147  843.3207
 148  932.8588
 149  915.2219
 150  879.1996
 151  909.2461
 152  936.6896
 153  897.2674
 154  895.5059
 155  992.7053
 156  1066.476
 157  937.1398
 158  937.2607
 159  984.8917
 160  866.7227
 161  982.499
 162  986.0804
 163  1004.563
 164  1016.091
 165  1028.912
 166  934.3823
 167  1006.892
 168  1035.185
 169  1053.984
 170  1057.011
 171  1013.86
 172  985.4969
 173  940.1719
 174  1015.065
 175  1135.364
 176  1083.986
 177  1059.465
 178  1067.589
 179  1003.983
 180  962.3167
 181  1018.784
 182  1077.525
 183  1057.388
 184  941.1132
 185  978.2675
 186  1040.658
 187  1022.121
 188  922.4743
 189  924.5439
 190  972.3592
 191  1061.612
 192  1086.43
 193  1011.664
 194  948.0114
 195  1029.083
 196  1025.025
 197  1071.271
 198  1092.982
 199  1114.138
 200  1064.147
 201  1114.702
 202  1112.625
 203  1088.793
 204  1024.507
 205  1060.385
 206  1052.055
 207  1010.127
 208  1048.005
 209  1052.478
 210  1011.358
 211  875.5327
 212  880.3186
 213  1011.653
 214  1009.34
 215  976.1733
 216  945.4069
 217  964.0756
 218  962.9086
 219  977.0676
 220  960.0901
 221  950.8062
 222  983.0017
 223  941.2363
 224  822.5827
 225  771.666
 226  840.9344
 227  890.2201
 228  883.0734
 229  931.4345
 230  893.8794
 231  1006.074
 232  1030.462
 233  994.0169
 234  940.0001
 235  964.3624
 236  947.2988
 237  1032.064
 238  1033.99
 239  960.9172
 240  925.6461
 241  946.0372
 242  969.5521
 243  994.736
 244  1086.807
 245  1048.792
 246  1009.535
 247  1034.928
 248  1007.394
 249  1008.073
 250  1084.362
 251  972.7072
 252  896.5748
 253  898.4485
 254  886.8113
 255  854.1221
 256  837.8053
 257  891.8624
 258  985.8756
 259  1003.152
 260  934.7769
 261  933.1417
 262  922.3811
 263  951.2497
 264  877.5844
 265  914.595
 266  898.2391
 267  952.9922
 268  898.175
 269  891.0031
 270  919.9612
 271  898.9563
 272  960.6345
 273  947.8532
 274  1003.431
 275  1021.624
 276  946.8558
 277  968.1391
 278  954.3164
 279  983.8273
 280  894.7031
 281  868.3357
 282  922.6055
 283  934.8099
 284  867.7329
 285  846.8947
 286  804.989
 287  823.7283
 288  857.7939
 289  843.7756
 290  822.3647
 291  910.8304
 292  922.8987
 293  936.0993
 294  860.8662
 295  898.3547
 296  978.6378
 297  914.3522
 298  867.9776
 299  881.3068
 300  999.6656
 301  998.1661
 302  935.5955
 303  968.9426
 304  1022.518
 305  1001.282
 306  999.2422
 307  961.2934
 308  971.8486
 309  1037.782
 310  1028.727
 311  1051.336
 312  1082.777
 313  982.9324
 314  900.2808
 315  951.3641
 316  907.5131
 317  963.4099
 318  970.8203
 319  953.988
 320  970.8455
 321  969.3467
 322  926.3403
 323  919.8607
 324  1017.555
 325  988.1967
 326  930.3511
 327  843.9605
 328  880.2825
 329  958.7937
 330  961.6417
 331  951.4593
 332  986.1174
 333  904.0901
 334  882.825
 335  844.4608
 336  908.7028
 337  965.2447
 338  923.3785
 339  948.7374
 340  970.9423
 341  924.8801
 342  984.6926
 343  933.2086
 344  797.6448
 345  823.6681
 346  905.7336
 347  947.1411
 348  921.2021
 349  952.9706
 350  887.7343
 351  803.2103
 352  866.7836
 353  871.5324
 354  843.465
 355  821.7042
 356  779.2266
 357  821.5757
 358  747.0317
 359  700.0211
 360  850.0387
 361  880.6869
 362  826.3989
 363  788.415
 364  747.4788
 365  774.3701
 366  753.7592
 367  823.2412
 368  815.0753
 369  807.3408
 370  799.7151
 371  779.0134
 372  745.7337
 373  800.0815
 374  816.4327
 375  838.6656
 376  873.0967
 377  891.1428
 378  906.9353
 379  901.3295
 380  864.5327
 381  883.845
 382  859.004
 383  899.4719
 384  934.6251
 385  860.8666
 386  908.1611
 387  961.4047
 388  925.5516
 389  957.4391
 390  1003.182
 391  1008.124
 392  1037.129
 393  1027.725
 394  994.265
 395  1070.47
 396  1182.949
 397  1316.376
 398  1394.564
 399  1424.005
 400  1372.057
 401  1336.855
 402  1145.52
 403  983.8135
 404  1010.155
 405  988.3522
 406  1002.326
 407  950.6034
 408  972.6927
 409  954.499
 410  947.3625
 411  971.1412
 412  977.4452
 413  999.0414
 414  921.0721
 415  887.7571
 416  820.7556
 417  763.1891
 418  695.2588
 419  695.9144
 420  682.5574
 421  698.4362
 422  653.2338
 423  624.4272
 424  652.4714
 425  730.3876
 426  746.6725
 427  774.2849
 428  784.8107
 429  799.3135
 430  718.6498
 431  706.7933
 432  709.8824
 433  684.4506
 434  666.9528
 435  604.3899
 436  553.0404
 437  662.3546
 438  714.5909
 439  689.2599
 440  666.5452
 441  641.7913
 442  614.0659
 443  659.6964
 444  724.7375
 445  685.9084
 446  661.4219
 447  569.1041
 448  572.962
 449  640.4294
 450  599.5046
 451  571.9953
 452  634.8058
 453  695.8781
 454  676.2734
 455  720.0931
 456  751.8068
 457  697.4632
 458  808.5047
 459  786.3552
 460  721.7032
 461  689.1618
 462  699.6161
 463  712.277
 464  713.7855
 465  702.0547
 466  780.6802
 467  772.1141
 468  765.1507
 469  808.4213
 470  730.7619
 471  817.4498
 472  850.9526
 473  892.8297
 474  838.3282
 475  804.2037
 476  803.8978
 477  780.7903
 478  784.5234
 479  849.3704
 480  858.0742
 481  841.6121
 482  840.7203
 483  866.7172
 484  896.2154
 485  943.7689
 486  922.7805
 487  973.0577
 488  939.6702
 489  845.3672
 490  915.1592
 491  942.0561
 492  944.4583
 493  837.0214
 494  820.0761
 495  772.9083
 496  796.1221
 497  845.0367
 498  890.7085
 499  865.8778
 500  942.0018
 501  932.2626
 502  767.6929
 503  843.322
 504  837.9568
 505  757.6781
 506  725.8497
 507  752.7644
 508  815.3336
 509  767.2039
 510  784.1436
 511  718.4008
