# Input file       =  1209704165.112302_cleaned.dat
# Candidate        =  PSR_0332+5434
# Telescope        =  AR
# Epoch_topo       =  58245.205834633125
# Epoch_bary       =  N/A
# T_sample         =  0.002
# Data Folded      =  7208960
# Data Avg         =  0.0430683440915991
# Data StdDev      =  1.0000489222068  
# Profile Bins     =  512
# Profile Avg      =  606.37879167418  
# Profile StdDev   =  118.664980862268 
# Reduced chi-sqr  =  2.231
# Prob(Noise)      <  5.32e-50   (~14.8 sigma)
# P_topo (ms)      =  714.54103219282   +/- 4.6e-05
# P'_topo (s/s)    =  -0                +/- 2.47e-11
# P''_topo (s/s^2) =  0                 +/- 1.11e-14
# P_bary (ms)      =  N/A
# P'_bary (s/s)    =  N/A
# P''_bary (s/s^2) =  N/A
# P_orb (s)        =  N/A
# asin(i)/c (s)    =  N/A
# eccentricity     =  N/A
# w (rad)          =  N/A
# T_peri           =  N/A
######################################################
   0  744.4597
   1  594.4445
   2  425.8447
   3  382.2667
   4  402.4809
   5  502.2911
   6  529.2131
   7  551.6651
   8  456.874
   9  494.1957
  10  521.5377
  11  545.9534
  12  522.1432
  13  532.637
  14  509.5135
  15  544.2897
  16  605.9644
  17  584.5059
  18  574.9309
  19  478.744
  20  392.2823
  21  248.672
  22  320.5558
  23  469.4832
  24  548.5625
  25  480.0952
  26  487.2278
  27  502.0838
  28  456.4092
  29  485.2258
  30  479.7456
  31  494.1449
  32  581.5807
  33  612.4282
  34  598.5893
  35  573.4146
  36  479.1986
  37  458.9604
  38  443.1964
  39  375.2083
  40  590.8099
  41  694.7158
  42  627.3468
  43  491.8485
  44  503.0609
  45  578.9984
  46  606.3122
  47  631.2679
  48  600.1019
  49  519.4475
  50  654.8101
  51  610.0993
  52  616.2839
  53  568.421
  54  452.4377
  55  378.3436
  56  555.6329
  57  625.1369
  58  611.8679
  59  551.6836
  60  463.9254
  61  468.2107
  62  587.3703
  63  762.7224
  64  896.3973
  65  766.9023
  66  633.0624
  67  579.874
  68  555.946
  69  552.8972
  70  673.1078
  71  645.9736
  72  573.4301
  73  635.356
  74  492.2446
  75  506.31
  76  659.9935
  77  574.6644
  78  641.1527
  79  554.0169
  80  677.3813
  81  585.4407
  82  599.031
  83  635.6847
  84  578.608
  85  600.8992
  86  662.9171
  87  530.2341
  88  506.9691
  89  540.3142
  90  675.6626
  91  620.9276
  92  508.3983
  93  526.3275
  94  591.1434
  95  459.005
  96  688.0306
  97  584.2318
  98  632.5095
  99  511.3396
 100  637.4932
 101  662.6816
 102  619.7069
 103  539.4187
 104  505.6496
 105  645.1937
 106  805.6318
 107  823.3303
 108  648.969
 109  535.0402
 110  545.9747
 111  452.6606
 112  493.6529
 113  522.4042
 114  663.9116
 115  757.097
 116  711.7256
 117  740.3637
 118  561.4451
 119  478.3279
 120  431.1254
 121  483.0046
 122  575.6157
 123  583.9871
 124  456.0826
 125  532.593
 126  487.7212
 127  439.3817
 128  563.7662
 129  713.2675
 130  779.9651
 131  577.1667
 132  529.1675
 133  567.2913
 134  596.3581
 135  602.1136
 136  434.2113
 137  547.3057
 138  569.732
 139  487.7149
 140  527.243
 141  549.9033
 142  478.9851
 143  487.2475
 144  472.9001
 145  421.3432
 146  613.147
 147  767.7028
 148  718.5057
 149  829.5992
 150  644.4966
 151  535.5407
 152  629.4528
 153  600.8253
 154  552.2948
 155  559.0933
 156  519.376
 157  511.5735
 158  389.2818
 159  466.9086
 160  532.8808
 161  516.1759
 162  489.6267
 163  686.7895
 164  717.8959
 165  611.1116
 166  650.437
 167  645.0226
 168  451.3441
 169  422.1336
 170  612.4813
 171  752.3137
 172  736.5081
 173  586.1248
 174  490.2886
 175  435.7069
 176  477.9074
 177  571.3735
 178  512.1632
 179  445.3135
 180  591.1246
 181  806.6274
 182  805.2637
 183  722.6075
 184  576.0609
 185  514.6511
 186  569.0275
 187  662.0703
 188  740.4977
 189  739.0446
 190  674.3585
 191  590.2543
 192  671.4946
 193  584.7659
 194  603.7842
 195  621.4312
 196  687.5175
 197  817.0473
 198  836.1532
 199  776.9289
 200  676.8256
 201  442.4131
 202  430.8489
 203  367.2188
 204  509.982
 205  699.8417
 206  779.8051
 207  723.5076
 208  600.0159
 209  572.1824
 210  455.8911
 211  526.4323
 212  657.6005
 213  691.7847
 214  621.2983
 215  701.8773
 216  651.8539
 217  606.0538
 218  641.4883
 219  576.0465
 220  666.6483
 221  628.688
 222  582.2972
 223  476.9948
 224  479.5117
 225  563.7896
 226  505.8272
 227  405.17
 228  532.3647
 229  579.7369
 230  635.6981
 231  652.3727
 232  594.6693
 233  618.3474
 234  608.8618
 235  587.3367
 236  559.6709
 237  525.7365
 238  543.4836
 239  603.5931
 240  628.1524
 241  519.9702
 242  530.2542
 243  506.9686
 244  470.4584
 245  549.8439
 246  741.3511
 247  757.3414
 248  693.7116
 249  593.1628
 250  593.464
 251  649.4506
 252  593.5649
 253  642.1697
 254  659.6695
 255  716.2123
 256  627.9124
 257  652.8447
 258  456.6097
 259  386.9622
 260  520.9143
 261  564.8414
 262  545.4413
 263  630.6132
 264  671.3937
 265  681.7156
 266  526.9039
 267  561.2487
 268  488.2198
 269  530.3553
 270  567.2385
 271  575.8975
 272  631.9506
 273  678.4075
 274  716.5735
 275  484.7302
 276  449.7358
 277  538.5898
 278  710.3127
 279  854.5317
 280  831.5199
 281  746.8161
 282  685.036
 283  693.6511
 284  589.6376
 285  612.1395
 286  609.5434
 287  697.4234
 288  788.1815
 289  707.308
 290  627.6598
 291  530.8835
 292  584.7153
 293  546.595
 294  572.1486
 295  704.6409
 296  758.2745
 297  703.697
 298  588.5952
 299  611.502
 300  613.2805
 301  635.4716
 302  547.085
 303  674.1178
 304  812.3915
 305  789.3403
 306  739.3026
 307  678.437
 308  692.3705
 309  578.2344
 310  524.8573
 311  582.4825
 312  721.8337
 313  778.8098
 314  736.876
 315  733.4726
 316  585.9099
 317  522.2164
 318  460.4316
 319  568.4938
 320  635.0123
 321  728.6613
 322  645.4526
 323  494.2957
 324  517.9305
 325  537.7787
 326  564.4388
 327  632.2444
 328  501.1484
 329  617.8403
 330  743.7056
 331  921.0274
 332  786.4146
 333  541.5078
 334  627.4857
 335  566.8722
 336  528.8901
 337  567.3051
 338  589.1577
 339  629.2618
 340  617.0807
 341  579.5599
 342  579.4176
 343  537.485
 344  551.9387
 345  762.9545
 346  713.3733
 347  754.3291
 348  668.2459
 349  625.4247
 350  514.864
 351  438.5487
 352  455.3657
 353  400.9078
 354  453.3308
 355  702.6586
 356  593.7599
 357  467.6506
 358  481.9482
 359  528.0547
 360  594.8895
 361  627.1276
 362  623.8798
 363  646.1542
 364  729.4571
 365  659.3568
 366  571.4154
 367  485.218
 368  525.4823
 369  531.7537
 370  553.0491
 371  683.886
 372  633.4967
 373  510.0987
 374  478.7701
 375  465.449
 376  634.6096
 377  636.3987
 378  707.2241
 379  730.7429
 380  769.975
 381  719.3608
 382  737.6296
 383  644.8238
 384  578.663
 385  548.2662
 386  582.6474
 387  643.1655
 388  719.649
 389  673.7537
 390  663.2366
 391  553.0065
 392  506.631
 393  551.7269
 394  670.5356
 395  851.6026
 396  804.1176
 397  701.4022
 398  730.1489
 399  688.7177
 400  665.6746
 401  600.5083
 402  666.8599
 403  738.4683
 404  730.6393
 405  668.0513
 406  670.998
 407  577.831
 408  603.5683
 409  641.9125
 410  805.8709
 411  817.897
 412  971.4062
 413  1124.455
 414  1338.099
 415  1391.689
 416  1354.099
 417  1262.289
 418  1218.406
 419  940.0994
 420  667.2686
 421  591.1416
 422  672.8167
 423  643.782
 424  503.8141
 425  495.3728
 426  535.0396
 427  649.2297
 428  856.2856
 429  808.8331
 430  800.3065
 431  696.8458
 432  638.8702
 433  648.1439
 434  528.9427
 435  696.4529
 436  670.4689
 437  602.6282
 438  555.4258
 439  448.646
 440  377.8937
 441  547.4564
 442  683.8762
 443  667.1818
 444  539.7777
 445  662.6386
 446  760.2711
 447  573.0866
 448  494.0216
 449  524.9445
 450  538.7592
 451  586.8881
 452  577.7614
 453  545.5154
 454  532.6477
 455  532.7324
 456  554.8969
 457  579.5609
 458  460.5363
 459  556.6948
 460  724.5461
 461  812.1229
 462  803.5968
 463  685.2789
 464  640.4083
 465  575.3453
 466  648.8569
 467  688.2916
 468  546.5412
 469  541.3078
 470  574.5977
 471  625.5749
 472  534.9265
 473  520.7792
 474  477.8002
 475  539.6097
 476  668.8269
 477  746.4173
 478  793.8561
 479  738.6335
 480  718.4871
 481  623.5415
 482  600.79
 483  590.5588
 484  626.1762
 485  520.9752
 486  520.1071
 487  620.179
 488  612.9589
 489  577.2457
 490  542.1657
 491  472.8641
 492  641.5208
 493  654.9748
 494  693.2689
 495  625.1472
 496  506.9024
 497  527.3711
 498  470.9253
 499  474.2547
 500  529.187
 501  466.7391
 502  584.5148
 503  638.7303
 504  602.069
 505  557.4151
 506  384.9344
 507  382.7385
 508  457.9612
 509  636.3167
 510  722.9131
 511  762.4888
