# Input file       =  1209187230.109958_cleaned.dat
# Candidate        =  PSR_0332+5434
# Telescope        =  AR
# Epoch_topo       =  58239.222790624510
# Epoch_bary       =  N/A
# T_sample         =  0.002
# Data Folded      =  7208960
# Data Avg         =  0.0447225401307123
# Data StdDev      =  1.00006750078863 
# Profile Bins     =  512
# Profile Avg      =  629.683657663996 
# Profile StdDev   =  118.667185381474 
# Reduced chi-sqr  =  1.706
# Prob(Noise)      <  2.92e-21   (~9.4 sigma)
# P_topo (ms)      =  714.546520116055  +/- 9.45e-05
# P'_topo (s/s)    =  -0                +/- 5.07e-11
# P''_topo (s/s^2) =  0                 +/- 2.28e-14
# P_bary (ms)      =  N/A
# P'_bary (s/s)    =  N/A
# P''_bary (s/s^2) =  N/A
# P_orb (s)        =  N/A
# asin(i)/c (s)    =  N/A
# eccentricity     =  N/A
# w (rad)          =  N/A
# T_peri           =  N/A
######################################################
   0  1315.96
   1  1232.382
   2  932.9315
   3  815.582
   4  759.934
   5  645.4279
   6  584.1108
   7  585.2819
   8  644.3215
   9  688.309
  10  758.9347
  11  748.7306
  12  714.8639
  13  641.1137
  14  709.4255
  15  728.9193
  16  735.9207
  17  744.3713
  18  764.0864
  19  659.8093
  20  563.134
  21  596.9185
  22  569.5688
  23  571.3336
  24  539.7794
  25  533.03
  26  511.8276
  27  604.5406
  28  765.4958
  29  895.6371
  30  718.866
  31  647.4108
  32  696.8379
  33  715.8028
  34  693.8547
  35  688.11
  36  693.752
  37  654.4498
  38  701.5863
  39  560.2082
  40  699.1614
  41  559.5157
  42  457.9408
  43  562.6108
  44  656.6733
  45  693.5566
  46  611.8203
  47  729.3939
  48  760.4696
  49  734.2502
  50  764.6785
  51  690.1537
  52  664.706
  53  633.5816
  54  754.9589
  55  754.8546
  56  693.9556
  57  656.4796
  58  596.9636
  59  632.7441
  60  687.063
  61  744.7999
  62  747.2306
  63  595.1953
  64  479.4471
  65  574.7013
  66  607.0628
  67  680.1218
  68  750.1936
  69  729.6808
  70  725.5402
  71  662.9332
  72  806.9716
  73  743.0374
  74  610.2155
  75  580.9025
  76  697.4597
  77  689.9525
  78  805.2638
  79  882.1147
  80  743.2635
  81  719.0956
  82  692.5923
  83  757.5164
  84  651.8246
  85  626.5948
  86  705.6512
  87  797.461
  88  651.3079
  89  597.2929
  90  495.6863
  91  494.8406
  92  581.689
  93  699.4423
  94  781.098
  95  687.3311
  96  668.2079
  97  721.584
  98  578.6078
  99  641.775
 100  620.7631
 101  521.7148
 102  614.6125
 103  590.3526
 104  549.1678
 105  665.6162
 106  675.6778
 107  578.7384
 108  556.4805
 109  563.4755
 110  603.2657
 111  731.8696
 112  805.4025
 113  653.6899
 114  639.3634
 115  598.5761
 116  598.1144
 117  686.788
 118  533.561
 119  502.207
 120  617.9185
 121  603.1973
 122  551.9714
 123  562.0703
 124  575.8211
 125  669.6626
 126  703.2661
 127  705.3909
 128  709.6029
 129  608.6396
 130  709.2447
 131  533.4768
 132  583.8744
 133  700.2881
 134  789.9424
 135  670.3298
 136  567.9324
 137  652.4147
 138  744.1166
 139  602.4882
 140  465.9348
 141  536.5691
 142  669.2432
 143  672.2698
 144  741.3381
 145  667.6055
 146  598.9304
 147  659.8939
 148  767.2496
 149  681.3851
 150  461.478
 151  535.1086
 152  648.7344
 153  601.6643
 154  542.4797
 155  623.3712
 156  535.1213
 157  429.4335
 158  553.8209
 159  673.5495
 160  515.988
 161  652.4232
 162  716.7001
 163  555.2978
 164  450.4091
 165  537.1325
 166  735.1669
 167  646.2841
 168  675.071
 169  555.0488
 170  413.8067
 171  436.1239
 172  477.067
 173  483.4826
 174  497.6124
 175  576.3207
 176  616.6058
 177  604.6101
 178  460.9892
 179  425.593
 180  644.7366
 181  742.9668
 182  601.5189
 183  623.897
 184  626.8456
 185  513.1259
 186  422.3949
 187  640.6144
 188  590.4795
 189  622.2333
 190  483.4279
 191  586.1055
 192  525.679
 193  581.1895
 194  605.6066
 195  645.6609
 196  543.9977
 197  534.0579
 198  548.7815
 199  504.5525
 200  544.571
 201  562.3372
 202  676.6226
 203  557.0721
 204  603.2296
 205  519.7126
 206  496.0331
 207  494.069
 208  496.4598
 209  541.3846
 210  679.2455
 211  726.7873
 212  532.2292
 213  597.1179
 214  539.387
 215  598.846
 216  552.4163
 217  542.7241
 218  641.9878
 219  550.6536
 220  493.4818
 221  483.6374
 222  507.0287
 223  522.9871
 224  482.2869
 225  586.6685
 226  584.8168
 227  636.9739
 228  522.6203
 229  612.9166
 230  669.1201
 231  710.6154
 232  660.3286
 233  637.764
 234  681.4286
 235  546.8101
 236  609.6124
 237  600.0559
 238  636.915
 239  484.2799
 240  521.5756
 241  550.9178
 242  689.3039
 243  695.6425
 244  677.117
 245  634.8738
 246  641.6398
 247  657.8634
 248  629.9344
 249  544.7726
 250  662.3967
 251  664.5214
 252  439.0251
 253  465.7827
 254  544.3865
 255  544.6567
 256  516.2455
 257  532.8976
 258  606.1509
 259  633.2204
 260  595.7437
 261  577.8475
 262  532.7809
 263  603.5519
 264  683.3497
 265  630.6913
 266  650.3604
 267  695.9074
 268  678.6841
 269  596.4243
 270  534.6566
 271  528.0065
 272  618.2944
 273  527.7311
 274  658.3292
 275  598.8292
 276  625.4897
 277  640.8573
 278  523.665
 279  511.6412
 280  594.3522
 281  551.2278
 282  660.6388
 283  837.0413
 284  691.0839
 285  685.4465
 286  605.7717
 287  564.28
 288  453.1013
 289  435.0813
 290  464.6689
 291  441.592
 292  604.8195
 293  663.3746
 294  620.0883
 295  524.8436
 296  560.067
 297  531.2571
 298  558.9871
 299  527.1253
 300  519.3314
 301  627.2759
 302  635.8488
 303  561.3835
 304  488.744
 305  585.8734
 306  418.0418
 307  451.6389
 308  590.0452
 309  631.9908
 310  612.3647
 311  574.1775
 312  519.2172
 313  387.6322
 314  426.495
 315  611.2606
 316  594.3392
 317  501.171
 318  526.7687
 319  491.4709
 320  450.0752
 321  441.6104
 322  448.563
 323  548.8094
 324  567.4919
 325  621.7637
 326  656.8712
 327  619.9028
 328  635.0786
 329  463.4545
 330  687.971
 331  729.728
 332  770.5239
 333  612.4065
 334  628.0824
 335  625.0458
 336  556.697
 337  598.0438
 338  482.9727
 339  512.0626
 340  645.1934
 341  605.6057
 342  576.5251
 343  517.3892
 344  637.2841
 345  662.5563
 346  660.3151
 347  749.4953
 348  655.7188
 349  579.7117
 350  543.2978
 351  508.2229
 352  617.5522
 353  634.3593
 354  600.1266
 355  554.6703
 356  550.1246
 357  518.0819
 358  549.9403
 359  702.3477
 360  654.7383
 361  644.466
 362  622.1194
 363  659.0015
 364  617.0334
 365  695.1116
 366  818.343
 367  691.6639
 368  616.1987
 369  582.1025
 370  682.4329
 371  573.3665
 372  516.2529
 373  653.3208
 374  696.5421
 375  700.0579
 376  717.6401
 377  671.8043
 378  552.282
 379  523.3986
 380  583.9622
 381  675.2222
 382  822.2203
 383  703.9987
 384  721.9442
 385  736.0599
 386  632.7564
 387  477.4868
 388  479.3685
 389  566.2379
 390  557.7413
 391  692.1872
 392  743.0696
 393  620.0426
 394  453.7473
 395  532.7889
 396  562.7746
 397  557.1356
 398  583.4761
 399  651.7754
 400  702.6271
 401  645.8539
 402  555.9152
 403  472.5224
 404  528.3055
 405  503.8447
 406  446.4388
 407  501.2719
 408  539.7608
 409  582.0053
 410  642.7706
 411  654.7012
 412  589.7131
 413  521.2033
 414  643.8751
 415  618.8776
 416  656.8911
 417  642.9559
 418  548.9642
 419  547.8381
 420  522.1654
 421  473.5484
 422  559.2185
 423  629.7879
 424  721.5379
 425  703.407
 426  631.0443
 427  628.6783
 428  643.1651
 429  812.7345
 430  730.7407
 431  780.3099
 432  788.6713
 433  726.9149
 434  614.5028
 435  507.1846
 436  576.1875
 437  635.3296
 438  613.3762
 439  635.7737
 440  680.1567
 441  756.0277
 442  833.5637
 443  763.408
 444  665.7941
 445  677.8688
 446  641.5416
 447  751.8303
 448  740.8867
 449  764.2388
 450  657.3029
 451  608.6235
 452  559.7714
 453  576.752
 454  626.945
 455  756.1967
 456  794.7776
 457  642.9597
 458  783.5767
 459  782.2548
 460  725.1014
 461  655.9502
 462  718.1865
 463  660.8013
 464  542.7921
 465  665.4246
 466  700.77
 467  688.1604
 468  699.3933
 469  634.0546
 470  620.8951
 471  641.5836
 472  623.9144
 473  633.1686
 474  724.6515
 475  714.1647
 476  750.1159
 477  672.2111
 478  654.6907
 479  646.9955
 480  639.6401
 481  830.3533
 482  684.3119
 483  628.2087
 484  649.2589
 485  595.8891
 486  519.0222
 487  489.3062
 488  471.1752
 489  661.9193
 490  826.7537
 491  821.3861
 492  816.0666
 493  767.1721
 494  624.5693
 495  591.5391
 496  717.0168
 497  804.6257
 498  787.8192
 499  626.6432
 500  631.4937
 501  567.9046
 502  515.895
 503  562.9646
 504  681.5068
 505  726.979
 506  856.191
 507  883.3008
 508  1066.114
 509  1099.781
 510  1218.258
 511  1260.737
