# Input file       =  1209029504.11775_cleaned.dat
# Candidate        =  PSR_0332+5434
# Telescope        =  AR
# Epoch_topo       =  58237.397258307290
# Epoch_bary       =  N/A
# T_sample         =  0.002
# Data Folded      =  7340032
# Data Avg         =  0.0440638900216752
# Data StdDev      =  1.00017268759313 
# Profile Bins     =  512
# Profile Avg      =  631.634562775883 
# Profile StdDev   =  119.753712786636 
# Reduced chi-sqr  =  1.054
# Prob(Noise)      <  0.194   (~0.9 sigma)
# P_topo (ms)      =  714.54816295678   +/- 0.000408
# P'_topo (s/s)    =  -0                +/- 2.15e-10
# P''_topo (s/s^2) =  0                 +/- 9.49e-14
# P_bary (ms)      =  N/A
# P'_bary (s/s)    =  N/A
# P''_bary (s/s^2) =  N/A
# P_orb (s)        =  N/A
# asin(i)/c (s)    =  N/A
# eccentricity     =  N/A
# w (rad)          =  N/A
# T_peri           =  N/A
######################################################
   0  736.7363
   1  685.4109
   2  637.3141
   3  628.8557
   4  684.3204
   5  603.118
   6  678.4058
   7  655.285
   8  728.2234
   9  705.112
  10  685.6151
  11  621.9547
  12  699.7223
  13  724.2966
  14  718.7813
  15  648.3709
  16  649.2985
  17  699.7547
  18  613.3502
  19  603.9125
  20  709.2165
  21  674.6713
  22  671.4229
  23  661.7114
  24  645.949
  25  526.2723
  26  563.8332
  27  612.8761
  28  654.7072
  29  552.5784
  30  529.5664
  31  536.2646
  32  544.5284
  33  521.9848
  34  509.6323
  35  542.3578
  36  549.0844
  37  510.014
  38  496.5248
  39  462.6083
  40  423.3766
  41  446.4731
  42  568.8121
  43  539.4951
  44  464.1807
  45  479.3056
  46  459.1554
  47  523.3084
  48  604.3191
  49  551.1187
  50  478.3074
  51  555.4733
  52  634.1343
  53  525.671
  54  492.1203
  55  546.8203
  56  526.6453
  57  509.8855
  58  522.8029
  59  527.0966
  60  595.4824
  61  592.6961
  62  602.1818
  63  582.5875
  64  604.3516
  65  683.992
  66  564.1738
  67  593.4308
  68  592.673
  69  655.8264
  70  657.6424
  71  581.5599
  72  601.5826
  73  677.2826
  74  679.6521
  75  696.9407
  76  668.7147
  77  612.9073
  78  583.6354
  79  609.6558
  80  642.6306
  81  590.3942
  82  606.793
  83  575.4991
  84  544.3116
  85  566.5793
  86  656.7275
  87  622.4295
  88  591.8582
  89  599.4266
  90  604.0675
  91  641.7783
  92  619.764
  93  583.5446
  94  575.6886
  95  541.3287
  96  578.9194
  97  586.4919
  98  523.1269
  99  523.227
 100  496.455
 101  554.5384
 102  560.9496
 103  591.7475
 104  632.1422
 105  629.7136
 106  635.1801
 107  587.0242
 108  616.1642
 109  711.6486
 110  735.7795
 111  656.5426
 112  640.885
 113  595.2828
 114  625.649
 115  646.3898
 116  637.618
 117  661.7551
 118  632.5311
 119  612.4745
 120  589.4072
 121  606.2746
 122  598.0879
 123  547.7471
 124  587.5679
 125  594.3298
 126  528.0427
 127  591.2926
 128  635.5391
 129  621.3538
 130  572.8981
 131  610.4174
 132  562.2109
 133  506.8852
 134  532.2842
 135  600.4619
 136  605.8539
 137  578.0767
 138  575.4408
 139  605.4518
 140  530.0419
 141  591.8528
 142  640.7264
 143  556.0196
 144  532.5039
 145  532.1569
 146  585.0247
 147  519.4318
 148  525.8449
 149  499.5905
 150  493.7756
 151  547.175
 152  557.3686
 153  549.981
 154  609.867
 155  614.5989
 156  637.1681
 157  662.2228
 158  707.0735
 159  717.3932
 160  686.0149
 161  614.9836
 162  577.6273
 163  540.2806
 164  562.2089
 165  535.0768
 166  547.252
 167  571.0939
 168  617.7772
 169  705.5836
 170  625.1008
 171  605.4929
 172  620.4219
 173  677.8507
 174  700.2578
 175  701.0883
 176  659.8307
 177  541.6207
 178  583.2738
 179  644.7348
 180  608.8528
 181  499.3345
 182  493.6807
 183  588.9232
 184  587.9437
 185  647.2365
 186  614.31
 187  617.9599
 188  617.4506
 189  648.587
 190  623.052
 191  574.8256
 192  565.5079
 193  645.8231
 194  694.1364
 195  654.4251
 196  618.5288
 197  575.5133
 198  525.193
 199  492.7299
 200  602.1833
 201  663.2062
 202  646.0198
 203  656.0681
 204  597.1017
 205  523.4338
 206  597.5273
 207  623.7054
 208  605.2402
 209  632.8057
 210  674.6313
 211  597.2062
 212  617.3347
 213  585.6614
 214  634.2233
 215  631.8159
 216  628.1938
 217  583.7338
 218  523.6668
 219  533.562
 220  528.2529
 221  608.2639
 222  611.6078
 223  587.4409
 224  629.3582
 225  570.2716
 226  587.7714
 227  631.879
 228  650.8879
 229  601.913
 230  625.9695
 231  671.883
 232  660.7484
 233  653.0026
 234  707.0792
 235  719.457
 236  649.1156
 237  603.1734
 238  686.7756
 239  650.254
 240  627.4461
 241  673.7437
 242  591.3898
 243  711.9712
 244  691.5324
 245  659.9473
 246  665.6891
 247  665.1251
 248  576.8573
 249  546.3194
 250  594.2943
 251  601.5612
 252  600.2675
 253  619.9268
 254  606.0579
 255  558.1179
 256  587.2635
 257  633.6272
 258  607.5229
 259  636.1144
 260  652.6368
 261  619.6346
 262  561.2006
 263  582.0127
 264  573.3535
 265  683.664
 266  681.3657
 267  624.5301
 268  629.6738
 269  610.1663
 270  687.4179
 271  775.3328
 272  858.0107
 273  1050.347
 274  1121.935
 275  1121.659
 276  1191.273
 277  1103.451
 278  841.8464
 279  765.5613
 280  672.5154
 281  644.5327
 282  611.7066
 283  571.0637
 284  525.3049
 285  523.7573
 286  578.6818
 287  619.4447
 288  546.3306
 289  566.4851
 290  562.7605
 291  568.7308
 292  589.8321
 293  573.8664
 294  582.9911
 295  504.9112
 296  534.8646
 297  560.8353
 298  564.1345
 299  619.0908
 300  648.7263
 301  587.6412
 302  520.443
 303  501.8162
 304  616.575
 305  650.1169
 306  627.5918
 307  696.4913
 308  749.9383
 309  655.0182
 310  515.2379
 311  559.8558
 312  635.176
 313  598.4978
 314  543.4539
 315  614.6783
 316  614.7507
 317  653.6012
 318  514.9821
 319  572.196
 320  649.6264
 321  672.1064
 322  553.579
 323  553.0099
 324  555.9832
 325  554.5401
 326  500.8417
 327  558.6187
 328  569.7351
 329  586.7371
 330  639.9501
 331  647.4666
 332  574.9715
 333  556.3471
 334  594.4834
 335  601.2748
 336  580.9798
 337  542.927
 338  606.0515
 339  559.6088
 340  533.8702
 341  557.9507
 342  536.2526
 343  573.4197
 344  646.2503
 345  589.0641
 346  585.7088
 347  585.3932
 348  585.3145
 349  576.6729
 350  643.0576
 351  667.5967
 352  574.899
 353  587.5131
 354  603.7495
 355  597.6044
 356  591.877
 357  607.3738
 358  551.7637
 359  610.1165
 360  698.2978
 361  595.7229
 362  513.2308
 363  509.6133
 364  606.6716
 365  618.3514
 366  603.5392
 367  578.2775
 368  582.7916
 369  586.461
 370  571.2695
 371  573.4539
 372  572.5175
 373  568.2994
 374  603.6824
 375  614.7089
 376  682.0137
 377  641.3025
 378  647.858
 379  597.8449
 380  550.3314
 381  600.1343
 382  643.8817
 383  588.2087
 384  639.5894
 385  637.8698
 386  599.998
 387  575.4597
 388  625.821
 389  625.8387
 390  595.6641
 391  741.3839
 392  657.7053
 393  613.4385
 394  667.2383
 395  676.275
 396  621.9843
 397  597.2276
 398  680.7299
 399  685.4442
 400  675.1223
 401  660.3955
 402  624.7542
 403  661.4601
 404  705.2608
 405  670.1738
 406  671.439
 407  728.4303
 408  706.5115
 409  605.1185
 410  613.1119
 411  658.8732
 412  618.1645
 413  543.5235
 414  637.7519
 415  678.9878
 416  683.2493
 417  640.903
 418  673.6748
 419  746.3383
 420  746.8702
 421  723.2654
 422  743.1895
 423  788.9329
 424  773.9511
 425  764.3176
 426  702.8762
 427  714.3073
 428  698.9156
 429  587.965
 430  596.8841
 431  669.1941
 432  619.5416
 433  659.6459
 434  685.8134
 435  751.3234
 436  729.5381
 437  682.8715
 438  695.4872
 439  710.167
 440  685.9112
 441  643.1268
 442  632.004
 443  657.9059
 444  718.0588
 445  687.4963
 446  705.6494
 447  671.178
 448  587.4334
 449  605.9038
 450  659.7813
 451  742.2513
 452  795.4582
 453  722.1815
 454  737.8469
 455  749.4324
 456  656.1323
 457  737.9061
 458  738.8762
 459  704.9238
 460  696.2332
 461  728.2512
 462  792.6585
 463  727.2082
 464  771.574
 465  865.296
 466  775.4873
 467  743.0583
 468  805.6085
 469  718.3239
 470  652.6404
 471  643.6248
 472  753.2153
 473  800.8171
 474  794.6974
 475  669.0665
 476  676.4551
 477  641.8217
 478  640.1338
 479  699.2606
 480  741.3951
 481  763.5768
 482  826.157
 483  870.8736
 484  849.7479
 485  842.6655
 486  809.9681
 487  771.8019
 488  782.3981
 489  754.4934
 490  840.201
 491  813.1053
 492  689.6698
 493  635.904
 494  645.6495
 495  665.0166
 496  674.0834
 497  784.2631
 498  751.4166
 499  703.0795
 500  629.8228
 501  628.6323
 502  644.7437
 503  695.2618
 504  809.7573
 505  758.1321
 506  733.7625
 507  768.7092
 508  745.0338
 509  655.1821
 510  689.0788
 511  699.6067
