# Input file       =  1209617964.103228_cleaned.dat
# Candidate        =  PSR_0332+5434
# Telescope        =  AR
# Epoch_topo       =  58244.208137768845
# Epoch_bary       =  N/A
# T_sample         =  0.002
# Data Folded      =  7208960
# Data Avg         =  0.433102726363787
# Data StdDev      =  6.48498717683412 
# Profile Bins     =  512
# Profile Avg      =  6098.08169639091 
# Profile StdDev   =  769.503233434751 
# Reduced chi-sqr  =  1.868
# Prob(Noise)      <  3e-29   (~11.2 sigma)
# P_topo (ms)      =  714.541963138109  +/- 1.65e-05
# P'_topo (s/s)    =  -0                +/- 8.87e-12
# P''_topo (s/s^2) =  0                 +/- 3.99e-15
# P_bary (ms)      =  N/A
# P'_bary (s/s)    =  N/A
# P''_bary (s/s^2) =  N/A
# P_orb (s)        =  N/A
# asin(i)/c (s)    =  N/A
# eccentricity     =  N/A
# w (rad)          =  N/A
# T_peri           =  N/A
######################################################
   0  6832.845
   1  6718.685
   2  6139.339
   3  5429.485
   4  5244.467
   5  5366.925
   6  5821.026
   7  5853.994
   8  6090.163
   9  6356.401
  10  6398.355
  11  5587.745
  12  5607.145
  13  5014.59
  14  4655.382
  15  5334.243
  16  6556.805
  17  6984.127
  18  6568.556
  19  6257.214
  20  5553.817
  21  5512.176
  22  5978.723
  23  6180.196
  24  6312.114
  25  6457.798
  26  6813.85
  27  5642.361
  28  5321.372
  29  4956.679
  30  5020.989
  31  5473.225
  32  6544.667
  33  7541.542
  34  6739.477
  35  6132.657
  36  5265.383
  37  5156.321
  38  5566.024
  39  6138.886
  40  6608.804
  41  7128.861
  42  7540.197
  43  6335.893
  44  5707.977
  45  5133.848
  46  4996.65
  47  5407.189
  48  5959.538
  49  6785.144
  50  7402.287
  51  6999.037
  52  6119.875
  53  5209.242
  54  5122.623
  55  5719.333
  56  6277.335
  57  6897.687
  58  7308.163
  59  7078.005
  60  6408.922
  61  5659.041
  62  5041.064
  63  5357.278
  64  5615.561
  65  6139.159
  66  6837.381
  67  7196.517
  68  6582.696
  69  6143.488
  70  5541.781
  71  5632.878
  72  6156.696
  73  6486.699
  74  6903.002
  75  7325.251
  76  6978.586
  77  5878.768
  78  5668.125
  79  5365.379
  80  4942.052
  81  5940.579
  82  7100.149
  83  7183.104
  84  7167.632
  85  6326.542
  86  5774.563
  87  5580.309
  88  5555.419
  89  5932.458
  90  6431.965
  91  6996.929
  92  7134.9
  93  6752.878
  94  5774.202
  95  5432.321
  96  5195.925
  97  6421.063
  98  6605.74
  99  6739.328
 100  7075.12
 101  6539.058
 102  6105.184
 103  5389.19
 104  5861.986
 105  6416.915
 106  6436.92
 107  7456.634
 108  6987.839
 109  6141.716
 110  5650.628
 111  5660.822
 112  5532.933
 113  5615.188
 114  6186.628
 115  7144.073
 116  7313.383
 117  6572.877
 118  6182.989
 119  5980.383
 120  5799.764
 121  5782.6
 122  6591.193
 123  7021.232
 124  7019.095
 125  7238.09
 126  6312.456
 127  5512.45
 128  4873.27
 129  5602.96
 130  5864.612
 131  6446.566
 132  7049.77
 133  6886.792
 134  6270.364
 135  5140.579
 136  5083.45
 137  5195.394
 138  5756.491
 139  6447.945
 140  7130.136
 141  7327.259
 142  5652.649
 143  5013.836
 144  4723.571
 145  4563.329
 146  5062.594
 147  5911.802
 148  6751.141
 149  7245.035
 150  7051.916
 151  6312.343
 152  5666.904
 153  5038.745
 154  5251.663
 155  5926.018
 156  6824.965
 157  7055.516
 158  7253.615
 159  6790.91
 160  5712.321
 161  5117.955
 162  5550.801
 163  5521.061
 164  6293.427
 165  6816.866
 166  7154.918
 167  7004.665
 168  5917.571
 169  5725.9
 170  6091.854
 171  6084.327
 172  6145.853
 173  6662.711
 174  7215.38
 175  6959.431
 176  5920.454
 177  5463.052
 178  5459.642
 179  5269.756
 180  5944.161
 181  6803.571
 182  7264.607
 183  7117.302
 184  6582.839
 185  6102.414
 186  5598.479
 187  5720.99
 188  6427.511
 189  6462.3
 190  7078.889
 191  6838.029
 192  5927.281
 193  5347.929
 194  5734.381
 195  5783.544
 196  6082.284
 197  5974.4
 198  6623.34
 199  7084.826
 200  6572.003
 201  6333.549
 202  5638.733
 203  6124.045
 204  6439.207
 205  6828.509
 206  7270.701
 207  7008.643
 208  6939.796
 209  5661.422
 210  5464.188
 211  5123.682
 212  5263.773
 213  5703.614
 214  6668.238
 215  7150.292
 216  6782.29
 217  5884.923
 218  5236.245
 219  5357.199
 220  5784.397
 221  6496.965
 222  6850.885
 223  7160.798
 224  7410.248
 225  6089.299
 226  5262.625
 227  4770.227
 228  5077.66
 229  5370.873
 230  6147.55
 231  6870.116
 232  7349.167
 233  6350.083
 234  5131.761
 235  4743.202
 236  5023.258
 237  5645.914
 238  6750.788
 239  7121.755
 240  7461.692
 241  6722.449
 242  5664.809
 243  4791.205
 244  5154.686
 245  5270.419
 246  6114.888
 247  7101.592
 248  7330.806
 249  7057.874
 250  6434.246
 251  5576.835
 252  5570.835
 253  6042.695
 254  6061.191
 255  6173.834
 256  6579.038
 257  7132.668
 258  6372.467
 259  5564.897
 260  4963.203
 261  4986.913
 262  5265.49
 263  5755.63
 264  6345.351
 265  6836.164
 266  6743.892
 267  5726.5
 268  5258.877
 269  5153.065
 270  5881.801
 271  6473.217
 272  6586.727
 273  7028.241
 274  6550.951
 275  5496.578
 276  4664.797
 277  5365.188
 278  5313.908
 279  6062.948
 280  6662.402
 281  6888.69
 282  6737.978
 283  5908.862
 284  5584.247
 285  4836.62
 286  5184.208
 287  6167.768
 288  6170.896
 289  6909.565
 290  6776.448
 291  6317.666
 292  5579.664
 293  5371.326
 294  5019.601
 295  5740.338
 296  6408.075
 297  7267.998
 298  7759.549
 299  8208.188
 300  7724.752
 301  7187.414
 302  7375.138
 303  6910.495
 304  6690.456
 305  6570.168
 306  6688.723
 307  6721.144
 308  5488.036
 309  5293.503
 310  5310.299
 311  5590.108
 312  6191.014
 313  6534.166
 314  7203.173
 315  6657.26
 316  5771.329
 317  4984.087
 318  5021.549
 319  5913.017
 320  6479.491
 321  7028.107
 322  7423.189
 323  7180.693
 324  5911.064
 325  5571.792
 326  5039.099
 327  4862.011
 328  5842.947
 329  6570.98
 330  7249.864
 331  7466.692
 332  6911.02
 333  6206.271
 334  5114.665
 335  5233.951
 336  6047.94
 337  6067.949
 338  6707.655
 339  7491.64
 340  7661.242
 341  6553.182
 342  5439.235
 343  5366.029
 344  5572.399
 345  5470.074
 346  6522.895
 347  7612.146
 348  7367.681
 349  6745.59
 350  5799.758
 351  5869.555
 352  6369.356
 353  6721.477
 354  6937.773
 355  6596.894
 356  6721.215
 357  6200.659
 358  5612.568
 359  4909.628
 360  4941.639
 361  5458.295
 362  6274.961
 363  6844.552
 364  6669.583
 365  6621.116
 366  5836.125
 367  5230.609
 368  5183.056
 369  5640.013
 370  5925.24
 371  6092.953
 372  7044.31
 373  6661.396
 374  5592.964
 375  5040.68
 376  5135.294
 377  5162.22
 378  5830.858
 379  6396.468
 380  6828.264
 381  6614.811
 382  5921.146
 383  5636.102
 384  5288.06
 385  5453.317
 386  5900.189
 387  6436.199
 388  6730.056
 389  5978.681
 390  5651.778
 391  5123.489
 392  5040.302
 393  4966.698
 394  5308.747
 395  6298.321
 396  6643.77
 397  7008.876
 398  6821.453
 399  5820.839
 400  5067.805
 401  5222.868
 402  5408.953
 403  6116.283
 404  6762.382
 405  7433.38
 406  6859.58
 407  5388.38
 408  4934.192
 409  4946.483
 410  5109.256
 411  5660.978
 412  6551.098
 413  7005.855
 414  7079.752
 415  6058.276
 416  5539.394
 417  5472.421
 418  5478.832
 419  5775.194
 420  6560.156
 421  7383.081
 422  7505.998
 423  6793.935
 424  5676.643
 425  5025.389
 426  4666.852
 427  5366.555
 428  6062.38
 429  7017.377
 430  7434.558
 431  6882.834
 432  6048.342
 433  5266.179
 434  5231.281
 435  6024.081
 436  6280.635
 437  6904.723
 438  7254.06
 439  7388.525
 440  6469.536
 441  5260.644
 442  5191.802
 443  5180.123
 444  5368.572
 445  6601.573
 446  7497.375
 447  7257.956
 448  6600.696
 449  5802.642
 450  5593.982
 451  5403.783
 452  6078.84
 453  6636.042
 454  6482.684
 455  6887.714
 456  6164.993
 457  5719.187
 458  5474.694
 459  5532.651
 460  5580.524
 461  6163.206
 462  6495.97
 463  6611.792
 464  6490.541
 465  5735.268
 466  5106.874
 467  5089.849
 468  5640.617
 469  6278.927
 470  6380.759
 471  6861.577
 472  6077.155
 473  5404.887
 474  4721.348
 475  4547.165
 476  4686.576
 477  5373.555
 478  6373.337
 479  6978.65
 480  7149.552
 481  6205.466
 482  5208.705
 483  5196.696
 484  5520.216
 485  5466.049
 486  6115.45
 487  6849.902
 488  6639.811
 489  6141.959
 490  5423.478
 491  4803.572
 492  4673.724
 493  4798.039
 494  5657.167
 495  6011.533
 496  7011.673
 497  6901.706
 498  6016.202
 499  4963.811
 500  4850.861
 501  5125.934
 502  5716.905
 503  6190.528
 504  6533.303
 505  6670.928
 506  6114.513
 507  5317.12
 508  4569.923
 509  4345.427
 510  4933.428
 511  6256.045
