# Input file       =  1209359564.108885_cleaned.dat
# Candidate        =  PSR_0332+5434
# Telescope        =  AR
# Epoch_topo       =  58241.217397093576
# Epoch_bary       =  N/A
# T_sample         =  0.002
# Data Folded      =  7143424
# Data Avg         =  0.0503773103543276
# Data StdDev      =  1.00006679237984 
# Profile Bins     =  512
# Profile Avg      =  702.836215812768 
# Profile StdDev   =  118.126473903228 
# Reduced chi-sqr  =  1.772
# Prob(Noise)      <  2.14e-24   (~10.1 sigma)
# P_topo (ms)      =  714.544715504657  +/- 0.000213
# P'_topo (s/s)    =  -0                +/- 1.15e-10
# P''_topo (s/s^2) =  0                 +/- 5.23e-14
# P_bary (ms)      =  N/A
# P'_bary (s/s)    =  N/A
# P''_bary (s/s^2) =  N/A
# P_orb (s)        =  N/A
# asin(i)/c (s)    =  N/A
# eccentricity     =  N/A
# w (rad)          =  N/A
# T_peri           =  N/A
######################################################
   0  640.6243
   1  729.4879
   2  624.0771
   3  583.8779
   4  669.8117
   5  742.5873
   6  687.8806
   7  664.93
   8  656.1722
   9  657.6898
  10  721.4262
  11  773.6758
  12  796.2499
  13  719.4805
  14  790.1185
  15  726.0884
  16  655.8047
  17  762.7924
  18  839.7707
  19  732.6341
  20  694.2476
  21  800.951
  22  778.7225
  23  619.0132
  24  642.7094
  25  712.7092
  26  823.4304
  27  984.4681
  28  808.5488
  29  756.2534
  30  793.8182
  31  639.0237
  32  626.4572
  33  600.9023
  34  624.6614
  35  685.9967
  36  785.4555
  37  736.8622
  38  745.4484
  39  844.803
  40  807.782
  41  812.7811
  42  763.0347
  43  791.0004
  44  724.0201
  45  732.4346
  46  698.2744
  47  796.5484
  48  644.6982
  49  674.8612
  50  585.3902
  51  705.7512
  52  638.6214
  53  559.8878
  54  693.3107
  55  634.6962
  56  699.6293
  57  649.7978
  58  677.642
  59  794.0393
  60  746.8134
  61  740.7982
  62  721.1036
  63  745.3605
  64  775.4266
  65  711.6193
  66  690.6036
  67  640.7861
  68  661.2809
  69  569.0584
  70  674.5672
  71  719.7994
  72  622.761
  73  578.8798
  74  623.0869
  75  644.313
  76  533.6463
  77  590.4053
  78  728.354
  79  852.5079
  80  671.9509
  81  719.4943
  82  663.869
  83  646.5778
  84  613.4747
  85  605.1757
  86  700.7681
  87  668.5347
  88  725.0975
  89  672.3585
  90  793.0168
  91  794.4914
  92  740.1241
  93  696.4019
  94  593.772
  95  662.6409
  96  686.6767
  97  631.2203
  98  694.4423
  99  650.3237
 100  657.588
 101  699.7603
 102  730.108
 103  799.0612
 104  685.8862
 105  599.2391
 106  716.9053
 107  621.5142
 108  640.3682
 109  700.0834
 110  741.8023
 111  624.0494
 112  712.4976
 113  766.9532
 114  697.8865
 115  736.8612
 116  620.5356
 117  538.855
 118  609.8174
 119  745.168
 120  754.9474
 121  746.706
 122  790.5438
 123  810.0594
 124  709.0318
 125  709.3756
 126  682.004
 127  682.1793
 128  654.702
 129  613.8508
 130  627.4589
 131  743.845
 132  694.7896
 133  589.6127
 134  493.2426
 135  643.4046
 136  792.9348
 137  750.9977
 138  681.3393
 139  684.0352
 140  812.4952
 141  745.683
 142  778.4112
 143  853.0515
 144  783.2418
 145  770.908
 146  668.456
 147  610.5482
 148  705.1957
 149  783.9702
 150  749.4613
 151  565.7187
 152  599.1604
 153  730.9664
 154  718.6686
 155  582.4352
 156  592.2145
 157  807.9205
 158  722.5486
 159  589.202
 160  636.252
 161  592.1245
 162  576.2942
 163  694.274
 164  670.6047
 165  667.84
 166  648.1891
 167  652.9034
 168  718.6764
 169  730.9007
 170  781.3237
 171  835.3008
 172  816.3748
 173  812.2692
 174  808.5382
 175  754.9882
 176  807.4135
 177  812.7943
 178  801.8304
 179  668.6108
 180  806.7285
 181  797.0211
 182  824.8586
 183  740.4132
 184  780.6343
 185  979.7587
 186  1002.958
 187  1065.163
 188  1261.464
 189  1506.651
 190  1433.957
 191  1474.971
 192  1389.011
 193  1070.862
 194  943.5084
 195  707.4665
 196  691.2138
 197  723.5419
 198  729.8958
 199  817.3219
 200  757.4895
 201  800.8494
 202  616.2648
 203  683.9969
 204  853.3186
 205  741.5839
 206  649.0358
 207  729.395
 208  696.9527
 209  634.4789
 210  804.9498
 211  822.2675
 212  698.5913
 213  684.8264
 214  700.0698
 215  652.1855
 216  652.2616
 217  647.9633
 218  708.0201
 219  762.5434
 220  837.4806
 221  693.6332
 222  640.3958
 223  659.7023
 224  809.6553
 225  734.6495
 226  741.8132
 227  673.9603
 228  647.8235
 229  623.8025
 230  662.4794
 231  631.4225
 232  624.6976
 233  517.9093
 234  449.4042
 235  464.457
 236  557.7299
 237  549.7699
 238  672.0192
 239  660.7928
 240  673.3148
 241  633.18
 242  780.9478
 243  908.0724
 244  658.403
 245  650.9099
 246  689.8394
 247  676.561
 248  605.3233
 249  614.0186
 250  624.6099
 251  716.7444
 252  617.2067
 253  666.9182
 254  623.1005
 255  602.4098
 256  684.9915
 257  533.773
 258  667.0291
 259  697.9423
 260  702.2928
 261  651.8829
 262  701.0543
 263  596.5262
 264  573.2192
 265  631.2652
 266  688.0003
 267  631.6722
 268  612.545
 269  596.1161
 270  572.4186
 271  726.4939
 272  792.3558
 273  586.2904
 274  626.4761
 275  655.0243
 276  588.7926
 277  697.2757
 278  731.9724
 279  680.2289
 280  539.5177
 281  549.1696
 282  566.1825
 283  601.4991
 284  748.8312
 285  667.7526
 286  611.1649
 287  648.5347
 288  586.5913
 289  565.0693
 290  605.0837
 291  674.8673
 292  769.3917
 293  843.2505
 294  721.9169
 295  677.0431
 296  565.7988
 297  519.7816
 298  536.4118
 299  498.191
 300  458.0472
 301  525.7361
 302  644.553
 303  658.6572
 304  537.0359
 305  644.0748
 306  579.0081
 307  744.1426
 308  666.1523
 309  627.1722
 310  750.0109
 311  681.3618
 312  580.9482
 313  514.7363
 314  579.1054
 315  626.5919
 316  651.6259
 317  756.9768
 318  700.4157
 319  712.891
 320  673.3923
 321  614.8908
 322  632.0785
 323  592.5813
 324  635.5529
 325  613.3535
 326  560.0049
 327  598.2991
 328  725.0652
 329  541.3207
 330  530.6309
 331  643.9568
 332  757.9156
 333  655.9304
 334  575.2477
 335  646.9404
 336  536.2929
 337  665.1906
 338  739.6625
 339  679.4646
 340  714.8076
 341  807.5721
 342  799.7108
 343  711.2816
 344  717.9315
 345  633.4279
 346  663.663
 347  559.4966
 348  625.161
 349  680.6879
 350  542.3285
 351  523.758
 352  547.0543
 353  658.118
 354  655.3349
 355  639.8886
 356  688.7894
 357  795.8041
 358  859.583
 359  713.6915
 360  668.3123
 361  689.543
 362  721.8154
 363  624.9778
 364  588.3353
 365  628.5236
 366  794.9801
 367  776.247
 368  670.1868
 369  791.5997
 370  965.0757
 371  745.387
 372  660.9191
 373  721.9547
 374  878.1946
 375  809.203
 376  814.7286
 377  940.7703
 378  731.8442
 379  577.9033
 380  667.5473
 381  677.4792
 382  659.3143
 383  635.8593
 384  793.8846
 385  762.9138
 386  732.882
 387  738.8109
 388  718.1625
 389  683.1981
 390  773.3641
 391  768.6976
 392  767.716
 393  852.5204
 394  850.0361
 395  744.3884
 396  789.1078
 397  775.0779
 398  721.1907
 399  711.3522
 400  744.8637
 401  785.2278
 402  669.7928
 403  682.5611
 404  775.2297
 405  708.7266
 406  716.4321
 407  617.9068
 408  654.1299
 409  767.5172
 410  753.1866
 411  690.9921
 412  784.4194
 413  761.8895
 414  750.2513
 415  711.0867
 416  721.5186
 417  807.7955
 418  794.9932
 419  779.2203
 420  743.1918
 421  680.262
 422  759.4026
 423  748.4479
 424  751.8414
 425  774.7513
 426  811.0488
 427  867.6315
 428  844.4047
 429  764.0701
 430  820.5245
 431  753.7279
 432  755.5472
 433  617.5339
 434  685.4885
 435  715.3698
 436  728.7717
 437  796.9097
 438  789.0324
 439  757.5936
 440  879.003
 441  893.4573
 442  760.1532
 443  728.4793
 444  752.9578
 445  614.5859
 446  616.7466
 447  711.2962
 448  755.1597
 449  690.9324
 450  722.691
 451  682.2623
 452  719.5253
 453  660.6314
 454  569.5754
 455  746.9171
 456  791.7294
 457  724.9881
 458  745.2278
 459  804.0205
 460  701.1786
 461  686.77
 462  724.3804
 463  643.4586
 464  624.6036
 465  586.4649
 466  578.5657
 467  713.5399
 468  725.2853
 469  655.8047
 470  608.5019
 471  516.1328
 472  557.0032
 473  614.7336
 474  717.8094
 475  712.6231
 476  736.5447
 477  653.152
 478  600.7218
 479  596.6511
 480  632.5261
 481  655.5593
 482  671.7426
 483  619.2476
 484  710.1969
 485  749.4213
 486  546.4127
 487  615.9086
 488  685.7795
 489  752.0297
 490  878.2097
 491  803.0291
 492  725.8334
 493  656.3343
 494  609.7738
 495  759.457
 496  704.7162
 497  611.8636
 498  701.7755
 499  746.2623
 500  794.7099
 501  700.9175
 502  558.0499
 503  537.2792
 504  547.5661
 505  736.5366
 506  741.7571
 507  684.0154
 508  685.1221
 509  757.151
 510  769.7771
 511  632.0178
