# Input file       =  1209804988.111969_cleaned.dat
# Candidate        =  PSR_0332+5434
# Telescope        =  AR
# Epoch_topo       =  58246.372767499641
# Epoch_bary       =  N/A
# T_sample         =  0.002
# Data Folded      =  7340032
# Data Avg         =  0.0759485079857262
# Data StdDev      =  1.00014448077152 
# Profile Bins     =  512
# Profile Avg      =  1089.00343916523 
# Profile StdDev   =  119.750335498239 
# Reduced chi-sqr  =  1.047
# Prob(Noise)      <  0.225   (~0.8 sigma)
# P_topo (ms)      =  714.539948328495  +/- 0.000863
# P'_topo (s/s)    =  -0                +/- 4.56e-10
# P''_topo (s/s^2) =  0                 +/- 2.01e-13
# P_bary (ms)      =  N/A
# P'_bary (s/s)    =  N/A
# P''_bary (s/s^2) =  N/A
# P_orb (s)        =  N/A
# asin(i)/c (s)    =  N/A
# eccentricity     =  N/A
# w (rad)          =  N/A
# T_peri           =  N/A
######################################################
   0  1184.256
   1  1118.598
   2  1184.715
   3  1159.646
   4  1147.592
   5  1103.562
   6  1076.707
   7  1095.008
   8  1104.152
   9  1148.998
  10  1054.154
  11  1119.792
  12  1170.316
  13  1178.197
  14  1136.639
  15  1081.496
  16  1063.319
  17  1081.355
  18  1128.975
  19  1048.125
  20  1036.441
  21  1059.977
  22  1031.852
  23  1017.686
  24  1035.881
  25  1078.762
  26  1074.029
  27  1013.489
  28  910.8322
  29  926.1221
  30  997.9116
  31  1015.397
  32  984.8669
  33  1042.776
  34  1064.86
  35  1013.643
  36  997.3845
  37  938.5965
  38  961.8074
  39  993.5583
  40  960.8588
  41  956.714
  42  996.168
  43  986.1238
  44  1059.41
  45  1090.327
  46  1023.108
  47  1029.921
  48  1101.599
  49  982.7592
  50  980.4531
  51  953.756
  52  954.6698
  53  1059.266
  54  1072.737
  55  1012.887
  56  1056.473
  57  1038.511
  58  1038.059
  59  1019.852
  60  1008.723
  61  970.1922
  62  944.8194
  63  901.6108
  64  926.1074
  65  909.3134
  66  943.791
  67  977.3885
  68  1068.818
  69  1055.527
  70  1063.959
  71  1056.348
  72  991.4902
  73  1034.824
  74  1005.853
  75  906.245
  76  914.5391
  77  948.8613
  78  976.6853
  79  944.7633
  80  994.7036
  81  1049.023
  82  1008.077
  83  1013.832
  84  947.6507
  85  982.7968
  86  1009.802
  87  987.046
  88  1090.591
  89  1166.379
  90  1020.163
  91  950.6147
  92  1007.34
  93  1014.275
  94  1054.647
  95  1082.259
  96  1028.452
  97  1011.505
  98  1025.456
  99  1007.123
 100  959.6108
 101  1049.034
 102  1012.743
 103  1000.444
 104  1078.813
 105  1071.599
 106  1017.27
 107  1109.921
 108  1145.067
 109  1080.598
 110  1098.251
 111  1122.966
 112  984.6518
 113  1051
 114  1086.146
 115  1056.974
 116  1040.984
 117  1049.033
 118  1117.233
 119  1140.896
 120  1162.254
 121  1155.809
 122  1149.556
 123  1095.549
 124  1104.51
 125  1049.104
 126  1123.62
 127  1219.687
 128  1207.003
 129  1172.769
 130  1198.963
 131  1117.106
 132  1107.072
 133  1150.743
 134  1164.612
 135  1058.625
 136  1110.421
 137  1204.091
 138  1141.138
 139  933.8694
 140  1067.86
 141  1090.401
 142  1068.83
 143  1143.66
 144  1107.223
 145  1074.596
 146  1062.616
 147  1093.556
 148  1177.177
 149  1181.192
 150  1132.245
 151  1115.615
 152  1097.264
 153  1060.313
 154  1139.363
 155  1081.208
 156  1074.859
 157  1061.271
 158  1049.911
 159  1018.803
 160  943.0756
 161  1070.043
 162  1126.883
 163  909.7253
 164  973.0756
 165  1044.501
 166  1056.299
 167  1039.85
 168  1070.109
 169  1157.68
 170  1180.354
 171  1111.009
 172  1012.66
 173  1045.257
 174  1029.334
 175  1092.616
 176  1089.286
 177  1128.624
 178  1100.904
 179  1020.999
 180  1071.99
 181  1096.338
 182  972.6078
 183  1030.683
 184  1017.887
 185  1004.244
 186  1034.28
 187  1086.104
 188  1149.912
 189  1169.807
 190  1180.007
 191  1164.145
 192  1170.1
 193  1159.615
 194  1113.933
 195  1043.244
 196  1087.901
 197  1061.113
 198  1012.285
 199  1048.074
 200  1051.83
 201  1047.323
 202  1090.443
 203  1108.667
 204  1084.883
 205  1085.873
 206  1066.415
 207  1060.426
 208  1148.588
 209  1184.665
 210  1106.762
 211  1067.03
 212  1158.141
 213  1199.294
 214  1122.818
 215  1222.713
 216  1159.142
 217  1182.565
 218  1234.862
 219  1246.909
 220  1274.226
 221  1278.944
 222  1203.916
 223  1198.898
 224  1298.003
 225  1235.552
 226  1186.288
 227  1232.591
 228  1223.442
 229  1168.692
 230  1163.667
 231  1235.123
 232  1217.036
 233  1095.033
 234  1210.52
 235  1119.045
 236  1118.024
 237  1113.104
 238  1222.508
 239  1210.573
 240  1141.727
 241  1207.046
 242  1172.263
 243  1153.902
 244  1105.389
 245  1144.781
 246  1122.511
 247  1144.053
 248  1168.938
 249  1137.529
 250  1167.6
 251  1257.2
 252  1191.252
 253  1234.388
 254  1248.476
 255  1185.015
 256  1135.004
 257  1170.349
 258  1271.598
 259  1354.246
 260  1318.61
 261  1213.788
 262  1182.686
 263  1114.589
 264  1145.973
 265  1158.42
 266  1167.073
 267  1170.81
 268  1246.176
 269  1207.316
 270  1162.679
 271  1183.767
 272  1197.289
 273  1160.174
 274  1250.375
 275  1241.164
 276  1176.824
 277  1158.236
 278  1200.971
 279  1226.695
 280  1144.409
 281  1227.211
 282  1289.567
 283  1104.104
 284  1165.154
 285  1248.147
 286  1104.538
 287  1076.486
 288  1089.635
 289  1056.736
 290  994.4242
 291  1000.627
 292  1093.986
 293  1007.022
 294  1045.643
 295  1135.899
 296  1097.732
 297  1063.452
 298  1176.99
 299  1127.437
 300  1044.123
 301  949.7869
 302  949.7679
 303  1078.305
 304  1042.31
 305  1064.402
 306  1163.961
 307  1190.01
 308  1082.732
 309  1062.238
 310  1136.083
 311  1170.096
 312  1160.831
 313  1138.851
 314  1131.231
 315  1076.955
 316  1117.89
 317  1070.118
 318  1105.651
 319  1061.528
 320  1028.762
 321  983.3566
 322  1001.65
 323  963.7206
 324  978.2775
 325  1091.774
 326  1082.85
 327  1077.919
 328  1068.939
 329  991.0397
 330  1022.614
 331  1120.993
 332  1073.902
 333  1015.516
 334  1080.958
 335  1115.525
 336  1024.688
 337  1050.875
 338  1033.548
 339  961.8409
 340  1037.004
 341  1049.101
 342  1046.524
 343  1061.318
 344  1032.25
 345  971.6625
 346  1029.018
 347  1013.977
 348  1116.347
 349  1177.294
 350  1126.114
 351  1079.356
 352  1038.307
 353  982.4351
 354  1082.686
 355  1036.447
 356  1077.962
 357  1126.18
 358  1126.349
 359  1109.676
 360  1138.747
 361  1167.207
 362  1070.619
 363  1002.197
 364  1140.265
 365  1049.683
 366  1035.723
 367  1056.028
 368  1074.183
 369  1100.295
 370  1094.045
 371  1138.017
 372  1138.717
 373  1094.368
 374  1046.83
 375  1131.604
 376  1159.589
 377  1093.224
 378  1110.589
 379  1129.036
 380  1158.702
 381  1047.837
 382  1142.433
 383  1163.783
 384  1097.012
 385  1104.286
 386  1045.758
 387  1054.173
 388  1045.311
 389  1027.495
 390  1036.939
 391  991.475
 392  1064.52
 393  1029.552
 394  1094.404
 395  1063.282
 396  1122.321
 397  1078.186
 398  1124.756
 399  1115.646
 400  1128.196
 401  1075.855
 402  1042.405
 403  1091.086
 404  1007.614
 405  970.6124
 406  1007.03
 407  966.6932
 408  1008.304
 409  1074.84
 410  1020.906
 411  957.8981
 412  969.887
 413  966.3676
 414  911.3263
 415  938.6387
 416  1023.362
 417  1009.572
 418  1010.25
 419  998.934
 420  915.9318
 421  966.7287
 422  1027.977
 423  964.149
 424  1005.609
 425  1014.097
 426  1047.54
 427  1112.078
 428  1136.143
 429  1072.268
 430  1125.91
 431  1111.643
 432  991.9549
 433  1116.861
 434  1148.388
 435  1111.705
 436  1084.031
 437  1021.333
 438  1021.296
 439  1117.329
 440  1123.381
 441  1074.399
 442  1038.802
 443  1124.973
 444  1086.593
 445  1053.739
 446  1114.156
 447  1132.814
 448  1101.356
 449  1112.871
 450  1123.654
 451  1152.593
 452  1097.42
 453  995.0675
 454  957.1057
 455  1045.141
 456  1075.391
 457  1047.549
 458  964.6858
 459  1117.405
 460  1148.551
 461  1040.028
 462  1093.933
 463  1088.047
 464  1068.637
 465  1121.63
 466  1108.317
 467  1085.269
 468  1046.393
 469  1054.082
 470  1097.707
 471  1089.889
 472  1109.335
 473  1118.237
 474  987.5771
 475  941.3479
 476  1014.576
 477  1071.184
 478  1080.181
 479  1112.669
 480  1126.187
 481  1120.255
 482  1121.628
 483  1066.367
 484  1090.475
 485  1100.003
 486  1085.039
 487  1036.092
 488  1024.794
 489  1107.784
 490  1134.344
 491  1138.475
 492  1136.021
 493  1056.007
 494  1101.432
 495  1075.765
 496  1123.868
 497  1170.917
 498  1103.886
 499  1073.436
 500  1044.451
 501  1079.298
 502  1155.832
 503  1131.4
 504  1196.214
 505  1223.296
 506  1356.46
 507  1472.131
 508  1641.754
 509  1628.197
 510  1452.471
 511  1309.994
