# Input file       =  1209891182.120269_cleaned.dat
# Candidate        =  PSR_0332+5434
# Telescope        =  AR
# Epoch_topo       =  58247.370383336449
# Epoch_bary       =  N/A
# T_sample         =  0.002
# Data Folded      =  7340032
# Data Avg         =  0.0764907244847506
# Data StdDev      =  1.00012384413869 
# Profile Bins     =  512
# Profile Avg      =  1097.11860705689 
# Profile StdDev   =  119.747864611529 
# Reduced chi-sqr  =  1.195
# Prob(Noise)      <  0.00159   (~2.9 sigma)
# P_topo (ms)      =  714.539005109272  +/- 0.000583
# P'_topo (s/s)    =  -0                +/- 3.08e-10
# P''_topo (s/s^2) =  0                 +/- 1.36e-13
# P_bary (ms)      =  N/A
# P'_bary (s/s)    =  N/A
# P''_bary (s/s^2) =  N/A
# P_orb (s)        =  N/A
# asin(i)/c (s)    =  N/A
# eccentricity     =  N/A
# w (rad)          =  N/A
# T_peri           =  N/A
######################################################
   0  1679.691
   1  1483.482
   2  1293.693
   3  1189.751
   4  1120.789
   5  1121.355
   6  976.5782
   7  960.0362
   8  1004.023
   9  989.9539
  10  1049.895
  11  1063.596
  12  1063.098
  13  1028.894
  14  1033.998
  15  997.5391
  16  1036.562
  17  1008.227
  18  1011.114
  19  1044.79
  20  1100.35
  21  1122.956
  22  1053.965
  23  932.0078
  24  898.0654
  25  946.7075
  26  1021.56
  27  1062.602
  28  1139.773
  29  1141.208
  30  1057.665
  31  1074.669
  32  1007.263
  33  1080.801
  34  1063.017
  35  1141.737
  36  1089.452
  37  1040.835
  38  1112.744
  39  1112.857
  40  1149.457
  41  1174.146
  42  1244.288
  43  1179.079
  44  1142.726
  45  1116.107
  46  1078.071
  47  1124.798
  48  1150.606
  49  1155.006
  50  1087.949
  51  1137.805
  52  1190.777
  53  1210.297
  54  1162.691
  55  1127.324
  56  1102.317
  57  1084.117
  58  1151.181
  59  1125.278
  60  1099.256
  61  1070.925
  62  1093.897
  63  1115.685
  64  1188.174
  65  1139.746
  66  1072.57
  67  1129.179
  68  1208.9
  69  1128.636
  70  1086.303
  71  1147.728
  72  1197.654
  73  1202.001
  74  1096.714
  75  1116.449
  76  1164.27
  77  1202.315
  78  1172.277
  79  1121.132
  80  1133.983
  81  1071.307
  82  1125.378
  83  1125.997
  84  1122.696
  85  1126.319
  86  1151.877
  87  1086.026
  88  1105.876
  89  1169.976
  90  1170.186
  91  1131.485
  92  1079.546
  93  1134.984
  94  1057.524
  95  1115.6
  96  1125.135
  97  1183.095
  98  1135.547
  99  1129.113
 100  1082.2
 101  1018.841
 102  1089.432
 103  1024.825
 104  1102.347
 105  1111.555
 106  1100.867
 107  1102.465
 108  1107.38
 109  1134.916
 110  1093.513
 111  1097.639
 112  1183.6
 113  1228.599
 114  1219.494
 115  1192.57
 116  1167.398
 117  1113.887
 118  1102.905
 119  1080.446
 120  1058.495
 121  1088.918
 122  1131.431
 123  1138.462
 124  1126.037
 125  1137.772
 126  1121.085
 127  1058.446
 128  989.7202
 129  1033.527
 130  1005.845
 131  1012.875
 132  1043.521
 133  1118.314
 134  1069.87
 135  1033.917
 136  956.3932
 137  1068.275
 138  1107.002
 139  1101.868
 140  979.5464
 141  987.7028
 142  1057.224
 143  1076.822
 144  1020.004
 145  994.5864
 146  1068.144
 147  1084.809
 148  1071.997
 149  1040.578
 150  1025.919
 151  1072.565
 152  1062.763
 153  1040.022
 154  1093.183
 155  1071.826
 156  1069.282
 157  1016.8
 158  1034.566
 159  1175.072
 160  1191.017
 161  1144.428
 162  1158.227
 163  1184.517
 164  1187.381
 165  1264.837
 166  1207.159
 167  1204.527
 168  1185.639
 169  1215.291
 170  1217.101
 171  1201.637
 172  1167.042
 173  1185.212
 174  1192.79
 175  1201.059
 176  1201.459
 177  1245.418
 178  1275.663
 179  1332.892
 180  1298.751
 181  1256.348
 182  1248.808
 183  1265.391
 184  1239.842
 185  1232.065
 186  1251.108
 187  1244.787
 188  1242.573
 189  1236.535
 190  1176.4
 191  1259.551
 192  1218.028
 193  1192.022
 194  1237.669
 195  1213.17
 196  1233.754
 197  1198.836
 198  1119.149
 199  1209.646
 200  1337.114
 201  1308.915
 202  1195.603
 203  1139.445
 204  1174.578
 205  1211.295
 206  1230.362
 207  1280.585
 208  1237.337
 209  1172.708
 210  1207.587
 211  1244.717
 212  1133.929
 213  1182.656
 214  1114.544
 215  1166.019
 216  1228.198
 217  1174.417
 218  1150.658
 219  1103.957
 220  1090.678
 221  1181.87
 222  1239.109
 223  1167.154
 224  1050.071
 225  1183.758
 226  1182.376
 227  1167.74
 228  1132.979
 229  1143.367
 230  1244.238
 231  1136.648
 232  1091.631
 233  1119.431
 234  1096.676
 235  1116.391
 236  1126.153
 237  1071.942
 238  1102.677
 239  1151.307
 240  1140.119
 241  1030.377
 242  964.5616
 243  1016.724
 244  1053.528
 245  1015.359
 246  1074.113
 247  1110.704
 248  1084.585
 249  993.1627
 250  1047.195
 251  1095.005
 252  1047.225
 253  1081.025
 254  1103.763
 255  1039.508
 256  1044.682
 257  1084.167
 258  1110.186
 259  1086.598
 260  1057.484
 261  997.0649
 262  976.5646
 263  1043
 264  1020.195
 265  936.2918
 266  981.8197
 267  977.1876
 268  980.0703
 269  1012.471
 270  1069.186
 271  1063.339
 272  1015.559
 273  975.9709
 274  969.5675
 275  1052.367
 276  1115.241
 277  1079.833
 278  966.8425
 279  1005.559
 280  976.6573
 281  1034.665
 282  1008.519
 283  985.3654
 284  986.7039
 285  978.3751
 286  920.3422
 287  919.6871
 288  950.5381
 289  956.9334
 290  961.343
 291  976.2147
 292  1036.45
 293  1036.438
 294  1067.99
 295  1045.692
 296  1004.311
 297  1007.658
 298  1019.659
 299  966.1211
 300  913.8541
 301  942.2501
 302  916.7684
 303  915.8814
 304  950.5426
 305  951.9064
 306  872.196
 307  888.7313
 308  916.842
 309  880.6357
 310  887.5613
 311  952.9642
 312  960.4961
 313  984.0275
 314  999.5346
 315  1048.967
 316  1039.812
 317  1015.738
 318  1043.913
 319  1037.819
 320  1108.797
 321  1093.613
 322  1052.78
 323  1067.259
 324  994.2966
 325  980.2364
 326  1012.851
 327  998.2234
 328  1000.683
 329  1029.476
 330  1081.812
 331  1080.233
 332  1043.549
 333  1018.17
 334  1025.371
 335  1042.128
 336  1156.604
 337  1115.766
 338  1111.172
 339  1065.612
 340  1109.705
 341  1036.878
 342  976.9468
 343  1109.819
 344  1050.039
 345  1074.181
 346  1070.818
 347  1044.766
 348  986.1884
 349  970.6793
 350  1077.29
 351  1048.246
 352  1013.943
 353  1034.342
 354  1077.515
 355  1079.648
 356  1041.263
 357  996.1425
 358  1157.697
 359  1153.779
 360  1090.24
 361  1001.563
 362  989.183
 363  1031.785
 364  1000.201
 365  990.106
 366  969.0901
 367  1011.917
 368  1079.282
 369  1089.359
 370  999.6661
 371  1009.725
 372  1053.145
 373  1008.124
 374  998.6354
 375  1048.568
 376  1036.81
 377  1050.432
 378  1079.458
 379  1013.564
 380  1028.947
 381  1116.059
 382  1034.486
 383  965.6578
 384  1002.894
 385  1035.257
 386  1007.579
 387  1069.292
 388  1038.159
 389  955.7025
 390  987.7906
 391  1011.167
 392  973.2451
 393  1091.893
 394  1097.287
 395  1046.972
 396  1159.955
 397  1160.922
 398  1092.468
 399  1094.528
 400  1091.979
 401  1105.437
 402  1114.341
 403  1111.768
 404  1139.613
 405  1086.683
 406  1079.657
 407  1099.466
 408  1083.566
 409  1104.361
 410  1092.92
 411  1211.646
 412  1182.333
 413  1197.69
 414  1257.349
 415  1209.212
 416  1176.083
 417  1093.728
 418  1115.821
 419  1179.102
 420  1161.733
 421  1194.34
 422  1193.337
 423  1164.679
 424  1112.151
 425  1093.277
 426  1064.424
 427  1106.312
 428  1130.019
 429  1042.439
 430  995.3798
 431  1059.259
 432  1150.766
 433  1188.106
 434  1085.304
 435  1069.293
 436  1112.208
 437  1052.898
 438  1095.79
 439  1137.805
 440  1169.316
 441  1190.437
 442  1214.644
 443  1155.838
 444  1051.884
 445  1084.648
 446  1086.299
 447  1067.373
 448  1054.312
 449  1131.23
 450  1193.59
 451  1067.983
 452  930.0748
 453  971.7931
 454  1065.085
 455  1087.533
 456  1082.629
 457  1066.592
 458  962.0106
 459  1015.386
 460  1088.138
 461  1038.385
 462  1082.216
 463  1099.232
 464  1100.024
 465  1120.2
 466  1106.813
 467  1034.051
 468  1086.019
 469  1085.152
 470  1093.426
 471  1028.151
 472  1131.585
 473  1038.121
 474  1047.948
 475  1106.21
 476  1162.168
 477  1100.324
 478  1146.842
 479  1120.174
 480  1083.86
 481  1101.005
 482  1108.032
 483  1045.08
 484  986.6105
 485  1111.101
 486  1192.839
 487  1151.166
 488  1195.83
 489  1100.238
 490  1087.474
 491  1107.334
 492  1126.216
 493  1107.227
 494  1104.132
 495  1176.074
 496  1077.131
 497  1067.495
 498  1055.178
 499  1111.996
 500  1053.162
 501  1110.219
 502  1145.523
 503  1158.822
 504  1104.818
 505  1147.551
 506  1238.223
 507  1295.091
 508  1325.588
 509  1404.013
 510  1568.649
 511  1667.61
