# Input file       =  1209216790.123209_cleaned.dat
# Candidate        =  PSR_0332+5434
# Telescope        =  AR
# Epoch_topo       =  58239.564920407509
# Epoch_bary       =  N/A
# T_sample         =  0.002
# Data Folded      =  7340032
# Data Avg         =  0.310340602253356
# Data StdDev      =  5.8803940376574  
# Profile Bins     =  256
# Profile Avg      =  8898.15338292106 
# Profile StdDev   =  995.715855021341 
# Reduced chi-sqr  =  0.880
# Prob(Noise)      <  0.917   (~0.0 sigma)
# P_topo (ms)      =  714.546560314137  +/- 0.000375
# P'_topo (s/s)    =  -0                +/- 1.98e-10
# P''_topo (s/s^2) =  0                 +/- 8.73e-14
# P_bary (ms)      =  N/A
# P'_bary (s/s)    =  N/A
# P''_bary (s/s^2) =  N/A
# P_orb (s)        =  N/A
# asin(i)/c (s)    =  N/A
# eccentricity     =  N/A
# w (rad)          =  N/A
# T_peri           =  N/A
######################################################
   0  10400.74
   1  9930.641
   2  9619.316
   3  9414
   4  8345.979
   5  7720.107
   6  8646.753
   7  8329.845
   8  8467.892
   9  8216.314
  10  9724.319
  11  9674.8
  12  9705.01
  13  9764.618
  14  10124.52
  15  9832.474
  16  9642.529
  17  9965.689
  18  9481.771
  19  8917.245
  20  8239.819
  21  8689.342
  22  7797.922
  23  8201.479
  24  7895.098
  25  9091.918
  26  8590.614
  27  8987.677
  28  9585.516
  29  9540.414
  30  9108.387
  31  9277.804
  32  8337.478
  33  9055.226
  34  8729.038
  35  8896.292
  36  9451.334
  37  9102.056
  38  9042.071
  39  8800.31
  40  9183.004
  41  9013.104
  42  9241.991
  43  7872.008
  44  8870.737
  45  8666.137
  46  8736.774
  47  8992.461
  48  8456.485
  49  8619.29
  50  8963.296
  51  8446.407
  52  7804.579
  53  8442.533
  54  10312.44
  55  10389.02
  56  9409.722
  57  10293.85
  58  10607.88
  59  9194.048
  60  7841.038
  61  8029.893
  62  8971.78
  63  9110.459
  64  9359.699
  65  9397.848
  66  8964.453
  67  9404.411
  68  10266.47
  69  9324.796
  70  9056.606
  71  9533.775
  72  9342.75
  73  8584.266
  74  8710.5
  75  8526.565
  76  9362.226
  77  9066.597
  78  9111.171
  79  9435.5
  80  9618.235
  81  9451.107
  82  9951.075
  83  10590.65
  84  9135.513
  85  8889.678
  86  8408.892
  87  9707.847
  88  8647.273
  89  8909.186
  90  8608.664
  91  9060.272
  92  8777.551
  93  8901.394
  94  9291.085
  95  9679.669
  96  10032.36
  97  9589.173
  98  9299.137
  99  8579.641
 100  9213.233
 101  8900.963
 102  7803.077
 103  7778.337
 104  8303.892
 105  8247.142
 106  7261.538
 107  7421.628
 108  7941.967
 109  7924.988
 110  7633.929
 111  7871.026
 112  7752.409
 113  7347.401
 114  8413.13
 115  7539.985
 116  8002.258
 117  7958.977
 118  8524.09
 119  9467.963
 120  9399.45
 121  8886.124
 122  8997.628
 123  9712.627
 124  9076.675
 125  9321.66
 126  9450.509
 127  8622.805
 128  7518.565
 129  8190.845
 130  8115.676
 131  7851.558
 132  8406.332
 133  7859.505
 134  7910.302
 135  8262.982
 136  7638.192
 137  8280.469
 138  7989.439
 139  8493.569
 140  8877.976
 141  8882.87
 142  8173.988
 143  8136.15
 144  8487.57
 145  8377.152
 146  9056.045
 147  9287.78
 148  9442.319
 149  11017.43
 150  12906.87
 151  12145.35
 152  9692.092
 153  9117.01
 154  8922.261
 155  8821.204
 156  8826.223
 157  8794.335
 158  9121.296
 159  9258.866
 160  9841.158
 161  9278.882
 162  9475.731
 163  8998.417
 164  9402.274
 165  9059.955
 166  8933.895
 167  8195.639
 168  8916.137
 169  9271.224
 170  8259.643
 171  8033.467
 172  8936.884
 173  8534.664
 174  8530.291
 175  9291.292
 176  9434.988
 177  9420.468
 178  8391.227
 179  8962.175
 180  8609.959
 181  8916.75
 182  8606.737
 183  8715.566
 184  8966.065
 185  8775.086
 186  8812.66
 187  8209.182
 188  8472.635
 189  8523.071
 190  7804.023
 191  8684.583
 192  9817.344
 193  9803.286
 194  9496.854
 195  8972.777
 196  9675.323
 197  9454.374
 198  9789.134
 199  10056.04
 200  9759.341
 201  10921.1
 202  10600.43
 203  10724.71
 204  10047.28
 205  9383.635
 206  9642.652
 207  8443.425
 208  8412.688
 209  8849.016
 210  8413.49
 211  8130.598
 212  8690.22
 213  9310.899
 214  8403.873
 215  8313.889
 216  8145.427
 217  8568.686
 218  7763.272
 219  8475.239
 220  7919.396
 221  7905.013
 222  8519.563
 223  7666.758
 224  7827.073
 225  8696.937
 226  8652.568
 227  8748.688
 228  8350.863
 229  8514.689
 230  8880.121
 231  7681.913
 232  7908.385
 233  7537.914
 234  7645.108
 235  8029.047
 236  8581.229
 237  7741.286
 238  8163.826
 239  8497.141
 240  8175.069
 241  8241.463
 242  7883.038
 243  7602.24
 244  8415.328
 245  9209.442
 246  9092.854
 247  9645.255
 248  8593.038
 249  8742.884
 250  9944.094
 251  9571.814
 252  9666.771
 253  9769.254
 254  10022.39
 255  10528.12
