# Input file       =  1209790337.117914_cleaned.dat
# Candidate        =  PSR_0332+5434
# Telescope        =  AR
# Epoch_topo       =  58246.203195809190
# Epoch_bary       =  N/A
# T_sample         =  0.002
# Data Folded      =  7208960
# Data Avg         =  0.193666752732613
# Data StdDev      =  5.31918231985707 
# Profile Bins     =  1024
# Profile Avg      =  1363.20668263959 
# Profile StdDev   =  446.304438567706 
# Reduced chi-sqr  =  3.531
# Prob(Noise)      <  6.21e-285   (~36.1 sigma)
# P_topo (ms)      =  714.5400960843    +/- 1.2e-05
# P'_topo (s/s)    =  -0                +/- 6.43e-12
# P''_topo (s/s^2) =  0                 +/- 2.89e-15
# P_bary (ms)      =  N/A
# P'_bary (s/s)    =  N/A
# P''_bary (s/s^2) =  N/A
# P_orb (s)        =  N/A
# asin(i)/c (s)    =  N/A
# eccentricity     =  N/A
# w (rad)          =  N/A
# T_peri           =  N/A
######################################################
   0  1699.958
   1  1958.767
   2  1818.66
   3  1506.605
   4  1162.704
   5  1157.953
   6  1017.792
   7  635.0569
   8  801.3937
   9  821.6911
  10  1004.545
  11  1211.505
  12  1329.061
  13  1327.598
  14  1343.777
  15  1503.297
  16  1577.025
  17  1301.658
  18  1171.994
  19  1163.931
  20  1271.14
  21  1141.867
  22  871.7363
  23  848.9815
  24  843.1785
  25  1002.335
  26  1139.451
  27  1364.78
  28  1656.578
  29  1811.479
  30  1971.898
  31  1982.115
  32  1915.769
  33  2141.995
  34  1966.469
  35  1760.207
  36  1276.838
  37  1144.92
  38  1037.279
  39  872.4441
  40  766.2189
  41  855.8409
  42  1048.272
  43  1237.709
  44  1329.975
  45  1254.729
  46  1419.172
  47  1597.817
  48  1822.713
  49  1543.596
  50  1511.374
  51  1428.354
  52  1268.519
  53  1186.349
  54  942.2308
  55  927.5844
  56  1004.227
  57  949.5417
  58  933.4308
  59  943.0746
  60  1553.266
  61  1981.19
  62  2221.736
  63  2335.114
  64  2482.978
  65  2371.422
  66  2351.835
  67  1974.154
  68  1703.243
  69  1412.641
  70  1398.132
  71  1213.089
  72  708.7701
  73  732.1487
  74  838.4691
  75  1067.845
  76  1157.11
  77  1237.304
  78  1386.641
  79  1630.555
  80  1818.027
  81  1971.189
  82  1547.567
  83  1386.698
  84  1176.811
  85  1197.882
  86  1003.773
  87  917.0087
  88  890.5529
  89  801.9948
  90  650.3809
  91  724.5767
  92  1118.743
  93  1580.214
  94  1680.995
  95  1845.218
  96  1931.272
  97  2103.667
  98  2146.313
  99  2188.216
 100  1915.436
 101  1789.002
 102  1590.801
 103  1403.669
 104  1038.26
 105  762.6064
 106  832.0742
 107  764.1709
 108  899.9664
 109  889.0786
 110  942.7613
 111  1138.391
 112  1479.481
 113  1575.226
 114  1406.062
 115  1434.016
 116  1524.219
 117  1372.417
 118  1325.599
 119  1170.468
 120  1074.959
 121  887.9686
 122  779.2363
 123  822.4808
 124  861.7549
 125  1124.761
 126  1439.167
 127  1555.917
 128  1779.124
 129  1819.168
 130  1916.662
 131  2110.943
 132  2040.303
 133  1904.557
 134  1790.969
 135  1713.549
 136  1493.518
 137  1118.105
 138  1013.519
 139  984.4668
 140  891.66
 141  949.1899
 142  990.4404
 143  1168.234
 144  1368.956
 145  1431.781
 146  1457.616
 147  1448.17
 148  1440.692
 149  1513.156
 150  1335.152
 151  1358.119
 152  1152.613
 153  1183.312
 154  989.2244
 155  836.0879
 156  732.5294
 157  793.941
 158  1016.465
 159  1260.292
 160  1465.329
 161  1632.229
 162  1834.736
 163  1999.963
 164  2091.177
 165  1856.754
 166  1834.833
 167  1709.893
 168  1500.801
 169  1131.202
 170  916.3663
 171  933.5052
 172  704.3083
 173  580.2955
 174  596.5677
 175  697.3149
 176  851.3618
 177  1288.89
 178  1453.305
 179  1516.764
 180  1445.316
 181  1645.45
 182  1493.634
 183  1330.844
 184  1032.232
 185  939.883
 186  914.5966
 187  839.9462
 188  828.9497
 189  876.5797
 190  967.4057
 191  1202.05
 192  1350.619
 193  1744.149
 194  1912.714
 195  2000.384
 196  2043.395
 197  1962.486
 198  1851.928
 199  1937.496
 200  1767.844
 201  1564.48
 202  1294.731
 203  1150.71
 204  1025.832
 205  711.7933
 206  740.48
 207  853.42
 208  1044.685
 209  1206.087
 210  1219.244
 211  1207.191
 212  1372.586
 213  1540.468
 214  1627.909
 215  1275.439
 216  1309.668
 217  1194.575
 218  1153.129
 219  947.1101
 220  705.8052
 221  627.1284
 222  676.6647
 223  872.7508
 224  1126.185
 225  1372.399
 226  1809.617
 227  2075.556
 228  2088.738
 229  2148.925
 230  2108.982
 231  2019.923
 232  1804.297
 233  1450.481
 234  1205.47
 235  958.6707
 236  872.2238
 237  622.439
 238  544.3557
 239  731.3719
 240  931.5134
 241  1160.49
 242  1183.761
 243  1413.188
 244  1625.734
 245  1879.03
 246  1744.807
 247  1589.503
 248  1420.433
 249  1263.391
 250  1038.868
 251  892.8541
 252  635.7786
 253  475.0424
 254  484.403
 255  678.9247
 256  838.235
 257  824.3341
 258  1117.807
 259  1440.143
 260  1741.937
 261  2014.635
 262  2256.849
 263  2303.107
 264  2386.387
 265  2054.969
 266  1812.171
 267  1557.24
 268  1441.22
 269  1184.873
 270  783.1346
 271  742.1628
 272  745.7056
 273  819.6525
 274  1035.677
 275  1179.431
 276  1240.343
 277  1298.068
 278  1436.445
 279  1579.417
 280  1504.759
 281  1542.706
 282  1399.337
 283  1235.815
 284  1124.159
 285  910.4326
 286  797.9118
 287  663.9796
 288  552.2158
 289  701.0498
 290  912.3635
 291  1362.202
 292  1549.741
 293  1682.771
 294  1789.894
 295  1871.785
 296  2028.619
 297  2147.799
 298  1953.172
 299  1910.354
 300  1909.318
 301  1729.637
 302  1163.568
 303  763.3245
 304  800.1609
 305  833.4245
 306  798.9795
 307  887.3602
 308  1012.136
 309  1077.281
 310  1308.208
 311  1396.783
 312  1476.404
 313  1362.229
 314  1556.865
 315  1535.909
 316  1487.63
 317  1220.434
 318  1143.96
 319  1009.698
 320  841.0867
 321  759.9485
 322  828.5825
 323  1081.471
 324  1236.287
 325  1427.374
 326  1716.762
 327  1936.616
 328  2024.339
 329  2075.389
 330  2031.803
 331  1800.478
 332  1776.226
 333  1589.783
 334  1406.904
 335  1094.902
 336  1053.917
 337  982.3928
 338  767.3362
 339  702.7169
 340  776.6958
 341  872.4451
 342  1062.213
 343  1306.748
 344  1534.478
 345  1641.549
 346  1747.914
 347  1759.846
 348  1351.662
 349  1300.927
 350  1171.085
 351  1150.21
 352  885.0548
 353  645.6171
 354  726.4642
 355  992.4901
 356  1405.118
 357  1618.76
 358  1669.151
 359  1862.053
 360  2068.019
 361  2047.93
 362  2034.361
 363  1924.65
 364  1989.512
 365  1964.873
 366  1695.731
 367  1370.525
 368  1118.615
 369  1102.953
 370  1110.012
 371  1033.219
 372  1111.698
 373  990.9346
 374  1063.739
 375  1295.106
 376  1385.529
 377  1366.033
 378  1378.844
 379  1788.677
 380  1770.553
 381  1456.499
 382  1200.395
 383  1097.062
 384  1030.835
 385  776.4023
 386  528.222
 387  624.8419
 388  904.4729
 389  1226.037
 390  1254.311
 391  1503.632
 392  1872.265
 393  2140.056
 394  2206.685
 395  2245.839
 396  2114.807
 397  2046.01
 398  1780.534
 399  1604.033
 400  1300.097
 401  1141.022
 402  1104.192
 403  1107.927
 404  1034.965
 405  1006.8
 406  1093.572
 407  1340.772
 408  1521.138
 409  1438.026
 410  1531.498
 411  1622.624
 412  1745.474
 413  1322.831
 414  1299.133
 415  1022.098
 416  987.1871
 417  774.8719
 418  691.5401
 419  703.4098
 420  804.4715
 421  931.3965
 422  1152.699
 423  1244.579
 424  1578.906
 425  1695.643
 426  1881.514
 427  2045.462
 428  2113.29
 429  2088.627
 430  2167.772
 431  1984.683
 432  1592.454
 433  1164.984
 434  1003.406
 435  781.1562
 436  484.2158
 437  575.3059
 438  783.3191
 439  1040.531
 440  1002.657
 441  1088.243
 442  1131.95
 443  1464.812
 444  1550.591
 445  1785.027
 446  1440.196
 447  1358.647
 448  1193.205
 449  1251.589
 450  1038.49
 451  783.6917
 452  741.1594
 453  697.2394
 454  609.0736
 455  651.7281
 456  1073.726
 457  1552.835
 458  1728.391
 459  1928.562
 460  1958.418
 461  2061.996
 462  2081.6
 463  2095.288
 464  1740.962
 465  1456.013
 466  1315.384
 467  1196.73
 468  741.1815
 469  432.7709
 470  440.1758
 471  529.5287
 472  614.4686
 473  847.8981
 474  761.8405
 475  944.2871
 476  1306.736
 477  1699.993
 478  1743.21
 479  1683.052
 480  1724.765
 481  1511.143
 482  1185.918
 483  753.3508
 484  622.7759
 485  601.6805
 486  515.3342
 487  545.7756
 488  569.9572
 489  886.5465
 490  1220.455
 491  1360.721
 492  1583.844
 493  1810.769
 494  1889.875
 495  2000.911
 496  1768.413
 497  1757.463
 498  1563.917
 499  1361.838
 500  970.0508
 501  657.0789
 502  596.7041
 503  672.6608
 504  651.6967
 505  894.6748
 506  959.1462
 507  1082.01
 508  1208.465
 509  1359.916
 510  1370.935
 511  1228.464
 512  1400.856
 513  1418.616
 514  1095.98
 515  797.0223
 516  604.2415
 517  751.7799
 518  769.9888
 519  678.5864
 520  751.1791
 521  972.6985
 522  1464.72
 523  1612.917
 524  1719.937
 525  1712.842
 526  1906.551
 527  1946.094
 528  1992.128
 529  1674.393
 530  1650.049
 531  1504.514
 532  1349.247
 533  921.8538
 534  719.1263
 535  774.9824
 536  785.9964
 537  733.4988
 538  818.2919
 539  873.0217
 540  1119.811
 541  1403.649
 542  1433.534
 543  1356.778
 544  1273.629
 545  1604.175
 546  1474.844
 547  1313.857
 548  1001.263
 549  970.3946
 550  901.6268
 551  691.874
 552  645.5892
 553  782.2637
 554  1164.692
 555  1542.632
 556  1587.489
 557  1678.99
 558  1810.392
 559  2045.454
 560  2276.117
 561  2199.564
 562  1983.344
 563  1835.972
 564  1561.438
 565  1287.023
 566  865.6832
 567  856.1469
 568  984.0752
 569  1043.788
 570  1026.496
 571  1053.921
 572  1195.292
 573  1559.381
 574  1615.172
 575  1580.125
 576  1417.204
 577  1504.63
 578  1472.31
 579  990.5474
 580  821.6644
 581  630.5662
 582  904.625
 583  836.8224
 584  799.4258
 585  728.5546
 586  875.3925
 587  1235.682
 588  1543.626
 589  1796.592
 590  1987.191
 591  2206.04
 592  2337.757
 593  2494.168
 594  2326.994
 595  2336.785
 596  2391.931
 597  2361.002
 598  2112.824
 599  2003.152
 600  2068.252
 601  1999.709
 602  1664.854
 603  1664.813
 604  1787.781
 605  1998.667
 606  2002.145
 607  1927.818
 608  1850.602
 609  1873.073
 610  1773.306
 611  1687.495
 612  1470.277
 613  1350.803
 614  1324.375
 615  1280.244
 616  1023.866
 617  726.7388
 618  775.7705
 619  938.4017
 620  1139.22
 621  1036.799
 622  1401.777
 623  1743.941
 624  2051.954
 625  2316.515
 626  2388.093
 627  2433.983
 628  2414.258
 629  2257.473
 630  1960.659
 631  1604.377
 632  1519.735
 633  1281.243
 634  841.9458
 635  668.1092
 636  819.3942
 637  1001.216
 638  1171.139
 639  1290.379
 640  1429.884
 641  1606.66
 642  1921.499
 643  2073.44
 644  1817.506
 645  1694.624
 646  1606.644
 647  1614.051
 648  1249.811
 649  701.9796
 650  465.7328
 651  559.9631
 652  789.5695
 653  924.3303
 654  1218.789
 655  1557.522
 656  1929.836
 657  1996.632
 658  2027.741
 659  2020.843
 660  2148.3
 661  2368.005
 662  2127.775
 663  1781.242
 664  1491.301
 665  1372.867
 666  1201.017
 667  819.4557
 668  839.6776
 669  900.0678
 670  1081.144
 671  1336.171
 672  1497.195
 673  1599.927
 674  1830.72
 675  1925.911
 676  1742.075
 677  1291.399
 678  1382.898
 679  1409.595
 680  1281.12
 681  890.0244
 682  750.5314
 683  725.5365
 684  903.4981
 685  1061.574
 686  1140.031
 687  1310.947
 688  1605.845
 689  1882.828
 690  2023.61
 691  2030.315
 692  1971.072
 693  1959.892
 694  1924.257
 695  1698.324
 696  1611.519
 697  1590.124
 698  1529.608
 699  1144.201
 700  908.05
 701  933.6577
 702  978.7113
 703  1103.156
 704  1085.422
 705  1161.593
 706  1369.641
 707  1670.284
 708  1676.907
 709  1394.79
 710  1438.021
 711  1676.923
 712  1591.302
 713  1440.787
 714  1058.573
 715  1051.09
 716  1055.182
 717  917.3441
 718  942.8463
 719  978.1144
 720  1446.015
 721  1767.66
 722  1876.84
 723  1904.552
 724  1954.552
 725  2026.548
 726  2142.324
 727  1984.446
 728  1820.012
 729  1569.033
 730  1342.878
 731  1074.384
 732  920.1154
 733  1025.883
 734  1102.454
 735  1052.037
 736  1268.692
 737  1321.656
 738  1409.756
 739  1492.438
 740  1506.47
 741  1611.756
 742  1482.323
 743  1650.481
 744  1539.014
 745  1346.597
 746  1028.326
 747  912.2856
 748  841.9351
 749  794.8428
 750  592.8343
 751  640.1902
 752  947.0328
 753  1324.376
 754  1592.477
 755  1860.391
 756  2125.594
 757  2177.988
 758  2167.441
 759  2115.533
 760  1909.553
 761  1936.462
 762  1854.973
 763  1601.744
 764  1109.802
 765  801.5716
 766  775.2045
 767  719.579
 768  634.7905
 769  698.5538
 770  963.511
 771  1315.682
 772  1604.242
 773  1627.323
 774  1670.155
 775  1899.787
 776  2034.762
 777  1726.333
 778  1328.307
 779  909.0076
 780  815.6002
 781  698.3029
 782  549.5498
 783  507.7017
 784  645.6469
 785  896.9566
 786  1195.203
 787  1286.129
 788  1580.985
 789  1843.423
 790  2172.356
 791  2289.871
 792  2183.587
 793  2081.373
 794  2136.431
 795  1893.206
 796  1590.267
 797  1162.137
 798  966.4627
 799  801.2498
 800  626.2277
 801  694.127
 802  864.1202
 803  1057.447
 804  1266.103
 805  1345.679
 806  1433.4
 807  1589.918
 808  1857.071
 809  2114.254
 810  1748.722
 811  1409.325
 812  1001.992
 813  950.1414
 814  761.4191
 815  544.6945
 816  551.9098
 817  738.0056
 818  988.2493
 819  1178.971
 820  1525.665
 821  1814.48
 822  2105.423
 823  2227.899
 824  2342.003
 825  2107.398
 826  2213.608
 827  2148.652
 828  1812.807
 829  1443.517
 830  1286.095
 831  1162.05
 832  776.05
 833  519.6379
 834  739.202
 835  824.0282
 836  1115.086
 837  1372.9
 838  1529.084
 839  1466.818
 840  1636.407
 841  1747.901
 842  1549.139
 843  1340.684
 844  1379.239
 845  1521.005
 846  1367.713
 847  969.402
 848  783.2638
 849  680.8152
 850  552.832
 851  822.358
 852  1076.311
 853  1482.549
 854  1706.798
 855  1886.527
 856  2002.85
 857  2029.331
 858  2025.35
 859  2314.029
 860  2032.008
 861  1784.687
 862  1421.772
 863  1363.241
 864  1255.734
 865  990.8276
 866  1067.417
 867  1007.94
 868  1062.673
 869  1209.718
 870  1221.925
 871  1247.222
 872  1427.836
 873  1667.609
 874  1755.567
 875  1385.318
 876  1466.129
 877  1525.715
 878  1378.542
 879  1093.511
 880  963.9186
 881  1121.78
 882  1162.196
 883  927.5914
 884  1037.588
 885  1199.767
 886  1697.094
 887  1898.788
 888  2047.557
 889  1984.058
 890  1923.956
 891  1984.979
 892  1980.531
 893  1642.986
 894  1462.155
 895  1341.511
 896  1364.745
 897  1089.737
 898  858.8136
 899  1082.922
 900  1128.8
 901  1286.731
 902  1387.724
 903  1394.799
 904  1561.037
 905  1731.947
 906  1797.609
 907  1636.337
 908  1465.111
 909  1515.973
 910  1301.593
 911  1197.258
 912  873.452
 913  860.6803
 914  918.5844
 915  950.2695
 916  922.0748
 917  957.6399
 918  1242.264
 919  1576.437
 920  1843.092
 921  2060.759
 922  2141.148
 923  2207.584
 924  2379.103
 925  2245.497
 926  1852.772
 927  1622.598
 928  1525.113
 929  1392.083
 930  933.1165
 931  819.3542
 932  882.5024
 933  1059.406
 934  1178.559
 935  1233.39
 936  1318.152
 937  1595.267
 938  1824.901
 939  1958.475
 940  1750.189
 941  1687.65
 942  1710.894
 943  1480.515
 944  1228.395
 945  763.4077
 946  859.8715
 947  915.6065
 948  853.9026
 949  771.4998
 950  882.0408
 951  1276.054
 952  1477.955
 953  1810.716
 954  2106.354
 955  2311.984
 956  2256.533
 957  2391.11
 958  2129.72
 959  1959.524
 960  1787.492
 961  1626.365
 962  1326.15
 963  918.7277
 964  956.7808
 965  896.1387
 966  868.1904
 967  1006.868
 968  1149.444
 969  1379.674
 970  1446.973
 971  1581.34
 972  1627.191
 973  1724.296
 974  1661.388
 975  1518.155
 976  1230.821
 977  1075.619
 978  1141.8
 979  1069.435
 980  875.1581
 981  675.9124
 982  758.091
 983  826.2087
 984  1113.462
 985  1329.399
 986  1833.247
 987  2014.241
 988  2152.261
 989  2285.182
 990  2208.262
 991  2008.622
 992  2029.427
 993  1933.412
 994  1581.663
 995  1089.466
 996  980.8356
 997  1022.644
 998  858.5122
 999  881.0546
1000  1068.422
1001  1191.554
1002  1284.213
1003  1375.407
1004  1473.069
1005  1570.046
1006  1661.848
1007  1870.042
1008  1706.741
1009  1574.869
1010  1354.344
1011  1251.444
1012  1081.603
1013  755.8565
1014  745.2949
1015  832.0844
1016  1013.036
1017  1123.599
1018  1207.57
1019  1353.201
1020  1570.018
1021  1810.171
1022  1920.344
1023  1822.949
