# Input file       =  1209389081.116451_cleaned.dat
# Candidate        =  PSR_0332+5434
# Telescope        =  AR
# Epoch_topo       =  58241.559029125594
# Epoch_bary       =  N/A
# T_sample         =  0.002
# Data Folded      =  7340032
# Data Avg         =  0.284249769876104
# Data StdDev      =  5.84906550993859 
# Profile Bins     =  1024
# Profile Avg      =  2037.26403934451 
# Profile StdDev   =  495.205527725527 
# Reduced chi-sqr  =  1.581
# Prob(Noise)      <  1.57e-29   (~11.2 sigma)
# P_topo (ms)      =  714.544750451411  +/- 0.000196
# P'_topo (s/s)    =  -0                +/- 1.03e-10
# P''_topo (s/s^2) =  0                 +/- 4.56e-14
# P_bary (ms)      =  N/A
# P'_bary (s/s)    =  N/A
# P''_bary (s/s^2) =  N/A
# P_orb (s)        =  N/A
# asin(i)/c (s)    =  N/A
# eccentricity     =  N/A
# w (rad)          =  N/A
# T_peri           =  N/A
######################################################
   0  2692.246
   1  2597.451
   2  2533.867
   3  2469.032
   4  2401.553
   5  2419.235
   6  2479.667
   7  2579.77
   8  2648.427
   9  2601.546
  10  2572.926
  11  2437.293
  12  2427.589
  13  2384.585
  14  2533.799
  15  2432.357
  16  2330.17
  17  2196.576
  18  2111.314
  19  1965.369
  20  1885.564
  21  1893.603
  22  1955.536
  23  2046.354
  24  2166.389
  25  2124.613
  26  1975.801
  27  1769.194
  28  1768.611
  29  1844.675
  30  2020.735
  31  1892.075
  32  1850.741
  33  1772.528
  34  1742.952
  35  1690.03
  36  1652.099
  37  1656.525
  38  1702.834
  39  1678.424
  40  1769.367
  41  1753.35
  42  1709.246
  43  1719.083
  44  1825.901
  45  1943.04
  46  1847.299
  47  1863.57
  48  1822.306
  49  1981.9
  50  1848.114
  51  1785.934
  52  1785.726
  53  1763.388
  54  1895.478
  55  1915.371
  56  1896.106
  57  1677.865
  58  1571.259
  59  1593.953
  60  1634.822
  61  1723.937
  62  1809.08
  63  1975.935
  64  2043.073
  65  2051.446
  66  1921.519
  67  1754.691
  68  1788.701
  69  1716.799
  70  1787.638
  71  1674.656
  72  1652.778
  73  1567.171
  74  1616.202
  75  1790.855
  76  1856.133
  77  1851.993
  78  1730.469
  79  1770.932
  80  1850.377
  81  1808.852
  82  1677.399
  83  1598.442
  84  1548.915
  85  1495.368
  86  1396.005
  87  1501.967
  88  1559.637
  89  1659.385
  90  1704.316
  91  1679.663
  92  1618.011
  93  1536.183
  94  1586.849
  95  1579.655
  96  1577.265
  97  1493.458
  98  1420.838
  99  1470.03
 100  1555.429
 101  1721.531
 102  1655.197
 103  1737.04
 104  1871.078
 105  1959.638
 106  1925.731
 107  1854.131
 108  1917.329
 109  1957.58
 110  1909.221
 111  1801.484
 112  1752.515
 113  1764.62
 114  1806.704
 115  1818.759
 116  1943.296
 117  2041.341
 118  2086.94
 119  2049.801
 120  1982.854
 121  1956.545
 122  2057.287
 123  2238.676
 124  2249.547
 125  2212.258
 126  2186.801
 127  2141.018
 128  2213.577
 129  2262.427
 130  2363.33
 131  2296.743
 132  2362.073
 133  2478.741
 134  2589.452
 135  2648.515
 136  2639.799
 137  2591.024
 138  2672.341
 139  2672.489
 140  2708.59
 141  2673.781
 142  2688.365
 143  2700.981
 144  2696.804
 145  2516.646
 146  2532.62
 147  2629.431
 148  2877.179
 149  2824.622
 150  2717.653
 151  2603.469
 152  2762.702
 153  2736.527
 154  2711.768
 155  2649.322
 156  2704.411
 157  2662.745
 158  2610.863
 159  2455.963
 160  2420.354
 161  2468.683
 162  2554.535
 163  2508.242
 164  2367.73
 165  2289.586
 166  2246.109
 167  2284.88
 168  2475.198
 169  2536.489
 170  2488.818
 171  2438.531
 172  2489.047
 173  2514.422
 174  2424.144
 175  2347.382
 176  2374.871
 177  2373.318
 178  2303.641
 179  2234.066
 180  2311.214
 181  2295.638
 182  2237.646
 183  2218.625
 184  2241.623
 185  2285.754
 186  2317.483
 187  2387.601
 188  2409.028
 189  2278.589
 190  2212.007
 191  2198.945
 192  2215.686
 193  2212.286
 194  2221.676
 195  2253.989
 196  2301.498
 197  2258.054
 198  2157.259
 199  2053.414
 200  2087.188
 201  2195.446
 202  2258.556
 203  2277.277
 204  2069.948
 205  2054.802
 206  2043.663
 207  2081.793
 208  2127.056
 209  2015.134
 210  1981.604
 211  2010.717
 212  1934.948
 213  2038.974
 214  2201.213
 215  2354.93
 216  2350.957
 217  2300.419
 218  2364.5
 219  2294.254
 220  2234.717
 221  2266.09
 222  2454.396
 223  2497.11
 224  2391.278
 225  2411.956
 226  2458.061
 227  2422.008
 228  2291.012
 229  2268.598
 230  2313.528
 231  2304.905
 232  2414.716
 233  2488.345
 234  2521.89
 235  2499.571
 236  2481.556
 237  2451.71
 238  2436.907
 239  2265.425
 240  2152.818
 241  2082.307
 242  1973.143
 243  1943.567
 244  1960.899
 245  2019.814
 246  1968.966
 247  2060.054
 248  2112.385
 249  2131.906
 250  2119.613
 251  2162.384
 252  2261.118
 253  2317.543
 254  2253.954
 255  2147.97
 256  2116.704
 257  2144.554
 258  2087.245
 259  2092.321
 260  2157.775
 261  2149.85
 262  2070.94
 263  2101.388
 264  2298.891
 265  2437.593
 266  2489.533
 267  2556.799
 268  2552.627
 269  2433.264
 270  2378.537
 271  2418.899
 272  2508.719
 273  2465.921
 274  2557.519
 275  2499.631
 276  2465.428
 277  2464.464
 278  2567.187
 279  2734.834
 280  2716.939
 281  2722.779
 282  2670.701
 283  2477.679
 284  2455.277
 285  2557.688
 286  2732.286
 287  2703.561
 288  2549.895
 289  2613.473
 290  2578.106
 291  2565.757
 292  2505.982
 293  2551.115
 294  2587.274
 295  2649.684
 296  2682.427
 297  2737.649
 298  2675.183
 299  2574.881
 300  2575.72
 301  2692.653
 302  2751.304
 303  2659.387
 304  2606.244
 305  2541.702
 306  2393.9
 307  2395.791
 308  2278.35
 309  2242.794
 310  2185.027
 311  2320.906
 312  2337.187
 313  2193.573
 314  2066.674
 315  2098.684
 316  2235.896
 317  2190.482
 318  2041.195
 319  1973.947
 320  1723.197
 321  1750.03
 322  1807.099
 323  1883.143
 324  1921.92
 325  1910.663
 326  2081.738
 327  2108.983
 328  2091.786
 329  1960.082
 330  1799.691
 331  1751.363
 332  1771.956
 333  1786.627
 334  1837.31
 335  1740.644
 336  1903.74
 337  1876.134
 338  1725.753
 339  1590.621
 340  1583.836
 341  1825.92
 342  1710.766
 343  1656.582
 344  1463.337
 345  1433
 346  1411.684
 347  1375.444
 348  1490.842
 349  1525.849
 350  1615.05
 351  1665.453
 352  1727.372
 353  1680.74
 354  1623.886
 355  1632.87
 356  1679.007
 357  1635.23
 358  1557.971
 359  1632.626
 360  1682.992
 361  1751.148
 362  1855.981
 363  1844.222
 364  1827.998
 365  1833.326
 366  1877.826
 367  1867.132
 368  1752.362
 369  1793.97
 370  1847.28
 371  1843.568
 372  1858.443
 373  1940.998
 374  2000.677
 375  1940.1
 376  1864.306
 377  1902.117
 378  1917.258
 379  1944.225
 380  1988.603
 381  1969.705
 382  1830.761
 383  1772.857
 384  1777.197
 385  1770.181
 386  1747.3
 387  1794.855
 388  1807.204
 389  1991.461
 390  2078.799
 391  2095.886
 392  2026.053
 393  1837.726
 394  1825.275
 395  1851.34
 396  1971.41
 397  2019.844
 398  2013.563
 399  1983.3
 400  1720.374
 401  1721.142
 402  1765
 403  1980.258
 404  2224.809
 405  2222.54
 406  2228.967
 407  2240.235
 408  2206.043
 409  2154.026
 410  2078.08
 411  2119.234
 412  2118.158
 413  2235.585
 414  2282.019
 415  2271.308
 416  2347.796
 417  2433.81
 418  2462.037
 419  2350.453
 420  2311.376
 421  2374.236
 422  2381.478
 423  2372.567
 424  2408.354
 425  2324.557
 426  2198.571
 427  2214.165
 428  2355.312
 429  2267.759
 430  2224.494
 431  2270.061
 432  2395.724
 433  2414.003
 434  2362.762
 435  2308.816
 436  2247.92
 437  2326.343
 438  2424.811
 439  2442.094
 440  2326.104
 441  2278.125
 442  2222.776
 443  2193.488
 444  2114.752
 445  2185.984
 446  2247.928
 447  2236.716
 448  2130.093
 449  2045.714
 450  1942.205
 451  1974.064
 452  2046.783
 453  2054.727
 454  1995.832
 455  1894.772
 456  2022.976
 457  1983.172
 458  2072.192
 459  2117.193
 460  2144.249
 461  1959.345
 462  1838.785
 463  1916.364
 464  1950.837
 465  1951.034
 466  1810.301
 467  1847.542
 468  1860.685
 469  1838.808
 470  1775.473
 471  1731.003
 472  1872.321
 473  1981.273
 474  1946.811
 475  1764.246
 476  1623.653
 477  1541.103
 478  1516.925
 479  1606.126
 480  1740.822
 481  1706.058
 482  1603.937
 483  1637.594
 484  1514.291
 485  1506.998
 486  1599.369
 487  1684.09
 488  1611.081
 489  1514.283
 490  1602.265
 491  1762.064
 492  1741.397
 493  1799.593
 494  1771.287
 495  1783.943
 496  1781.828
 497  1742.91
 498  1704.983
 499  1703.561
 500  1674.118
 501  1741.853
 502  1728.62
 503  1765.532
 504  1730.7
 505  1735.137
 506  1740.156
 507  1735.171
 508  1633.233
 509  1641.979
 510  1647.244
 511  1595.82
 512  1589.269
 513  1662.124
 514  1759.647
 515  1777.263
 516  1825.729
 517  1716.126
 518  1646.776
 519  1450.63
 520  1315.064
 521  1376.839
 522  1552.458
 523  1741.429
 524  1614.357
 525  1397.446
 526  1279.364
 527  1308.79
 528  1434.813
 529  1523.837
 530  1530.08
 531  1558.527
 532  1571.922
 533  1579.937
 534  1523.866
 535  1532.223
 536  1486.864
 537  1550.611
 538  1458.882
 539  1473.145
 540  1504.45
 541  1607.47
 542  1669.17
 543  1662.535
 544  1577.428
 545  1592.222
 546  1566.343
 547  1531.069
 548  1493.882
 549  1474.451
 550  1543.725
 551  1671.471
 552  1847.258
 553  1831.546
 554  1712.02
 555  1705.314
 556  1742.272
 557  1817.194
 558  1849.344
 559  1954.976
 560  2027.684
 561  2132.964
 562  2068.355
 563  2015.071
 564  1885.542
 565  1797.726
 566  1800.418
 567  1849.576
 568  1960.372
 569  2049.014
 570  2158.632
 571  2255.453
 572  2196.607
 573  2197.368
 574  2220.672
 575  2241.057
 576  2248.789
 577  2220.319
 578  2354.849
 579  2485.379
 580  2409.825
 581  2348.857
 582  2330.24
 583  2411.573
 584  2472.932
 585  2553.677
 586  2665.013
 587  2643.168
 588  2507.904
 589  2532.025
 590  2507.246
 591  2693.558
 592  2745.199
 593  2696.565
 594  2640.736
 595  2621.751
 596  2802.721
 597  2992.281
 598  3054.95
 599  3085.411
 600  3139.769
 601  3261.095
 602  3332.56
 603  3335.897
 604  3222.146
 605  3218.146
 606  3037.509
 607  2733.566
 608  2526.375
 609  2459.259
 610  2421.259
 611  2331.062
 612  2186.33
 613  2195.76
 614  2119.767
 615  2172.423
 616  2213.314
 617  2085.775
 618  2011.051
 619  1866.379
 620  1959.452
 621  1937.528
 622  1866.785
 623  1737.052
 624  1701.948
 625  1887.054
 626  1896.121
 627  1961.628
 628  1890.199
 629  2019.055
 630  2053.223
 631  1972.568
 632  1870.016
 633  1828.489
 634  1820.915
 635  1644.094
 636  1599.836
 637  1650.04
 638  1733.252
 639  1676.446
 640  1705.25
 641  1707.773
 642  1684.026
 643  1621.736
 644  1614.537
 645  1600.697
 646  1619.387
 647  1613.735
 648  1660.314
 649  1609.244
 650  1531.019
 651  1467.246
 652  1542.285
 653  1599.985
 654  1695.583
 655  1790.441
 656  1682.092
 657  1663.354
 658  1597.064
 659  1649.744
 660  1614.553
 661  1604.06
 662  1633.79
 663  1547.463
 664  1555.903
 665  1403.823
 666  1433.377
 667  1514.384
 668  1701.529
 669  1744.244
 670  1805.538
 671  1745.352
 672  1750.378
 673  1679.2
 674  1821.175
 675  1730.659
 676  1836.613
 677  1905.891
 678  1848.614
 679  1797.518
 680  1756.315
 681  1863.574
 682  1777.111
 683  1688.51
 684  1672.127
 685  1787.033
 686  1857.654
 687  1901.994
 688  1779.13
 689  1831.401
 690  1865.494
 691  1815.785
 692  1840.417
 693  1885.934
 694  2078.213
 695  1988.776
 696  1711.056
 697  1614.837
 698  1733.574
 699  1867.639
 700  1915.622
 701  1955.068
 702  2023.88
 703  1977.287
 704  2017.012
 705  1987.982
 706  2000.719
 707  1908.114
 708  1929.669
 709  1821.569
 710  1799.635
 711  1867.59
 712  1992.569
 713  2034.97
 714  1994.287
 715  2014
 716  1908.91
 717  1888.826
 718  1918.586
 719  2103.854
 720  2141.438
 721  2287.741
 722  2338.397
 723  2358.122
 724  2369.601
 725  2353.251
 726  2311.599
 727  2244.884
 728  2237.006
 729  2140.274
 730  2224.156
 731  2235.63
 732  2243.658
 733  2299.039
 734  2426.789
 735  2596.644
 736  2578.323
 737  2582.402
 738  2608.676
 739  2611.367
 740  2495.737
 741  2467.985
 742  2448.556
 743  2465.112
 744  2402.822
 745  2405.761
 746  2308.417
 747  2260.506
 748  2316.255
 749  2335.356
 750  2186.629
 751  2090.186
 752  2055.595
 753  1917.626
 754  1932.819
 755  1995.675
 756  2152.962
 757  2137.999
 758  2032.047
 759  1804.268
 760  1724.256
 761  1658.951
 762  1641.774
 763  1628.452
 764  1649
 765  1779.201
 766  1711.525
 767  1688.441
 768  1641.538
 769  1730.786
 770  1797.593
 771  1670.475
 772  1604.462
 773  1548.292
 774  1688.264
 775  1619.664
 776  1616.076
 777  1684.837
 778  1704.801
 779  1612.258
 780  1555.156
 781  1660.166
 782  1735.007
 783  1746.069
 784  1685.766
 785  1801.868
 786  1878.28
 787  2014.809
 788  2081.907
 789  2087.147
 790  2173.5
 791  2200.47
 792  2274.396
 793  2192.519
 794  1907.625
 795  1775.236
 796  1782.358
 797  1848.178
 798  1980.004
 799  1951.314
 800  1960.711
 801  1878.439
 802  1800.548
 803  1847.973
 804  1955.04
 805  1984.388
 806  1999.646
 807  1864.782
 808  1986.274
 809  2041.225
 810  1943.16
 811  1860.513
 812  1787.756
 813  1742.668
 814  1831.249
 815  1872.036
 816  1895.613
 817  1808.346
 818  1921.732
 819  1961.869
 820  1983.679
 821  1812.524
 822  1897.729
 823  1885.113
 824  1911.365
 825  1752.158
 826  1666.163
 827  1695.284
 828  1759.005
 829  1781.819
 830  1822.088
 831  1766.562
 832  1860.046
 833  1854.905
 834  1862.236
 835  1755.992
 836  1765.18
 837  1768.59
 838  1761.733
 839  1691.617
 840  1569.903
 841  1522.806
 842  1602.836
 843  1612.559
 844  1573.659
 845  1695.216
 846  1775.243
 847  1885.897
 848  1903.891
 849  2013.826
 850  2127.455
 851  2179.465
 852  2142.371
 853  2028.831
 854  1908.511
 855  1972.022
 856  2034.826
 857  2084.676
 858  2076.497
 859  2080.799
 860  2099.802
 861  2054.216
 862  2197.344
 863  2271.697
 864  2247.538
 865  2179.129
 866  2190.206
 867  2216.265
 868  2323.443
 869  2265.936
 870  2400.264
 871  2553.878
 872  2598.931
 873  2480.749
 874  2321.347
 875  2233.758
 876  2148.174
 877  2218.027
 878  2277.028
 879  2416.656
 880  2466.26
 881  2532.85
 882  2577.146
 883  2521.181
 884  2526.546
 885  2549.426
 886  2484.744
 887  2390.753
 888  2370.531
 889  2331.935
 890  2254.057
 891  2195.447
 892  2183.963
 893  2189.774
 894  2110.602
 895  1993.883
 896  2084.329
 897  2163.325
 898  2274.589
 899  2263.626
 900  2321.695
 901  2226.194
 902  2056.763
 903  2007.184
 904  1947.159
 905  1928.569
 906  1892.8
 907  1930.746
 908  1944.676
 909  1953.061
 910  1941.463
 911  2005.936
 912  2032.51
 913  2041.036
 914  1989.364
 915  1904.365
 916  1887.542
 917  1829.511
 918  1817.224
 919  1885.776
 920  1965.131
 921  1830.993
 922  1702.098
 923  1733.278
 924  1888.304
 925  1872.488
 926  1790.168
 927  1759.561
 928  1714.555
 929  1796.248
 930  1939.797
 931  1976.788
 932  1985.532
 933  1927.894
 934  1934.883
 935  1996.401
 936  2038.641
 937  2033.008
 938  1904.268
 939  1822.619
 940  1876.679
 941  2010.143
 942  2084.687
 943  2011.03
 944  1887.388
 945  1907.944
 946  1905.772
 947  1922.497
 948  1865.041
 949  1870.331
 950  1977.722
 951  1988.507
 952  1939.627
 953  1770.48
 954  1729.198
 955  1781.913
 956  1694.931
 957  1608.82
 958  1581.648
 959  1693.591
 960  1682.683
 961  1685.635
 962  1692.21
 963  1622.877
 964  1674.586
 965  1754.399
 966  1943.644
 967  1919.145
 968  1907.909
 969  1857.211
 970  1767.408
 971  1617.977
 972  1619.187
 973  1665.635
 974  1780.847
 975  1903.916
 976  1933.596
 977  1868.379
 978  1849.795
 979  1936.534
 980  1981.998
 981  2015.145
 982  2101.264
 983  2143.974
 984  2137.801
 985  1961.218
 986  2056.434
 987  2017.835
 988  2055.669
 989  2052.704
 990  2107.942
 991  2170.106
 992  2136.693
 993  2139.37
 994  2081.808
 995  2144.901
 996  2136.887
 997  2189.925
 998  2143.188
 999  2172.919
1000  2152.105
1001  2207.937
1002  2185.088
1003  2243.156
1004  2425.201
1005  2497.996
1006  2438.551
1007  2375.597
1008  2371.981
1009  2377.798
1010  2328.323
1011  2387.004
1012  2346.592
1013  2355.748
1014  2453.576
1015  2509.881
1016  2564.929
1017  2504.883
1018  2622.932
1019  2627.932
1020  2563.203
1021  2535.816
1022  2703.872
1023  2767.575
