# Input file       =  1209273393.117833_cleaned.dat
# Candidate        =  PSR_0332+5434
# Telescope        =  AR
# Epoch_topo       =  58240.220047660107
# Epoch_bary       =  N/A
# T_sample         =  0.002
# Data Folded      =  7208960
# Data Avg         =  0.436126057423693
# Data StdDev      =  7.17601788219683 
# Profile Bins     =  512
# Profile Avg      =  6140.38432256096 
# Profile StdDev   =  851.500367381113 
# Reduced chi-sqr  =  1.713
# Prob(Noise)      <  1.47e-21   (~9.5 sigma)
# P_topo (ms)      =  714.545621527404  +/- 3.45e-05
# P'_topo (s/s)    =  -0                +/- 1.86e-11
# P''_topo (s/s^2) =  0                 +/- 8.34e-15
# P_bary (ms)      =  N/A
# P'_bary (s/s)    =  N/A
# P''_bary (s/s^2) =  N/A
# P_orb (s)        =  N/A
# asin(i)/c (s)    =  N/A
# eccentricity     =  N/A
# w (rad)          =  N/A
# T_peri           =  N/A
######################################################
   0  5653.877
   1  5827.916
   2  5922.13
   3  6033.356
   4  5411.169
   5  5606.041
   6  5080.494
   7  4706.812
   8  5319.277
   9  6063.179
  10  7296.628
  11  7160.8
  12  7718.52
  13  6975.797
  14  6470.022
  15  5850.73
  16  5693.023
  17  5849.261
  18  5703.44
  19  6046.71
  20  5377.785
  21  5601.607
  22  5428.87
  23  5364.912
  24  5661.909
  25  5949.068
  26  6731.883
  27  7296.232
  28  7983.11
  29  7012.082
  30  6515.893
  31  6176.458
  32  5915.237
  33  6176.916
  34  6171.57
  35  6599.923
  36  5713.416
  37  5247.646
  38  4420.079
  39  5302.867
  40  5686.661
  41  5486.866
  42  6292.067
  43  6995.905
  44  7856.746
  45  6494.854
  46  6206.76
  47  6092.483
  48  5977.302
  49  5741.352
  50  5884.231
  51  6560.365
  52  6190.789
  53  5740.656
  54  4606.514
  55  4790.758
  56  4685.594
  57  5165.805
  58  6210.069
  59  7206.798
  60  7619.169
  61  7309.242
  62  6077.219
  63  5342.752
  64  5567.777
  65  5659.811
  66  5663.355
  67  6423.015
  68  6483.427
  69  5896.106
  70  5644.551
  71  4714.982
  72  4629.085
  73  4524.386
  74  5166.05
  75  5813.295
  76  6792.206
  77  7144.377
  78  6443.858
  79  6221.429
  80  5569.675
  81  5288.078
  82  5233.613
  83  5507.492
  84  6182.929
  85  5734.301
  86  5731.863
  87  5442.17
  88  5616.03
  89  5161.33
  90  4900.696
  91  5429.057
  92  6521.683
  93  7776.661
  94  7166.501
  95  6529.311
  96  5774.97
  97  5875.87
  98  5736.015
  99  5084.387
 100  5528.497
 101  5811.418
 102  5758.887
 103  5201.981
 104  5293.047
 105  5032.181
 106  5635.503
 107  5463.654
 108  5453.507
 109  6899.346
 110  7336.455
 111  7615.577
 112  6397.188
 113  6648.322
 114  5879.98
 115  6042.539
 116  6243.526
 117  6270.539
 118  6815.296
 119  5889.452
 120  5396.311
 121  5353.928
 122  5541.646
 123  5827.872
 124  6174.929
 125  7040.129
 126  7222.076
 127  7195.038
 128  6465.623
 129  6413.981
 130  5835.961
 131  5731.64
 132  6141.794
 133  6515.775
 134  6185.621
 135  5501.891
 136  4830.424
 137  4395.015
 138  4674.559
 139  5175.392
 140  5806.497
 141  6839.681
 142  7267.071
 143  7374.75
 144  6659.639
 145  6076.592
 146  5636.16
 147  5588.907
 148  5508.806
 149  5106.521
 150  5894.422
 151  6366.203
 152  5960.106
 153  5548.373
 154  4620.544
 155  4222.607
 156  4602.003
 157  5403.276
 158  6752.462
 159  6938.705
 160  7025.541
 161  6500.875
 162  5927.23
 163  5482.046
 164  5209.573
 165  5418.499
 166  5423.149
 167  6260.871
 168  5963.787
 169  5545.5
 170  5057.506
 171  5122.717
 172  5150.567
 173  5283.604
 174  6009.144
 175  7157.166
 176  8187.89
 177  7743.56
 178  7125.184
 179  5836.921
 180  5851.399
 181  5520.384
 182  5386.843
 183  6049.032
 184  5700.802
 185  6226.514
 186  5448.057
 187  5795.113
 188  5792.043
 189  5620.394
 190  5730.935
 191  6640.508
 192  7867.722
 193  7644.395
 194  7887.607
 195  7260.323
 196  6957.207
 197  6645.772
 198  6159.785
 199  6244.927
 200  6043.526
 201  6203.795
 202  4986.854
 203  4936.052
 204  5669.737
 205  5985.568
 206  6344.864
 207  6920.014
 208  7695.103
 209  7442.309
 210  7463.578
 211  6553.034
 212  6776.465
 213  6019.331
 214  5847.288
 215  6651.892
 216  6573.597
 217  6625.106
 218  5772.854
 219  5281.122
 220  4860.333
 221  5235.866
 222  5766.612
 223  6208.918
 224  7406.183
 225  7474.39
 226  7306.066
 227  6752.052
 228  6316.794
 229  6314.8
 230  6029.098
 231  5946.675
 232  6161.093
 233  6585.602
 234  6323.359
 235  5526.113
 236  5343.894
 237  5066.34
 238  4905.204
 239  5307.475
 240  6508.528
 241  7621.355
 242  7331.04
 243  6678.348
 244  6123.546
 245  5575.873
 246  5297.96
 247  5573.835
 248  5662.921
 249  5660.407
 250  6330.132
 251  6007.118
 252  5806.534
 253  5249.689
 254  5275.945
 255  4900.535
 256  5647.37
 257  7014.826
 258  7948.975
 259  8115.649
 260  7108.383
 261  6709.834
 262  6004.021
 263  6142.795
 264  5819.525
 265  5471.709
 266  6244.332
 267  5859.804
 268  5969.423
 269  5412.073
 270  5621.745
 271  5928.855
 272  5498.807
 273  5920.793
 274  6994.319
 275  7652.043
 276  7327.679
 277  7100.649
 278  6786.166
 279  6230.455
 280  5990.058
 281  6251.382
 282  6095.522
 283  6074.463
 284  6408.042
 285  5632.818
 286  5887.429
 287  5733.074
 288  6094.014
 289  6407.808
 290  6603.994
 291  7581.713
 292  7319.317
 293  7419.929
 294  6674.989
 295  6971.758
 296  6539.563
 297  6173.824
 298  6510.369
 299  6189.863
 300  6457.463
 301  5877.334
 302  5349.187
 303  5316.451
 304  6249.954
 305  6531.037
 306  6432.683
 307  7226.903
 308  7981.723
 309  7601.528
 310  6624.239
 311  6238.614
 312  5927.623
 313  6170.223
 314  6404.225
 315  6581.324
 316  6356.806
 317  5652.348
 318  5224.783
 319  4937.042
 320  5627.742
 321  5327.448
 322  6180.669
 323  7563.398
 324  7815.439
 325  7416.979
 326  6497.276
 327  6283.732
 328  6414.718
 329  6064.064
 330  5704.293
 331  5940.827
 332  6044.737
 333  6470.281
 334  6075.294
 335  5614.069
 336  4934.944
 337  4986.401
 338  5370.439
 339  6023.401
 340  7340.995
 341  7503.985
 342  7611.707
 343  6849.091
 344  6167.005
 345  5772.349
 346  5863.68
 347  5991.728
 348  5766.238
 349  6313.674
 350  5775.712
 351  4874.028
 352  5036.991
 353  5537.472
 354  5496.639
 355  5728.664
 356  6754.768
 357  7623.705
 358  8012.01
 359  7194.496
 360  7135.726
 361  6453.042
 362  6470.533
 363  6139.83
 364  5676.041
 365  6127.081
 366  6006.79
 367  6284.932
 368  5856.084
 369  6383.021
 370  5965.88
 371  6372.59
 372  6424.777
 373  6505.053
 374  8066.793
 375  7338.605
 376  7490.01
 377  6728.14
 378  6494.095
 379  6266.29
 380  6202.596
 381  6261.29
 382  5825.272
 383  6149.643
 384  5496.505
 385  5440.243
 386  5148.93
 387  5931.567
 388  5959.522
 389  6685.733
 390  7446.299
 391  7398.842
 392  6881.84
 393  6221.194
 394  6400.885
 395  5979.035
 396  5852.466
 397  6462.615
 398  6665.543
 399  6325.087
 400  5547.726
 401  4437.496
 402  4743.216
 403  5467.271
 404  5947.592
 405  6468.594
 406  7246.988
 407  7421.844
 408  6745.545
 409  6380.208
 410  6195.803
 411  5991.431
 412  5556.268
 413  5153.739
 414  5576.589
 415  5991.203
 416  5893.642
 417  5091.13
 418  4543.195
 419  4653.515
 420  4811.708
 421  5096.729
 422  6434.744
 423  7626.335
 424  7560.378
 425  6861.299
 426  6101.336
 427  5837.593
 428  5794.91
 429  5854.942
 430  6416.762
 431  6140.413
 432  6428.281
 433  5997.668
 434  5598.472
 435  5613.852
 436  5948.323
 437  5590.811
 438  6004.704
 439  6930.26
 440  7119.825
 441  7946.305
 442  7209.776
 443  6853.047
 444  6192.712
 445  6070.972
 446  6078.223
 447  5565.208
 448  6320.953
 449  5668.438
 450  5893.484
 451  5425.279
 452  6240.125
 453  6202.516
 454  6178.594
 455  6858.343
 456  6963.737
 457  7697.883
 458  7703.952
 459  7905.363
 460  7864.375
 461  7860.136
 462  7982.41
 463  7130.139
 464  6811.083
 465  6450.178
 466  5891.339
 467  4967.114
 468  5628.101
 469  5869.897
 470  5873.727
 471  6629.684
 472  7330.364
 473  7797.401
 474  7455.328
 475  6995.715
 476  6233.06
 477  6247.332
 478  5694.595
 479  5632.079
 480  6413.709
 481  6222.234
 482  6434.601
 483  5544.463
 484  4742.349
 485  4405.488
 486  5175.352
 487  5969.718
 488  6501.37
 489  7075.478
 490  7099.334
 491  6492.993
 492  5709.203
 493  5279.095
 494  5098.371
 495  5414.022
 496  5720.924
 497  6563.775
 498  6258.962
 499  5770.655
 500  4767.876
 501  4631.066
 502  4492.629
 503  4700.876
 504  5352.975
 505  6618.754
 506  7297.948
 507  7266.976
 508  6377.582
 509  5233.491
 510  5331.929
 511  5636.521
