# Input file       =  1209014843.115618_cleaned.dat
# Candidate        =  PSR_0332+5434
# Telescope        =  AR
# Epoch_topo       =  58237.227570782612
# Epoch_bary       =  N/A
# T_sample         =  0.002
# Data Folded      =  7208960
# Data Avg         =  0.0526744232649593
# Data StdDev      =  1.00005961764074 
# Profile Bins     =  512
# Profile Avg      =  741.619164033575 
# Profile StdDev   =  118.666249973643 
# Reduced chi-sqr  =  1.466
# Prob(Noise)      <  2.89e-11   (~6.5 sigma)
# P_topo (ms)      =  714.548301847142  +/- 9.12e-05
# P'_topo (s/s)    =  -0                +/- 4.9e-11
# P''_topo (s/s^2) =  0                 +/- 2.2e-14
# P_bary (ms)      =  N/A
# P'_bary (s/s)    =  N/A
# P''_bary (s/s^2) =  N/A
# P_orb (s)        =  N/A
# asin(i)/c (s)    =  N/A
# eccentricity     =  N/A
# w (rad)          =  N/A
# T_peri           =  N/A
######################################################
   0  689.0925
   1  698.1431
   2  737.4307
   3  734.3416
   4  641.6179
   5  715.4865
   6  757.868
   7  806.618
   8  823.353
   9  622.4596
  10  646.3043
  11  734.988
  12  762.3394
  13  537.8049
  14  609.3903
  15  658.0385
  16  737.5728
  17  665.8682
  18  677.6295
  19  686.8517
  20  724.7769
  21  657.3558
  22  628.7032
  23  579.9977
  24  768.796
  25  757.475
  26  733.1933
  27  745.7897
  28  741.9238
  29  604.6385
  30  648.2285
  31  626.0547
  32  754.5537
  33  694.982
  34  649.5124
  35  706.2161
  36  664.1318
  37  682.7334
  38  587.9634
  39  690.0035
  40  625.6921
  41  695.5617
  42  647.8503
  43  684.2496
  44  754.8226
  45  686.3201
  46  593.9172
  47  582.0219
  48  661.8416
  49  668.8008
  50  751.6966
  51  854.5582
  52  897.3033
  53  800.9555
  54  718.5342
  55  767.4957
  56  702.494
  57  769.3912
  58  813.6522
  59  738.0394
  60  758.2969
  61  864.1072
  62  855.1899
  63  682.6395
  64  711.3655
  65  720.8826
  66  714.8707
  67  729.1027
  68  782.4968
  69  752.7883
  70  766.7589
  71  815.1321
  72  774.9044
  73  788.1059
  74  790.4418
  75  848.2768
  76  961.8013
  77  969.8932
  78  825.0178
  79  629.7971
  80  660.8586
  81  741.1683
  82  775.5734
  83  722.2072
  84  875.5853
  85  924.8185
  86  804.3944
  87  773.1307
  88  662.4677
  89  767.4489
  90  682.0924
  91  728.3174
  92  734.5059
  93  748.5154
  94  814.9572
  95  712.9821
  96  680.4098
  97  709.8561
  98  743.6832
  99  725.1352
 100  683.4695
 101  729.8146
 102  746.3665
 103  694.4039
 104  747.1561
 105  799.2691
 106  774.598
 107  697.2825
 108  715.493
 109  744.3854
 110  774.146
 111  668.7134
 112  717.6147
 113  816.2704
 114  729.7079
 115  779.4277
 116  708.4724
 117  764.3959
 118  776.0211
 119  712.412
 120  648.8112
 121  662.2919
 122  730.7495
 123  688.6403
 124  716.4222
 125  781.3602
 126  713.2096
 127  657.6867
 128  576.8962
 129  546.0056
 130  578.4236
 131  711.3991
 132  649.6753
 133  651.0182
 134  698.5048
 135  700.3512
 136  675.0999
 137  596.2435
 138  698.1472
 139  619.439
 140  580.8087
 141  710.2853
 142  813.5304
 143  797.8027
 144  754.856
 145  716.8944
 146  641.9374
 147  758.6335
 148  689.6638
 149  753.7513
 150  660.8705
 151  691.376
 152  811.3436
 153  691.0059
 154  755.4195
 155  778.4432
 156  732.6797
 157  615.4797
 158  623.761
 159  821.4354
 160  886.4559
 161  738.2166
 162  662.8303
 163  751.6467
 164  676.7198
 165  719.0272
 166  771.3455
 167  838.6985
 168  872.219
 169  708.0812
 170  653.7534
 171  620.7881
 172  710.7691
 173  722.9429
 174  709.392
 175  767.7325
 176  751.476
 177  791.8715
 178  863.1558
 179  789.3406
 180  679.0757
 181  755.1418
 182  715.6631
 183  698.1361
 184  693.3836
 185  705.7728
 186  721.9148
 187  750.1187
 188  745.0234
 189  833.2592
 190  901.3881
 191  872.091
 192  699.6633
 193  711.5341
 194  824.7466
 195  696.355
 196  637.7347
 197  739.387
 198  894.5729
 199  894.2317
 200  887.6456
 201  1048.465
 202  1053.677
 203  1143.386
 204  1276.95
 205  1415.204
 206  1383.828
 207  1220.896
 208  1023.516
 209  935.1281
 210  849.7921
 211  739.9626
 212  794.1347
 213  721.0008
 214  787.5105
 215  839.0405
 216  823.1208
 217  875.1669
 218  864.0981
 219  689.6325
 220  639.8676
 221  776.9579
 222  678.5486
 223  730.4189
 224  727.6096
 225  751.3622
 226  775.8085
 227  686.3232
 228  626.932
 229  511.0612
 230  736.9693
 231  758.0891
 232  754.563
 233  765.4835
 234  693.3984
 235  708.6832
 236  656.4972
 237  602.611
 238  591.9374
 239  704.7119
 240  741.0981
 241  764.0843
 242  723.0941
 243  691.6152
 244  644.5096
 245  587.4296
 246  558.0747
 247  571.2977
 248  631.6352
 249  710.8188
 250  778.8092
 251  746.3196
 252  684.2325
 253  718.0694
 254  731.5734
 255  751.8669
 256  721.6362
 257  768.5073
 258  706.5777
 259  740.988
 260  740.2974
 261  727.7057
 262  788.338
 263  709.915
 264  695.2486
 265  682.3694
 266  810.705
 267  946.998
 268  852.8654
 269  731.4305
 270  674.6723
 271  695.953
 272  700.9355
 273  752.8082
 274  819.4023
 275  838.5689
 276  699.0432
 277  678.5662
 278  630.0212
 279  652.1497
 280  710.3143
 281  767.0089
 282  753.0455
 283  670.1548
 284  731.5146
 285  607.6577
 286  542.8983
 287  641.1409
 288  694.2816
 289  718.8202
 290  781.4996
 291  677.5544
 292  688.2226
 293  685.7166
 294  669.1845
 295  722.7568
 296  765.6495
 297  750.4657
 298  752.7464
 299  735.3378
 300  692.1536
 301  667.3596
 302  603.9604
 303  619.0389
 304  787.8468
 305  864.6371
 306  854.8252
 307  882.4692
 308  818.3712
 309  726.4149
 310  628.2012
 311  609.6247
 312  713.2001
 313  783.7049
 314  741.9926
 315  665.0416
 316  669.5654
 317  873.6121
 318  782.1508
 319  601.6736
 320  507.3793
 321  555.8131
 322  699.3929
 323  776.5657
 324  704.9129
 325  750.1519
 326  643.7982
 327  672.1386
 328  765.3649
 329  879.6985
 330  825.2894
 331  750.6817
 332  788.4227
 333  786.9358
 334  620.2478
 335  572.6166
 336  703.9587
 337  798.2345
 338  823.1793
 339  825.598
 340  811.6125
 341  841.7429
 342  847.5785
 343  800.3904
 344  831.1913
 345  799.0828
 346  694.0634
 347  785.5445
 348  861.7629
 349  944.087
 350  979.3773
 351  874.4866
 352  779.5425
 353  794.5026
 354  836.6099
 355  789.8605
 356  750.1024
 357  834.8149
 358  834.2398
 359  836.2833
 360  874.744
 361  791.7276
 362  708.518
 363  749.7257
 364  791.3209
 365  730.999
 366  779.0269
 367  722.1688
 368  639.801
 369  633.6989
 370  746.8776
 371  839.9798
 372  840.5306
 373  865.6087
 374  779.4444
 375  715.8489
 376  684.7237
 377  727.0071
 378  684.5795
 379  711.39
 380  789.3442
 381  577.1453
 382  589.3686
 383  763.6763
 384  742.1066
 385  691.0347
 386  752.3073
 387  810.5148
 388  835.1465
 389  822.3479
 390  756.5216
 391  626.3528
 392  691.2891
 393  726.1801
 394  673.7773
 395  687.3577
 396  689.2211
 397  599.5257
 398  590.9337
 399  660.374
 400  645.7676
 401  670.2797
 402  661.6523
 403  667.0824
 404  663.5711
 405  777.199
 406  741.2531
 407  714.9011
 408  660.6653
 409  575.3016
 410  610.24
 411  595.013
 412  648.5525
 413  666.4475
 414  664.8831
 415  677.8553
 416  598.1647
 417  531.9753
 418  598.1528
 419  603.2275
 420  711.196
 421  800.4785
 422  750.5256
 423  631.6782
 424  756.2839
 425  738.1426
 426  632.3632
 427  575.0068
 428  606.3302
 429  615.3878
 430  705.7456
 431  684.0894
 432  783.4463
 433  810.3203
 434  693.6946
 435  756.3682
 436  804.4669
 437  841.4783
 438  761.6158
 439  712.3177
 440  805.0312
 441  766.6594
 442  688.538
 443  680.215
 444  787.1112
 445  844.6239
 446  854.1132
 447  863.3173
 448  810.0802
 449  770.98
 450  793.0395
 451  760.2003
 452  846.8041
 453  844.4257
 454  953.2605
 455  951.9559
 456  911.1136
 457  959.311
 458  906.957
 459  749.8603
 460  725.752
 461  683.2475
 462  816.2986
 463  867.1416
 464  780.1268
 465  841.7103
 466  918.0971
 467  744.213
 468  677.9833
 469  634.6571
 470  699.1976
 471  701.5223
 472  837.4264
 473  883.1994
 474  843.1415
 475  672.2447
 476  692.6426
 477  829.9138
 478  757.2722
 479  737.6759
 480  781.5473
 481  772.3036
 482  749.6646
 483  829.1821
 484  776.9625
 485  793.24
 486  958.2256
 487  957.1933
 488  941.5719
 489  938.1474
 490  853.7057
 491  825.1915
 492  706.3364
 493  745.6476
 494  668.8805
 495  787.2552
 496  810.0088
 497  703.2545
 498  739.2949
 499  830.1718
 500  756.1415
 501  718.3607
 502  685.5518
 503  645.0425
 504  760.4542
 505  753.4072
 506  747.3071
 507  661.8817
 508  699.2014
 509  574.8109
 510  501.5908
 511  640.9249
