# Input file       =  1209962704.113044_cleaned.dat
# Candidate        =  PSR_0332+5434
# Telescope        =  AR
# Epoch_topo       =  58248.198184178749
# Epoch_bary       =  N/A
# T_sample         =  0.002
# Data Folded      =  7143424
# Data Avg         =  0.316235252791683
# Data StdDev      =  6.15609670215258 
# Profile Bins     =  256
# Profile Avg      =  8824.59307234178 
# Profile StdDev   =  1028.34458350346 
# Reduced chi-sqr  =  1.526
# Prob(Noise)      <  1.21e-07   (~5.2 sigma)
# P_topo (ms)      =  714.538206666581  +/- 5.56e-05
# P'_topo (s/s)    =  -0                +/- 3.01e-11
# P''_topo (s/s^2) =  0                 +/- 1.37e-14
# P_bary (ms)      =  N/A
# P'_bary (s/s)    =  N/A
# P''_bary (s/s^2) =  N/A
# P_orb (s)        =  N/A
# asin(i)/c (s)    =  N/A
# eccentricity     =  N/A
# w (rad)          =  N/A
# T_peri           =  N/A
######################################################
   0  7935.158
   1  9031.901
   2  9983.763
   3  9844.529
   4  8061.197
   5  7250.515
   6  7340.771
   7  9465.929
   8  9125.643
   9  8868.104
  10  8939.146
  11  10836.49
  12  9363.735
  13  7832.576
  14  6226.025
  15  8337.19
  16  9225.003
  17  8767.044
  18  8337.674
  19  9783.041
  20  8887.758
  21  8097.833
  22  7221.31
  23  7960.461
  24  8997.831
  25  9492.316
  26  9502.29
  27  9343.778
  28  9800.141
  29  8557.308
  30  6982.572
  31  7797.235
  32  9610.048
  33  8135.331
  34  9125.539
  35  10117.79
  36  10167.78
  37  8495.577
  38  8697.706
  39  8858.216
  40  8581.965
  41  8071.92
  42  9731.541
  43  10146.47
  44  10885
  45  8799.912
  46  7634.149
  47  7141.035
  48  9632.929
  49  8999.101
  50  8783.82
  51  8914.038
  52  10315.92
  53  9878.038
  54  8364.984
  55  6594.846
  56  7259.341
  57  8673.879
  58  9099.673
  59  8627.037
  60  9760.6
  61  9493.729
  62  8015.373
  63  7211.075
  64  6643.535
  65  8615.16
  66  8366.114
  67  8259.414
  68  8836.678
  69  9766.516
  70  7971.651
  71  7536.918
  72  6925.518
  73  8534.672
  74  8068.295
  75  8939.994
  76  8717.314
  77  10039.63
  78  8113.886
  79  8042.68
  80  7803.026
  81  9141.893
  82  8727.553
  83  8904.273
  84  9858.507
  85  10400.5
  86  9297.21
  87  7954.187
  88  7305.095
  89  7733.437
  90  9700.935
  91  8676.438
  92  9279.811
  93  9778.997
  94  10042.67
  95  7935.879
  96  7320.077
  97  7464.847
  98  8707.912
  99  7824.835
 100  8952.381
 101  9100.37
 102  9391.645
 103  8262.166
 104  7692.998
 105  6673.085
 106  8099.011
 107  8728.599
 108  8859.985
 109  8715.783
 110  9967.888
 111  8500.264
 112  7852.888
 113  7832.984
 114  8453.396
 115  7881.392
 116  8207.509
 117  8313.282
 118  9340.109
 119  8797.824
 120  7734.09
 121  6850.434
 122  7728.815
 123  8670.766
 124  8906.181
 125  8777.979
 126  9154.682
 127  9514.912
 128  7602.791
 129  7162.597
 130  7177.029
 131  9068.826
 132  8779.925
 133  9373.537
 134  9349.615
 135  10148
 136  8980.322
 137  7116.54
 138  6687.39
 139  9445.08
 140  9294.228
 141  8913.152
 142  9018.7
 143  10264.44
 144  9042.42
 145  8966.312
 146  7924.5
 147  8800.021
 148  10252.48
 149  13022.2
 150  14094.18
 151  12632.68
 152  9829.551
 153  8404.016
 154  8621.46
 155  8595.612
 156  8596.78
 157  9549.642
 158  10402.32
 159  10437.14
 160  9651.803
 161  8590.456
 162  8069.137
 163  7696.944
 164  9289.747
 165  9273.056
 166  9416.589
 167  8943.105
 168  10247.32
 169  8856.711
 170  7388.568
 171  6918.657
 172  9551.69
 173  8988.464
 174  8730.302
 175  9062.647
 176  11106.99
 177  9232.49
 178  7391.768
 179  6674.729
 180  8604.867
 181  9176.493
 182  8663.952
 183  8392.962
 184  10515.93
 185  10011.86
 186  8499.067
 187  6770.15
 188  7174.188
 189  8937.266
 190  8216.604
 191  9218.369
 192  9887.925
 193  9531.796
 194  9284.446
 195  8632.465
 196  7102.242
 197  8583.318
 198  9796.753
 199  9754.082
 200  9144.885
 201  9765.076
 202  7836.585
 203  8771.73
 204  8366.42
 205  9163.979
 206  8669.41
 207  9305.46
 208  10096.83
 209  10931.74
 210  8516.745
 211  7116.197
 212  7163.454
 213  9976.25
 214  8941.021
 215  9179.506
 216  8968.259
 217  10921.9
 218  10091.23
 219  7993.023
 220  7670.534
 221  7906.78
 222  9981.273
 223  8722.432
 224  8972.75
 225  10055.27
 226  10147.85
 227  8751.474
 228  8427.495
 229  6863.908
 230  9603.619
 231  10155.51
 232  9609.216
 233  9685.722
 234  10293.17
 235  9303.912
 236  9141.34
 237  7581.225
 238  8424.67
 239  9129.603
 240  10055.5
 241  8232.924
 242  10232.03
 243  9594.257
 244  8385.51
 245  8049.778
 246  8864.819
 247  8882.179
 248  8191.193
 249  9515.569
 250  11369
 251  9253.652
 252  7226.925
 253  7416.112
 254  8780.516
 255  9090.935
