# Input file       =  1209962704.113044_cleaned.dat
# Candidate        =  PSR_0332+5434
# Telescope        =  AR
# Epoch_topo       =  58248.198184178749
# Epoch_bary       =  N/A
# T_sample         =  0.002
# Data Folded      =  7143424
# Data Avg         =  0.316235252791683
# Data StdDev      =  6.15609670215258 
# Profile Bins     =  1024
# Profile Avg      =  2206.14826826443 
# Profile StdDev   =  514.172291751731 
# Reduced chi-sqr  =  1.156
# Prob(Noise)      <  0.000361   (~3.4 sigma)
# P_topo (ms)      =  714.538206816222  +/- 4.66e-05
# P'_topo (s/s)    =  -0                +/- 2.52e-11
# P''_topo (s/s^2) =  0                 +/- 1.15e-14
# P_bary (ms)      =  N/A
# P'_bary (s/s)    =  N/A
# P''_bary (s/s^2) =  N/A
# P_orb (s)        =  N/A
# asin(i)/c (s)    =  N/A
# eccentricity     =  N/A
# w (rad)          =  N/A
# T_peri           =  N/A
######################################################
   0  1800.174
   1  2047.443
   2  2114.031
   3  2062.72
   4  2240.599
   5  2384.506
   6  2310.727
   7  2095.394
   8  2457.159
   9  2681.884
  10  2523.914
  11  2610.296
  12  2628.608
  13  2431.562
  14  2351.539
  15  2175.83
  16  2164.032
  17  1869.199
  18  1912.095
  19  2042.485
  20  1858.043
  21  1827.483
  22  1743.182
  23  1698.717
  24  1847.586
  25  1657.652
  26  1956.334
  27  2061.565
  28  2338.896
  29  2415.88
  30  2375.304
  31  2470.593
  32  2262.536
  33  2316.768
  34  2299.123
  35  2021.472
  36  2118.476
  37  2348.227
  38  2321.903
  39  2140.942
  40  2117.552
  41  2425.864
  42  2233.169
  43  2354.352
  44  2765.382
  45  2728.448
  46  2769.81
  47  2638.154
  48  2480.983
  49  2225.859
  50  2183.275
  51  2424.578
  52  2182.558
  53  1852.095
  54  1775.534
  55  1541.575
  56  1638.588
  57  1458.851
  58  1529.193
  59  1653.443
  60  1886.266
  61  2242.957
  62  2224.182
  63  2415.351
  64  2436.583
  65  2120.302
  66  2341.437
  67  2137.793
  68  2204.083
  69  2120.763
  70  2243.219
  71  2232.924
  72  2035.31
  73  2117.044
  74  2081.098
  75  2069.054
  76  2406.666
  77  2565.557
  78  2522.745
  79  2423.205
  80  2313.755
  81  2254.943
  82  2094.884
  83  2106.986
  84  1993.052
  85  1937.99
  86  2024.176
  87  2034.039
  88  1940.837
  89  1861.013
  90  1597.641
  91  1746.052
  92  1865.396
  93  2056.7
  94  2080.69
  95  2184.265
  96  2251.062
  97  2206.849
  98  2221.06
  99  2350.673
 100  2264.771
 101  2297.062
 102  2515.134
 103  2475.116
 104  2312.233
 105  2308.949
 106  2468.179
 107  2298.466
 108  2183.191
 109  2426.47
 110  2409.702
 111  2489.479
 112  2570.158
 113  2534.512
 114  2309.092
 115  2244.488
 116  2309.139
 117  2140.113
 118  1991.421
 119  1974.988
 120  1938.658
 121  1737.586
 122  1569.772
 123  1552.786
 124  1734.032
 125  2009.751
 126  2127.906
 127  2329.196
 128  2519.153
 129  2545.182
 130  2269.763
 131  2226.24
 132  2001.542
 133  1818.18
 134  2030.248
 135  2297.908
 136  2212.216
 137  2128.259
 138  2378.618
 139  2513.626
 140  2311.523
 141  2425.589
 142  2687.385
 143  2808.375
 144  2764.312
 145  2639.047
 146  2319.666
 147  2146.6
 148  2119.915
 149  2185.419
 150  2120.175
 151  2078.627
 152  2210.786
 153  2134.508
 154  2206.24
 155  2059.734
 156  2126.748
 157  2349.976
 158  2261.503
 159  2211.398
 160  2077.718
 161  2204.322
 162  2175.138
 163  2051.494
 164  2075.517
 165  1910.142
 166  1967.61
 167  2300.189
 168  2425.636
 169  2327.553
 170  2513.624
 171  2598.428
 172  2525.794
 173  2301.598
 174  2583.181
 175  2792.882
 176  2768.897
 177  2910.914
 178  2599.295
 179  2461.338
 180  2362.165
 181  2222.594
 182  2047.688
 183  1875.317
 184  2068.595
 185  1942.372
 186  1723.821
 187  1812.277
 188  1649.094
 189  1772.347
 190  1879.388
 191  2002.972
 192  2173.752
 193  2383.859
 194  2696.045
 195  2589.228
 196  2420.642
 197  2198.572
 198  2025.542
 199  2271.447
 200  2259.147
 201  2077.176
 202  2142.773
 203  2291.113
 204  2350.138
 205  2077.033
 206  2170.413
 207  2347.344
 208  2401.432
 209  2610.246
 210  2822.857
 211  2590.932
 212  2565.449
 213  2463.708
 214  2431.107
 215  2151.242
 216  2089.328
 217  2228.76
 218  2038.622
 219  1979.342
 220  1776.512
 221  1572.572
 222  1560.986
 223  1377.338
 224  1602.797
 225  1705.651
 226  2127.125
 227  2289.382
 228  2174.987
 229  2179.661
 230  2126.652
 231  2203.067
 232  2378.401
 233  2213.445
 234  2212.306
 235  2316.156
 236  2257.26
 237  2127.646
 238  1943.536
 239  2280.784
 240  2280.996
 241  2447.667
 242  2601.108
 243  2520.583
 244  2408.531
 245  2439.497
 246  2334.326
 247  2042.693
 248  1941.447
 249  2078.393
 250  2097.805
 251  1866.564
 252  1854.379
 253  1705.184
 254  1791.767
 255  1750.427
 256  1552.542
 257  1518.021
 258  1764.76
 259  1997.824
 260  2002.064
 261  2121.633
 262  2306.406
 263  2234.795
 264  2258.975
 265  2139.925
 266  1906.291
 267  1999.567
 268  2259.748
 269  2201.246
 270  1862.356
 271  1895.303
 272  2154.881
 273  2129.984
 274  2299.795
 275  2513.51
 276  2612.514
 277  2521.672
 278  2325.934
 279  2077.438
 280  1817.514
 281  2038.499
 282  2108.768
 283  1915.55
 284  1814.861
 285  1925.538
 286  1960.87
 287  1816.993
 288  1609.612
 289  1629.154
 290  1804.172
 291  1930.484
 292  2009.383
 293  2075.706
 294  2339.87
 295  2246.983
 296  2029.312
 297  1975.14
 298  1979.414
 299  2022.105
 300  2256.511
 301  2326.609
 302  2214.148
 303  2202.936
 304  2241.757
 305  2197.207
 306  2038.382
 307  2376.915
 308  2553.185
 309  2557.206
 310  2534.527
 311  2272.557
 312  2095.178
 313  1960.208
 314  1960.999
 315  1946.935
 316  1839.762
 317  2077.192
 318  2119.85
 319  2082.003
 320  1974.481
 321  1832.499
 322  1900.511
 323  2170.557
 324  2240.284
 325  2312.563
 326  2295.738
 327  2401.866
 328  2278.406
 329  2125.385
 330  2118.606
 331  1984.981
 332  2161.579
 333  2340.16
 334  2262.991
 335  2348.611
 336  2494.691
 337  2646.256
 338  2361.833
 339  2374.661
 340  2607.438
 341  2603.797
 342  2610.414
 343  2615.689
 344  2351.984
 345  2244.039
 346  2294.707
 347  2297.561
 348  1960.758
 349  1802.238
 350  2052.107
 351  1954.177
 352  1901.326
 353  1820.09
 354  1747.429
 355  1739.995
 356  1703.932
 357  1937.047
 358  2096.366
 359  2395.358
 360  2524.644
 361  2413.738
 362  2407.902
 363  2113.192
 364  1966.217
 365  2256.657
 366  2349.939
 367  2116.023
 368  2160.5
 369  2405.957
 370  2533.951
 371  2244.634
 372  2409.465
 373  2460.13
 374  2493.317
 375  2743.45
 376  2755.163
 377  2479.959
 378  2327.223
 379  2158.778
 380  2118.412
 381  1795.348
 382  1880.688
 383  2076.126
 384  1935.522
 385  1952.047
 386  1572.768
 387  1690.138
 388  1756.82
 389  1850.476
 390  1968.508
 391  2088.102
 392  2226.416
 393  2280.179
 394  2083.526
 395  2022.813
 396  1768.479
 397  1942.761
 398  2147.756
 399  1983.156
 400  2047.556
 401  2290.749
 402  2483.111
 403  2150.611
 404  2168.912
 405  2378.265
 406  2406.291
 407  2351.803
 408  2465.232
 409  2311.151
 410  2240.848
 411  2347.44
 412  2231.259
 413  1988.576
 414  1839.9
 415  2048.046
 416  2072.269
 417  1908.361
 418  1858.042
 419  1664.112
 420  1792.582
 421  1634.529
 422  1601.445
 423  1621.867
 424  1934.412
 425  2187.633
 426  2105.719
 427  2147.834
 428  2098.631
 429  2091.019
 430  2315.96
 431  2187.772
 432  2092.764
 433  2196.245
 434  2332.902
 435  2274.824
 436  2029.887
 437  2182.19
 438  2301.313
 439  2256.048
 440  2494.99
 441  2556.899
 442  2501.429
 443  2451.408
 444  2387.304
 445  2159.437
 446  1837.933
 447  1907.469
 448  2043.194
 449  1942.814
 450  1947.711
 451  1873.488
 452  1961.839
 453  2046.731
 454  1954.409
 455  1875.361
 456  1887.371
 457  2129.919
 458  2344.672
 459  2251.611
 460  2029.529
 461  1867.836
 462  1839.064
 463  2007.639
 464  1839.605
 465  2001.063
 466  2264.021
 467  2200.772
 468  2051.403
 469  1954.08
 470  2182.149
 471  2037.809
 472  2161.024
 473  2497.789
 474  2544.03
 475  2365.567
 476  2396.374
 477  2187.714
 478  2078.46
 479  1866.647
 480  2072.087
 481  1961.963
 482  1852.777
 483  1815.76
 484  1777.168
 485  1742.384
 486  1641.615
 487  1557.341
 488  1648.939
 489  1929.7
 490  2216.034
 491  2271.806
 492  2122.969
 493  2104.831
 494  2162.459
 495  2335.101
 496  2223.207
 497  2054.566
 498  2240.391
 499  2418.248
 500  2228.633
 501  2111.544
 502  2094.389
 503  2302.094
 504  2102.393
 505  2340.073
 506  2429.184
 507  2326.322
 508  2558.313
 509  2556.94
 510  2230.406
 511  1918.697
 512  1958.255
 513  2091.657
 514  1744.702
 515  1792.227
 516  1924.971
 517  1758.729
 518  1725.027
 519  1592.228
 520  1661.306
 521  1739.866
 522  1915.28
 523  2216.655
 524  2272.35
 525  2317.195
 526  2308.248
 527  2150.93
 528  2276.938
 529  2052.711
 530  2174.892
 531  2437.839
 532  2302.183
 533  2193.96
 534  2364.598
 535  2521.89
 536  2321.625
 537  2050.005
 538  2445.677
 539  2474.817
 540  2444.618
 541  2721.37
 542  2536.825
 543  2430.675
 544  2343.768
 545  2366.609
 546  2180.849
 547  1761.167
 548  1898.247
 549  1840.656
 550  1655.503
 551  1609.127
 552  1432.413
 553  1717.177
 554  1771.437
 555  2101.521
 556  2257.636
 557  2396.913
 558  2470.284
 559  2478.333
 560  2514.132
 561  2302.952
 562  2106.885
 563  2258.427
 564  2262.946
 565  2155.842
 566  2188.007
 567  2306.576
 568  2259.924
 569  2012.307
 570  2326.886
 571  2508.73
 572  2463.115
 573  2632.493
 574  2712.868
 575  2378.088
 576  2247.879
 577  2242.812
 578  2339.419
 579  2066.489
 580  2201.179
 581  2471.816
 582  2225.682
 583  2139.871
 584  1946.834
 585  1974.817
 586  1965.477
 587  1898.51
 588  2090.01
 589  2120.877
 590  2374.862
 591  2492.533
 592  2535.021
 593  2653.169
 594  2557.816
 595  2704.413
 596  3212.852
 597  3293.072
 598  3378.733
 599  3490.545
 600  3730.186
 601  3556.861
 602  3314.171
 603  3501.323
 604  3316.052
 605  3035.14
 606  3062.418
 607  2854.089
 608  2559.729
 609  2356.286
 610  2322.922
 611  2244.047
 612  1938.404
 613  2131.847
 614  2191.371
 615  2129.734
 616  2191.093
 617  2115.178
 618  2189.656
 619  2062.682
 620  2123.998
 621  2130.926
 622  2220.261
 623  2205.748
 624  2186.411
 625  2148.438
 626  2164.939
 627  2035.447
 628  2356.589
 629  2471.781
 630  2486.466
 631  2511.642
 632  2741.818
 633  2696.988
 634  2460.35
 635  2512.821
 636  2730.953
 637  2553.399
 638  2540.506
 639  2633.077
 640  2563.94
 641  2363.143
 642  2271.422
 643  2189.277
 644  1995.69
 645  2019.058
 646  2356.296
 647  2229.741
 648  2090.322
 649  1948.465
 650  1947.945
 651  2039.333
 652  1828.355
 653  1897.325
 654  1913.355
 655  2072.022
 656  2255.744
 657  2384.488
 658  2440.973
 659  2302.521
 660  2213.829
 661  2518.904
 662  2281.733
 663  2204.096
 664  2356.094
 665  2451.517
 666  2376.214
 667  2288.553
 668  2357.337
 669  2213.865
 670  2030.167
 671  2534.999
 672  2645.021
 673  2492.675
 674  2520.189
 675  2494.506
 676  2377.401
 677  2018.243
 678  2118.655
 679  2172.343
 680  1843.922
 681  1832.603
 682  1789.616
 683  1677.22
 684  1635.822
 685  1560.179
 686  1886.844
 687  2080.817
 688  2253.154
 689  2515.067
 690  2459.126
 691  2456.324
 692  2171.994
 693  2267.447
 694  2312.72
 695  2084.431
 696  2131.06
 697  2325.59
 698  2147.367
 699  2126.427
 700  2179.369
 701  2423.825
 702  2253.25
 703  2416.296
 704  2810.7
 705  2748.479
 706  2817.872
 707  2899.272
 708  2536.033
 709  2187.913
 710  2010.099
 711  2203.987
 712  1951.655
 713  1634.001
 714  1791.458
 715  1781.86
 716  1904.622
 717  1564.879
 718  1468.051
 719  1733.029
 720  2005.824
 721  2259.218
 722  2305.964
 723  2281.311
 724  2358.116
 725  2139.456
 726  2373.421
 727  2250.128
 728  2050.839
 729  2254.02
 730  2184.761
 731  2148.207
 732  1935.138
 733  2115.953
 734  2237.214
 735  2158.583
 736  2548.931
 737  2747.786
 738  2672.971
 739  2884.829
 740  2729.599
 741  2460.905
 742  2258.952
 743  2263.182
 744  2396.439
 745  1941.037
 746  2012.934
 747  1940.456
 748  1727.76
 749  1742.738
 750  1506.813
 751  1771.804
 752  1729.949
 753  1677.665
 754  1884.701
 755  1995.215
 756  2245.312
 757  2201.788
 758  2265.129
 759  2297.942
 760  1948.153
 761  1996.168
 762  2118.812
 763  2083.626
 764  2053.504
 765  2304.408
 766  2559.176
 767  2385.173
 768  2358.082
 769  2674.844
 770  2521.492
 771  2434.794
 772  2495.197
 773  2477.642
 774  2297.146
 775  2121.294
 776  2371.304
 777  2339.734
 778  2313.57
 779  2390.747
 780  2363.549
 781  2264.912
 782  1916.299
 783  1717.459
 784  1704.888
 785  1752.594
 786  1850.688
 787  1951.85
 788  2105.351
 789  2146.585
 790  2149.343
 791  2427.803
 792  2452.055
 793  2322.031
 794  2507.023
 795  2497.497
 796  2307.52
 797  2329.378
 798  2554.032
 799  2579.367
 800  2123.567
 801  2213.176
 802  2379.479
 803  2443.992
 804  2685.15
 805  2579.48
 806  2238.973
 807  1985.776
 808  1971.963
 809  2040.102
 810  1826.336
 811  2098.7
 812  2271.387
 813  2200.869
 814  2184.712
 815  2030.833
 816  2051.625
 817  2072.703
 818  2142.784
 819  2191.577
 820  2152.413
 821  2283.924
 822  2418.294
 823  2430.096
 824  2359.269
 825  2086.031
 826  1951.42
 827  2106.242
 828  2050.143
 829  2205.693
 830  2606.373
 831  2758.512
 832  2483.996
 833  2283.328
 834  2642.944
 835  2631.168
 836  2634.739
 837  2829.157
 838  2847.169
 839  2643.562
 840  2411.528
 841  2091.898
 842  1874.771
 843  1633.881
 844  1875.852
 845  1830.837
 846  1736.683
 847  1697.54
 848  1636.422
 849  1799.594
 850  1881.662
 851  2076.549
 852  2455.334
 853  2664.338
 854  2574.134
 855  2340.024
 856  2227.814
 857  2352.149
 858  2085.789
 859  2331.399
 860  2224.445
 861  2180.507
 862  2320.478
 863  2482.26
 864  2280.098
 865  1988.931
 866  2209.344
 867  2540.733
 868  2551.439
 869  2737.587
 870  2958.811
 871  2706.439
 872  2746.607
 873  2600.111
 874  2384.113
 875  2027.302
 876  1896.499
 877  2186.802
 878  1956.983
 879  2007.811
 880  1912.051
 881  1856.999
 882  1972.606
 883  1707.337
 884  1797.137
 885  1856.885
 886  2196.615
 887  2539.329
 888  2635.375
 889  2656.422
 890  2347.814
 891  2146.154
 892  2339.229
 893  2098.814
 894  2074.534
 895  2254.78
 896  2279.246
 897  2153.858
 898  2197.583
 899  2485.618
 900  2506.357
 901  2283.646
 902  2649.794
 903  2651.425
 904  2571.163
 905  2634.623
 906  2415.044
 907  2307.515
 908  1990.62
 909  2235.055
 910  2306.596
 911  2229.825
 912  2281.906
 913  2114.622
 914  1970.987
 915  1776.126
 916  1527.028
 917  1733.143
 918  1814.521
 919  1982.89
 920  2114.914
 921  2379.265
 922  2767.78
 923  2646.51
 924  2702.297
 925  2512.245
 926  2383.323
 927  2513.901
 928  2544.22
 929  2399.172
 930  2219.196
 931  2387.831
 932  2497.409
 933  2221.025
 934  2418.317
 935  2652.7
 936  2578.496
 937  2532.687
 938  2599.494
 939  2479.863
 940  2263.198
 941  2250.279
 942  2439.259
 943  2211.367
 944  2242.326
 945  2375.178
 946  2327.157
 947  2234.032
 948  1775.265
 949  1823.046
 950  1837.087
 951  2013.976
 952  2049.15
 953  2143.057
 954  2166.908
 955  2109.531
 956  2020.23
 957  2473.496
 958  2396.423
 959  2503.59
 960  2614.19
 961  2621.831
 962  2383.731
 963  2263.125
 964  2247.705
 965  2028.58
 966  1814.222
 967  2150.423
 968  2408.23
 969  2505.1
 970  2800.017
 971  2712.359
 972  2548.986
 973  2268.51
 974  2320.46
 975  2223.628
 976  2014.74
 977  2122.785
 978  2108.476
 979  2053.13
 980  1973.651
 981  1985.523
 982  2034.951
 983  2059.573
 984  2121.174
 985  2220.732
 986  2346.755
 987  2321.476
 988  2286.022
 989  2248.759
 990  2235.769
 991  1871.981
 992  2001.42
 993  2114.707
 994  2145.961
 995  2094.074
 996  2397.98
 997  2499.126
 998  2355.532
 999  2496.346
1000  2831.442
1001  2830.957
1002  2876.168
1003  3011.012
1004  2595.946
1005  2187.991
1006  1969.782
1007  2023.808
1008  1763.672
1009  1614.006
1010  1864.442
1011  1857.465
1012  1851.12
1013  1771.924
1014  1890.255
1015  2104.073
1016  2088.999
1017  2163.075
1018  2244.969
1019  2337.656
1020  2344.537
1021  2268.252
1022  2268.062
1023  2015.611
