# Input file       =  1209891182.120269_cleaned.dat
# Candidate        =  PSR_0332+5434
# Telescope        =  AR
# Epoch_topo       =  58247.370383336449
# Epoch_bary       =  N/A
# T_sample         =  0.002
# Data Folded      =  7340032
# Data Avg         =  0.315168839812809
# Data StdDev      =  4.22253336127032 
# Profile Bins     =  1024
# Profile Avg      =  2260.6380174222  
# Profile StdDev   =  357.496741651037 
# Reduced chi-sqr  =  1.085
# Prob(Noise)      <  0.0304   (~1.9 sigma)
# P_topo (ms)      =  714.539005865675  +/- 0.000596
# P'_topo (s/s)    =  -0                +/- 3.14e-10
# P''_topo (s/s^2) =  0                 +/- 1.39e-13
# P_bary (ms)      =  N/A
# P'_bary (s/s)    =  N/A
# P''_bary (s/s^2) =  N/A
# P_orb (s)        =  N/A
# asin(i)/c (s)    =  N/A
# eccentricity     =  N/A
# w (rad)          =  N/A
# T_peri           =  N/A
######################################################
   0  2394.307
   1  2292.906
   2  2368.336
   3  2434.844
   4  2393.3
   5  2308.226
   6  2281.296
   7  2347.92
   8  2426.789
   9  2486.482
  10  2455.676
  11  2401.143
  12  2400.224
  13  2366.908
  14  2360.627
  15  2232.991
  16  2242.135
  17  2238.972
  18  2285.132
  19  2389.027
  20  2525.447
  21  2536.266
  22  2554.803
  23  2477.666
  24  2266.833
  25  2175.881
  26  2314.437
  27  2474.181
  28  2468.451
  29  2431.281
  30  2410.474
  31  2452.782
  32  2417.574
  33  2405.427
  34  2347.288
  35  2373.842
  36  2453.308
  37  2562.77
  38  2532.672
  39  2387.686
  40  2193.688
  41  2311.901
  42  2329.969
  43  2374.62
  44  2271.227
  45  2317.429
  46  2268.048
  47  2305.725
  48  2358.543
  49  2346.323
  50  2262.414
  51  2174.879
  52  2195.424
  53  2224.25
  54  2287.45
  55  2346.656
  56  2353.586
  57  2324.588
  58  2210.817
  59  2151.572
  60  1997.828
  61  1982.613
  62  1981.501
  63  2071.9
  64  2109.155
  65  2137.966
  66  2107.526
  67  2078.109
  68  2107.903
  69  2213.333
  70  2249.186
  71  2282.311
  72  2235.848
  73  2202.098
  74  2120.985
  75  2035.7
  76  2012.358
  77  2139.418
  78  2221.256
  79  2254.981
  80  2214.161
  81  2135.751
  82  2143.812
  83  2196.084
  84  2295.152
  85  2282.31
  86  2303.897
  87  2143.551
  88  2178.032
  89  2130.992
  90  2160.32
  91  2196.146
  92  2248.631
  93  2267.433
  94  2226.677
  95  2269.935
  96  2241.033
  97  2236.663
  98  2134.691
  99  2106.195
 100  2036.309
 101  2032.171
 102  2096.858
 103  2207.531
 104  2144.491
 105  2138.976
 106  2018.626
 107  1942.728
 108  1872.589
 109  2054.635
 110  2065.368
 111  2007.018
 112  1950.389
 113  2013.392
 114  2047.415
 115  2078.272
 116  2109.058
 117  2223.11
 118  2195.694
 119  2247.651
 120  2187.406
 121  2105.406
 122  1903.793
 123  1912.695
 124  1985.976
 125  2008.572
 126  1989.731
 127  2151.825
 128  2236.476
 129  2237.061
 130  2277.79
 131  2208.339
 132  2071.4
 133  1962.295
 134  2071.252
 135  2071.793
 136  1924.612
 137  1896.157
 138  1976.798
 139  2071.309
 140  2089.328
 141  2039.998
 142  1996.66
 143  1995.049
 144  1984.258
 145  2035.618
 146  2032.799
 147  1986.932
 148  1875.487
 149  1873.668
 150  1847.227
 151  1883.239
 152  1825.859
 153  1916.772
 154  1933.957
 155  1965.495
 156  1997.79
 157  1963.17
 158  1957.412
 159  2000.142
 160  2038.433
 161  2111.531
 162  2073.115
 163  2093.667
 164  2104.279
 165  2160.834
 166  2139.17
 167  2144.121
 168  2050.981
 169  2029.31
 170  1979.125
 171  2029.777
 172  2028.048
 173  2065.639
 174  1991.766
 175  1959.807
 176  1935.209
 177  1855.471
 178  1835.421
 179  1883.417
 180  1919.594
 181  1868.148
 182  1747.206
 183  1813.387
 184  1839.213
 185  1873.922
 186  1901.012
 187  1902.523
 188  1839.922
 189  1798.547
 190  1757.497
 191  1782.861
 192  1831.998
 193  1883.382
 194  1824.887
 195  1770.806
 196  1691.353
 197  1767.939
 198  1767.651
 199  1919.578
 200  1886.035
 201  1901.739
 202  1886.147
 203  1938.359
 204  1964.358
 205  1966.649
 206  2034.787
 207  2121.35
 208  2123.553
 209  2046.195
 210  2013.623
 211  2037.532
 212  2119.249
 213  2152.209
 214  2100.747
 215  2086.681
 216  2136.337
 217  2238.137
 218  2319.563
 219  2199.894
 220  2153.422
 221  2082.962
 222  2132.161
 223  2159.661
 224  2150.132
 225  1994.878
 226  1870.309
 227  1932.988
 228  2055.442
 229  2036.736
 230  2038.885
 231  1996.021
 232  2086.105
 233  2040.084
 234  2028.941
 235  2092.2
 236  2159.008
 237  2240.366
 238  2232.897
 239  2185.769
 240  2185.842
 241  2113.646
 242  2121.769
 243  2053.421
 244  2074.85
 245  2049.845
 246  2049.505
 247  2040.578
 248  2179.792
 249  2307.293
 250  2306.211
 251  2281.224
 252  2238.419
 253  2278.823
 254  2191.799
 255  2136.114
 256  2149.145
 257  2221.227
 258  2211.562
 259  2090.27
 260  1945.527
 261  1926.045
 262  2133.567
 263  2258.712
 264  2283.883
 265  2139.213
 266  2113.994
 267  2173.727
 268  2221.944
 269  2140.374
 270  2068.799
 271  2061.327
 272  2167.105
 273  2026.591
 274  1895.082
 275  1965.194
 276  2065.793
 277  2144.279
 278  2128.374
 279  2116.451
 280  2105.854
 281  2069.902
 282  2081.018
 283  2103.542
 284  2159.729
 285  2153.768
 286  2218.074
 287  2188.24
 288  2184.127
 289  2139.309
 290  2053.071
 291  2024.777
 292  2095.129
 293  2323.841
 294  2428.535
 295  2356.48
 296  2316.532
 297  2222.684
 298  2183.683
 299  2043.245
 300  2059.401
 301  1997.169
 302  2025.653
 303  2072.324
 304  2118.262
 305  2082.038
 306  2001.016
 307  2099.686
 308  2066.092
 309  2053.26
 310  1992.351
 311  2080.651
 312  2142.048
 313  2174.999
 314  2203.058
 315  2222.971
 316  2185.137
 317  2064.515
 318  2039.511
 319  2056.715
 320  2131.818
 321  2196.764
 322  2159.463
 323  2139.543
 324  2000.677
 325  2081.521
 326  2146.334
 327  2160.508
 328  2174.143
 329  2133.717
 330  2137.142
 331  2143.859
 332  2266.661
 333  2305.806
 334  2188.05
 335  2142.017
 336  2089.453
 337  2187.156
 338  2252.653
 339  2370.854
 340  2330.634
 341  2141.906
 342  2063.176
 343  2019.774
 344  2051.499
 345  2123.416
 346  2140.915
 347  2189.559
 348  2091.79
 349  2121.594
 350  2133.708
 351  2244.904
 352  2222.886
 353  2218.912
 354  2132.815
 355  2047.837
 356  2047.6
 357  2075.028
 358  2103.951
 359  2107.851
 360  2041.176
 361  2033.836
 362  2089.01
 363  2247.791
 364  2348.768
 365  2288.734
 366  2133.961
 367  2130.293
 368  2266.475
 369  2426.886
 370  2472.788
 371  2411.871
 372  2303.935
 373  2229.695
 374  2259.334
 375  2270.958
 376  2294.892
 377  2291.768
 378  2265.827
 379  2284.435
 380  2313.295
 381  2280.949
 382  2260.769
 383  2277.06
 384  2321.681
 385  2376.554
 386  2359.235
 387  2229.14
 388  2203.427
 389  2218.383
 390  2312.729
 391  2276.5
 392  2292.323
 393  2260.078
 394  2292.849
 395  2304.272
 396  2271.796
 397  2242.449
 398  2308.544
 399  2501.374
 400  2572.686
 401  2452.286
 402  2369.745
 403  2457.82
 404  2568.803
 405  2632.002
 406  2559.759
 407  2509.421
 408  2472.256
 409  2499.122
 410  2392.006
 411  2323.645
 412  2295.716
 413  2392.91
 414  2436.733
 415  2536.321
 416  2497.869
 417  2494.994
 418  2357.585
 419  2482.945
 420  2512.928
 421  2491.982
 422  2436.589
 423  2488.008
 424  2442.366
 425  2377.235
 426  2316.577
 427  2356.709
 428  2376.771
 429  2277.945
 430  2171.417
 431  2316.688
 432  2415.465
 433  2423.234
 434  2274.083
 435  2246.7
 436  2162.563
 437  2099.53
 438  2176.465
 439  2262.57
 440  2375.51
 441  2426.675
 442  2547.459
 443  2551.493
 444  2414.226
 445  2279.815
 446  2264.397
 447  2255.996
 448  2346.989
 449  2350.252
 450  2380.77
 451  2237.563
 452  2246.344
 453  2307.141
 454  2406.818
 455  2405.738
 456  2472.524
 457  2456.011
 458  2517.872
 459  2511.954
 460  2551.022
 461  2596.756
 462  2544.799
 463  2500.066
 464  2359.028
 465  2259.494
 466  2212.604
 467  2304.583
 468  2352.402
 469  2284.028
 470  2287.444
 471  2312.765
 472  2296.261
 473  2259.584
 474  2278.733
 475  2372.706
 476  2470.122
 477  2552.855
 478  2484.656
 479  2284.927
 480  2105.763
 481  1995.684
 482  1978.574
 483  2050.476
 484  2155.187
 485  2268.955
 486  2297.695
 487  2326.936
 488  2298.907
 489  2305.156
 490  2310.428
 491  2244.065
 492  2173.633
 493  2080.113
 494  2034.343
 495  2209.933
 496  2324.782
 497  2398.5
 498  2274.082
 499  2222.177
 500  2214.139
 501  2273.705
 502  2354.017
 503  2392.424
 504  2354.273
 505  2372.815
 506  2425.656
 507  2448.948
 508  2479.783
 509  2432.822
 510  2296.737
 511  2228.09
 512  2285.235
 513  2357.979
 514  2320.053
 515  2273.808
 516  2357.795
 517  2318.087
 518  2248.073
 519  2176.097
 520  2272.277
 521  2393
 522  2363.459
 523  2222.605
 524  2192.524
 525  2257.792
 526  2325.032
 527  2303.21
 528  2362.252
 529  2405.594
 530  2426.845
 531  2293.639
 532  2324.452
 533  2416.155
 534  2520
 535  2376.469
 536  2297.263
 537  2279.129
 538  2375.712
 539  2330.28
 540  2310.711
 541  2368.947
 542  2353.664
 543  2247.112
 544  2147.583
 545  2103.256
 546  2184.157
 547  2347.236
 548  2441.552
 549  2563.175
 550  2437.618
 551  2459.952
 552  2464.679
 553  2518.729
 554  2524.109
 555  2306.712
 556  2278.703
 557  2300.128
 558  2319.033
 559  2317.85
 560  2314.678
 561  2391.271
 562  2374.379
 563  2321.645
 564  2275.566
 565  2267.996
 566  2389.012
 567  2434.529
 568  2347.76
 569  2235.765
 570  2138.403
 571  2178.298
 572  2148.216
 573  2157.014
 574  2224.513
 575  2308.164
 576  2294.322
 577  2196.369
 578  2210.001
 579  2326.927
 580  2301.358
 581  2387.818
 582  2395.331
 583  2424.421
 584  2367.655
 585  2307.99
 586  2330.938
 587  2385.251
 588  2443.65
 589  2557.546
 590  2684.814
 591  2667.902
 592  2686.75
 593  2719.033
 594  2818.958
 595  2868.334
 596  3030.397
 597  3197.242
 598  3296.461
 599  3359.428
 600  3489.212
 601  3405.758
 602  3291.694
 603  3045.047
 604  2883.763
 605  2680.916
 606  2536.224
 607  2482.587
 608  2374.309
 609  2316.108
 610  2275.481
 611  2337.828
 612  2263.472
 613  2061.927
 614  1963.327
 615  1964.005
 616  2183.335
 617  2111.886
 618  2081.293
 619  2063.179
 620  2126.612
 621  2196.055
 622  2187.357
 623  2234.859
 624  2254.714
 625  2249.154
 626  2201.12
 627  2129.347
 628  2168.635
 629  2181.438
 630  2107.466
 631  2024.205
 632  2107.034
 633  2138.608
 634  2211.729
 635  2118.795
 636  2042.853
 637  2129.021
 638  2081.88
 639  2172.115
 640  2206.58
 641  2296.707
 642  2268.318
 643  2294.17
 644  2341.516
 645  2187.505
 646  2026.998
 647  1942.164
 648  1981.944
 649  1893.79
 650  1899.496
 651  1936.357
 652  2040.117
 653  2104.415
 654  2158.972
 655  2190.839
 656  2259.096
 657  2396.125
 658  2406.789
 659  2460.362
 660  2257.415
 661  2246.843
 662  2252.321
 663  2276.977
 664  2151.057
 665  2107.644
 666  2191.893
 667  2319.39
 668  2220.718
 669  2220.528
 670  2307.75
 671  2404.726
 672  2381.579
 673  2279.625
 674  2199.498
 675  2162.953
 676  2222.787
 677  2323.712
 678  2399.592
 679  2375.114
 680  2416.629
 681  2470.682
 682  2482.657
 683  2466.777
 684  2437.255
 685  2613.655
 686  2597.231
 687  2440.928
 688  2330.085
 689  2405.392
 690  2428.146
 691  2375.618
 692  2371.633
 693  2267.784
 694  2295.538
 695  2343.837
 696  2382.627
 697  2424.297
 698  2366.961
 699  2424.708
 700  2360.171
 701  2246.859
 702  2316.897
 703  2359.134
 704  2427.945
 705  2458.577
 706  2519.117
 707  2566.076
 708  2494.613
 709  2379.759
 710  2412.891
 711  2310.21
 712  2285.88
 713  2309.864
 714  2229.092
 715  2241.914
 716  2216.696
 717  2438.299
 718  2391.023
 719  2344.695
 720  2251.603
 721  2319.604
 722  2235.793
 723  2223.832
 724  2202.719
 725  2248.574
 726  2300.76
 727  2330.597
 728  2319.859
 729  2421.508
 730  2462.494
 731  2350.253
 732  2197.218
 733  2146.372
 734  2215.187
 735  2301.107
 736  2353.208
 737  2478.757
 738  2349.345
 739  2272.548
 740  2218.277
 741  2165.307
 742  2245.743
 743  2270.145
 744  2353.794
 745  2364.864
 746  2415.033
 747  2413.577
 748  2330.024
 749  2199.406
 750  2203.064
 751  2226.901
 752  2336.641
 753  2342.648
 754  2469.4
 755  2437.124
 756  2473.472
 757  2399.015
 758  2312.221
 759  2267.264
 760  2284.398
 761  2312.997
 762  2243.526
 763  2190.83
 764  2226.109
 765  2267.625
 766  2311.821
 767  2264.219
 768  2247.29
 769  2271.048
 770  2313.449
 771  2285.05
 772  2348.074
 773  2399.586
 774  2366.278
 775  2249.809
 776  2154.605
 777  2259.778
 778  2314.104
 779  2348.874
 780  2287.742
 781  2297.348
 782  2386.075
 783  2250.789
 784  2222.758
 785  2129.195
 786  2245.076
 787  2305.063
 788  2258.243
 789  2095.055
 790  2162.172
 791  2233.929
 792  2307.733
 793  2262.838
 794  2338.497
 795  2370.749
 796  2373.035
 797  2271.917
 798  2184.983
 799  2255.999
 800  2266.484
 801  2215.121
 802  2083.322
 803  2099.59
 804  2137.24
 805  2247.802
 806  2179.636
 807  2114.127
 808  2090.641
 809  2210.254
 810  2281.953
 811  2235.855
 812  2163.095
 813  2252.969
 814  2276.362
 815  2285.226
 816  2199.694
 817  2263.789
 818  2241.658
 819  2317.963
 820  2269.36
 821  2237.01
 822  2156.632
 823  2183.272
 824  2330.182
 825  2388.209
 826  2382.24
 827  2420.308
 828  2477.432
 829  2475.866
 830  2387.441
 831  2367.308
 832  2382.021
 833  2381.736
 834  2292.294
 835  2244.874
 836  2231.749
 837  2241.643
 838  2242.275
 839  2183.667
 840  2151.143
 841  2140.217
 842  2158.5
 843  2207
 844  2259.015
 845  2286.032
 846  2266.505
 847  2321.809
 848  2289.1
 849  2269.849
 850  2185.86
 851  2265.838
 852  2291.28
 853  2222.755
 854  2196.657
 855  2118.41
 856  2102.858
 857  1968.377
 858  2000.295
 859  2028.918
 860  2042.281
 861  1972
 862  1994.821
 863  2034.245
 864  2045.471
 865  2062.69
 866  2178.472
 867  2280.74
 868  2205.947
 869  2176.946
 870  2100.144
 871  2141.992
 872  2034.069
 873  1960.053
 874  2001.223
 875  2160.036
 876  2241.445
 877  2221.373
 878  2255.858
 879  2229.404
 880  2115.365
 881  1961.17
 882  1887.901
 883  1938.018
 884  2141.219
 885  2143
 886  2138.229
 887  2177.532
 888  2194.338
 889  2107.862
 890  2003.401
 891  2009.715
 892  2088.457
 893  2138.631
 894  2232.901
 895  2134.895
 896  2220.175
 897  2152.629
 898  2138.234
 899  2068.744
 900  2000.11
 901  2042.659
 902  2024.906
 903  2084.489
 904  2150.091
 905  2069.209
 906  2046.049
 907  2050.882
 908  2161.076
 909  2220.744
 910  2187.883
 911  2145.29
 912  2145.599
 913  2171.249
 914  2084.905
 915  2070.492
 916  1953.408
 917  2102.28
 918  2185.197
 919  2378.827
 920  2456.946
 921  2448.771
 922  2475.595
 923  2345.481
 924  2365.358
 925  2392.544
 926  2434.648
 927  2462.498
 928  2439.919
 929  2461.31
 930  2510.219
 931  2657.614
 932  2592.609
 933  2538.844
 934  2432.926
 935  2512.355
 936  2477.641
 937  2454.909
 938  2484.781
 939  2507.337
 940  2579.383
 941  2586.545
 942  2527.503
 943  2513.812
 944  2386.009
 945  2423.587
 946  2397.745
 947  2402.223
 948  2449.523
 949  2431.722
 950  2491.058
 951  2488.687
 952  2502.016
 953  2465.022
 954  2562.712
 955  2562.667
 956  2638.135
 957  2574.019
 958  2696.86
 959  2730.165
 960  2749.681
 961  2717.024
 962  2617.603
 963  2590.849
 964  2568.192
 965  2556.235
 966  2601.935
 967  2601.398
 968  2622.051
 969  2576.367
 970  2534.57
 971  2540.21
 972  2567.145
 973  2561.529
 974  2589.839
 975  2524.382
 976  2576.763
 977  2528.183
 978  2626.339
 979  2567.277
 980  2498.013
 981  2404.155
 982  2468.379
 983  2600.21
 984  2623.088
 985  2551.361
 986  2465.16
 987  2468.914
 988  2477.136
 989  2529.354
 990  2520.651
 991  2468.974
 992  2490.913
 993  2501.482
 994  2547.884
 995  2496.296
 996  2433.305
 997  2329.861
 998  2350.015
 999  2468.706
1000  2622.614
1001  2738.548
1002  2675.777
1003  2674.654
1004  2558.385
1005  2480.565
1006  2412.599
1007  2370.895
1008  2439.065
1009  2452.085
1010  2472.309
1011  2499.153
1012  2468.773
1013  2514.293
1014  2582.924
1015  2634.583
1016  2574.432
1017  2533.299
1018  2464.695
1019  2432.815
1020  2342.931
1021  2458.879
1022  2587.831
1023  2607.345
