# Input file       =  1209201872.113502_cleaned.dat
# Candidate        =  PSR_0332+5434
# Telescope        =  AR
# Epoch_topo       =  58239.392258258122
# Epoch_bary       =  N/A
# T_sample         =  0.002
# Data Folded      =  7340032
# Data Avg         =  0.358633059919936
# Data StdDev      =  6.13226091538805 
# Profile Bins     =  512
# Profile Avg      =  5130.75877483443 
# Profile StdDev   =  734.234219253978 
# Reduced chi-sqr  =  1.289
# Prob(Noise)      <  1.02e-05   (~4.3 sigma)
# P_topo (ms)      =  714.54638122993   +/- 0.00025
# P'_topo (s/s)    =  -0                +/- 1.32e-10
# P''_topo (s/s^2) =  0                 +/- 5.81e-14
# P_bary (ms)      =  N/A
# P'_bary (s/s)    =  N/A
# P''_bary (s/s^2) =  N/A
# P_orb (s)        =  N/A
# asin(i)/c (s)    =  N/A
# eccentricity     =  N/A
# w (rad)          =  N/A
# T_peri           =  N/A
######################################################
   0  4120.875
   1  4613.951
   2  4632.437
   3  4859.754
   4  5103.155
   5  5344.815
   6  5045.646
   7  5302.147
   8  5857.099
   9  5797.812
  10  5685.033
  11  5499.802
  12  5082.731
  13  5215.534
  14  5045.105
  15  4903.78
  16  5285.239
  17  5751.032
  18  5585.294
  19  5532.66
  20  5597.658
  21  5819.896
  22  5583.468
  23  5624.934
  24  5920.548
  25  5998.485
  26  5748.464
  27  5643.265
  28  5611.189
  29  5482.374
  30  5596.442
  31  5126.086
  32  5189.663
  33  5606.962
  34  5684.577
  35  5546.145
  36  5259.476
  37  5397.587
  38  5389.965
  39  5137.45
  40  5287.221
  41  5456.473
  42  5573.972
  43  5212.48
  44  4934.802
  45  5342.701
  46  5586.288
  47  5101.666
  48  5053.918
  49  4784.468
  50  5178.236
  51  4924.05
  52  4963.113
  53  5329.067
  54  4735.396
  55  4975.858
  56  4815.466
  57  4491.521
  58  4693.38
  59  4953.509
  60  4745.635
  61  4782.756
  62  4785.41
  63  4969.706
  64  4792.364
  65  4792.501
  66  4759.606
  67  4525.913
  68  4734.04
  69  5076.024
  70  5158.391
  71  4962.081
  72  4851.778
  73  4917.129
  74  4417.554
  75  4292.614
  76  4550.4
  77  4900.271
  78  4904.615
  79  4494.077
  80  4571.762
  81  4172.62
  82  4437.727
  83  4709.751
  84  5032.768
  85  5082.248
  86  4974.466
  87  5331.508
  88  5366.324
  89  4868.373
  90  5299.198
  91  5895.935
  92  5912.384
  93  5857.276
  94  5851.214
  95  5812.414
  96  5682.793
  97  5752.213
  98  5666.979
  99  5917.982
 100  6072.224
 101  5776.044
 102  5685.633
 103  5778.739
 104  5686.945
 105  5462.224
 106  5547.974
 107  5993.93
 108  6263.505
 109  6230.479
 110  6012.279
 111  6029.108
 112  5802.175
 113  5783.841
 114  5669.271
 115  6003.922
 116  5635.915
 117  5744.519
 118  5439.09
 119  5062.581
 120  4877.29
 121  4830.576
 122  5110.668
 123  5224.527
 124  5638.417
 125  5407.743
 126  5276.6
 127  5313.072
 128  5289.376
 129  5469.793
 130  4942.413
 131  5346.715
 132  4730.144
 133  4219.519
 134  4559.452
 135  5072.25
 136  4932.561
 137  4780.783
 138  4431.399
 139  4790.85
 140  5024.864
 141  4814.621
 142  4606.474
 143  4764.368
 144  4905.982
 145  5203.858
 146  5121.693
 147  4875.269
 148  5449.019
 149  5382.526
 150  5223.11
 151  5283.778
 152  5338.036
 153  5089.388
 154  5087.751
 155  5643.552
 156  5962.873
 157  5554.765
 158  5478.662
 159  5802.704
 160  5354.541
 161  5873.098
 162  5756.833
 163  5927.555
 164  6094.208
 165  6226.971
 166  6022.777
 167  6155.412
 168  6195.683
 169  6257.147
 170  6510.625
 171  6391.588
 172  6076.883
 173  5983.033
 174  6245.078
 175  6693.687
 176  6231.027
 177  6188.505
 178  6216.81
 179  5885.685
 180  5581.615
 181  5831.251
 182  6077.178
 183  5996.928
 184  5647.714
 185  5659.981
 186  5853.511
 187  5841.095
 188  5405.555
 189  5368.564
 190  5363.226
 191  5751.115
 192  5846.948
 193  5437.992
 194  5145.256
 195  5470.156
 196  5460.306
 197  5583.249
 198  5709.064
 199  5671.783
 200  5433.028
 201  5632.539
 202  5582.583
 203  5515.041
 204  5351.026
 205  5452.258
 206  5391.364
 207  5224.359
 208  5186.059
 209  5109.005
 210  4887.958
 211  4272.789
 212  4356.653
 213  5154.855
 214  5145.933
 215  5024.531
 216  4970.98
 217  5141.947
 218  5029.436
 219  5143.331
 220  5123.579
 221  5182.584
 222  5306.87
 223  5120.607
 224  4674.357
 225  4250.648
 226  4487.832
 227  4815.455
 228  4835.407
 229  5200.323
 230  5065.98
 231  5473.322
 232  5513.026
 233  5430.1
 234  5190.026
 235  5349.79
 236  5345.498
 237  5675.541
 238  5677.868
 239  5333.336
 240  5283.281
 241  5364.701
 242  5509.883
 243  5561.916
 244  5986.487
 245  5769.792
 246  5717.286
 247  5835.166
 248  5639.718
 249  5661.182
 250  5866.712
 251  5414.591
 252  5257.812
 253  5073.881
 254  4948.299
 255  4758.767
 256  4805.515
 257  4956.585
 258  5389.217
 259  5426.485
 260  5147.18
 261  5017.04
 262  4738.274
 263  4799.748
 264  4594.023
 265  4799.567
 266  4540.48
 267  4733.482
 268  4490.333
 269  4582.719
 270  4798.937
 271  4908.745
 272  5254.387
 273  5302.855
 274  5532.001
 275  5466.717
 276  5209.757
 277  5385.135
 278  5255.385
 279  5271.075
 280  4810.368
 281  4678.222
 282  4922.455
 283  4866
 284  4403.029
 285  4361.588
 286  4248.194
 287  4292.245
 288  4280.354
 289  4164.185
 290  4039.456
 291  4469.661
 292  4562.048
 293  4740.466
 294  4452.12
 295  4533.545
 296  4852.595
 297  4461.132
 298  4411.455
 299  4501.339
 300  5229.772
 301  5130.114
 302  4747.368
 303  4993.12
 304  5174.734
 305  5062.08
 306  5181.854
 307  5174.117
 308  5408.568
 309  5605.021
 310  5464.313
 311  5616.018
 312  5818.609
 313  5525.811
 314  5147.963
 315  5189.863
 316  5031.976
 317  5383.637
 318  5392.562
 319  5292.047
 320  5336.771
 321  5269.449
 322  5274.981
 323  5167.64
 324  5481.844
 325  5353.568
 326  5072.476
 327  4755.645
 328  4968.107
 329  5423.25
 330  5358.364
 331  5353.026
 332  5590.464
 333  5215.36
 334  4965.743
 335  4662.467
 336  4736.392
 337  4956.376
 338  5029.712
 339  5027.818
 340  5016.548
 341  5007.782
 342  5323.277
 343  5010.169
 344  4510.582
 345  4626.027
 346  4933.745
 347  5160.916
 348  5015.438
 349  5115.75
 350  4952.074
 351  4593.937
 352  4670.955
 353  4740.298
 354  4509.406
 355  4319.366
 356  4205.587
 357  4370.771
 358  4031.865
 359  3890.688
 360  4590.007
 361  4756.736
 362  4417.89
 363  4368.488
 364  4083.021
 365  4150.535
 366  4147.809
 367  4573.941
 368  4563.378
 369  4420.962
 370  4481.832
 371  4488.423
 372  4467.916
 373  4701.014
 374  4734.224
 375  4838.602
 376  5100.063
 377  5100.794
 378  5129.589
 379  5100.046
 380  5120.166
 381  5221.101
 382  5121.204
 383  5173.929
 384  5296.908
 385  5015.39
 386  5172.001
 387  5375.023
 388  5357.91
 389  5484.82
 390  5662.585
 391  5733.13
 392  5773.333
 393  5806.52
 394  5801.263
 395  6388.869
 396  6826.338
 397  7405.121
 398  7787.447
 399  7776.896
 400  7552.266
 401  7212.677
 402  6451.748
 403  5993.5
 404  6028.839
 405  5852.334
 406  5734.98
 407  5667.089
 408  5710.267
 409  5495.379
 410  5405.753
 411  5645.413
 412  5673.751
 413  5606.95
 414  5168.779
 415  5071.43
 416  4632.586
 417  4320.134
 418  4149.156
 419  4111.522
 420  4123.99
 421  4296.358
 422  4078.455
 423  3743.034
 424  3808.851
 425  4231.136
 426  4341.348
 427  4440.847
 428  4562.234
 429  4668.672
 430  4472.682
 431  4303.317
 432  4466.685
 433  4426.144
 434  4271.027
 435  3860.925
 436  3689.039
 437  3985.752
 438  4186.448
 439  4138.774
 440  4143.619
 441  4054.304
 442  4001.536
 443  4105.229
 444  4431.635
 445  4303.054
 446  4278.059
 447  3779.352
 448  3851.582
 449  4147.566
 450  4186.179
 451  3968.584
 452  4227.759
 453  4522.403
 454  4517.937
 455  4838.914
 456  4949.349
 457  4698.818
 458  5183.07
 459  4893.517
 460  4576.063
 461  4506.32
 462  4604.686
 463  4786.278
 464  4621.472
 465  4711.703
 466  5140.306
 467  5028.635
 468  4969.428
 469  5104.782
 470  4934.811
 471  5176.301
 472  5321.145
 473  5340.468
 474  5141.151
 475  5040.454
 476  5034.482
 477  4754.064
 478  4871.847
 479  5068.574
 480  5122.63
 481  5062.019
 482  5212.24
 483  5330.069
 484  5322.245
 485  5438.662
 486  5196.804
 487  5415.489
 488  5384.278
 489  4972.248
 490  5221.921
 491  5321.911
 492  5410.562
 493  4900.119
 494  4666.057
 495  4520.146
 496  4682.207
 497  4819.69
 498  4961.705
 499  4784.121
 500  5138.824
 501  5025.59
 502  4149.12
 503  4584.863
 504  4534.871
 505  4320.438
 506  4171.948
 507  4353.303
 508  4542.832
 509  4224.99
 510  4488.953
 511  4260.741
