# Input file       =  1209374171.10886_cleaned.dat
# Candidate        =  PSR_0332+5434
# Telescope        =  AR
# Epoch_topo       =  58241.386459593290
# Epoch_bary       =  N/A
# T_sample         =  0.002
# Data Folded      =  7340032
# Data Avg         =  0.0595955859597386
# Data StdDev      =  6.65752368333953 
# Profile Bins     =  1024
# Profile Avg      =  427.180595155354 
# Profile StdDev   =  563.652864436452 
# Reduced chi-sqr  =  0.630
# Prob(Noise)      <  1   (~0.0 sigma)
# P_topo (ms)      =  714.54457397556   +/- 0.00118
# P'_topo (s/s)    =  -0                +/- 6.25e-10
# P''_topo (s/s^2) =  0                 +/- 2.76e-13
# P_bary (ms)      =  N/A
# P'_bary (s/s)    =  N/A
# P''_bary (s/s^2) =  N/A
# P_orb (s)        =  N/A
# asin(i)/c (s)    =  N/A
# eccentricity     =  N/A
# w (rad)          =  N/A
# T_peri           =  N/A
######################################################
   0  239.2942
   1  248.025
   2  204.9781
   3  145.911
   4  103.4628
   5  127.4077
   6  125.1024
   7  73.73209
   8  -15.92566
   9  -140.8334
  10  -19.98376
  11  96.96691
  12  33.95944
  13  -35.98178
  14  -44.30158
  15  92.3651
  16  141.8688
  17  73.93858
  18  35.45054
  19  155.9995
  20  151.5019
  21  97.25034
  22  24.8143
  23  127.7016
  24  282.0339
  25  280.6508
  26  221.4121
  27  127.0433
  28  150.0505
  29  286.9819
  30  279.38
  31  357.193
  32  272.6143
  33  240.2404
  34  219.831
  35  279.0953
  36  306.947
  37  326.7474
  38  240.1949
  39  156.4571
  40  134.0104
  41  48.85467
  42  119.3218
  43  180.1948
  44  316.8347
  45  236.3112
  46  218.4896
  47  264.8781
  48  313.7309
  49  248.3224
  50  140.2533
  51  99.18516
  52  186.4878
  53  184.7175
  54  198.0591
  55  94.6801
  56  134.6616
  57  164.1026
  58  196.8454
  59  117.7107
  60  98.1245
  61  107.7397
  62  160.4196
  63  200.8965
  64  237.4032
  65  244.1619
  66  150.774
  67  229.3196
  68  249.6713
  69  205.0131
  70  192.2653
  71  163.5007
  72  310.6087
  73  311.975
  74  295.2744
  75  326.1707
  76  212.227
  77  151.319
  78  30.81598
  79  122.2609
  80  206.8112
  81  148.5552
  82  144.3025
  83  228.543
  84  358.7056
  85  369.3347
  86  356.6135
  87  317.4721
  88  312.9844
  89  285.3151
  90  294.274
  91  310.1081
  92  313.7879
  93  238.5003
  94  192.1474
  95  86.83499
  96  109.2489
  97  129.9613
  98  203.6898
  99  334.5937
 100  260.0426
 101  188.0078
 102  146.868
 103  200.2925
 104  121.8077
 105  -4.395238
 106  0.9791997
 107  92.35114
 108  120.5692
 109  -5.52455
 110  -50.54392
 111  70.31021
 112  227.9272
 113  269.7439
 114  247.9191
 115  176.9812
 116  86.98222
 117  40.66872
 118  -0.3130483
 119  61.81134
 120  133.5448
 121  277.1902
 122  321.7728
 123  323.3101
 124  217.5747
 125  149.8995
 126  84.11456
 127  48.83712
 128  0.1864633
 129  -43.20589
 130  18.90599
 131  86.19628
 132  72.12566
 133  -0.4875229
 134  76.26575
 135  164.4859
 136  113.6428
 137  150.3972
 138  100.7407
 139  141.8213
 140  226.0011
 141  291.8702
 142  338.7572
 143  308.576
 144  356.2542
 145  235.0484
 146  192.9635
 147  188.7543
 148  85.78072
 149  -12.17161
 150  -28.50887
 151  29.8113
 152  45.95679
 153  52.85562
 154  134.223
 155  227.2596
 156  214.7687
 157  92.59327
 158  105.8498
 159  154.8363
 160  155.6278
 161  44.22843
 162  36.36027
 163  84.83972
 164  90.85551
 165  59.47871
 166  52.26852
 167  41.64468
 168  100.4212
 169  155.6187
 170  176.5939
 171  244.5342
 172  255.0282
 173  272.881
 174  55.27194
 175  -9.021861
 176  10.2653
 177  -23.90078
 178  -70.15678
 179  -108.3059
 180  -11.20776
 181  50.40098
 182  152.2392
 183  153.6696
 184  99.54398
 185  24.04977
 186  170.6336
 187  228.4314
 188  177.6918
 189  96.76627
 190  51.26869
 191  143.0778
 192  192.8585
 193  221.5527
 194  308.1299
 195  317.1621
 196  308.1091
 197  259.0591
 198  79.17883
 199  128.5236
 200  92.00774
 201  272.1333
 202  224.4199
 203  184.0476
 204  161.2568
 205  150.9673
 206  143.4655
 207  104.2632
 208  239.4234
 209  353.6015
 210  404.7383
 211  253.8318
 212  252.9895
 213  212.7258
 214  89.45937
 215  146.2906
 216  143.7668
 217  131.2005
 218  119.0387
 219  171.5213
 220  193.6153
 221  157.8965
 222  202.4186
 223  355.0942
 224  416.9386
 225  359.3748
 226  508.5856
 227  466.4005
 228  442.0758
 229  440.3415
 230  549.1169
 231  561.1724
 232  569.2404
 233  379.7043
 234  216.7715
 235  56.62661
 236  235.1816
 237  391.2505
 238  435.1306
 239  579.136
 240  614.3691
 241  442.4535
 242  342.79
 243  396.9049
 244  355.5906
 245  299.3295
 246  322.0227
 247  383.0344
 248  255.1298
 249  211.5847
 250  266.4053
 251  372.4877
 252  310.81
 253  410.2165
 254  410.6783
 255  402.0276
 256  301.6417
 257  274.0785
 258  277.4145
 259  270.3385
 260  476.1817
 261  613.6371
 262  724.1913
 263  638.2379
 264  619.7155
 265  466.1055
 266  456.1078
 267  467.3794
 268  575.9634
 269  667.7664
 270  763.75
 271  737.5141
 272  692.1263
 273  627.152
 274  792.9019
 275  756.4028
 276  677.2564
 277  544.6365
 278  572.0372
 279  548.2376
 280  594.2904
 281  657.3117
 282  680.364
 283  703.032
 284  719.4805
 285  783.5951
 286  832.8439
 287  888.5266
 288  952.7839
 289  898.4374
 290  728.4537
 291  582.0782
 292  570.6781
 293  765.6394
 294  798.3969
 295  817.213
 296  745.0236
 297  730.5865
 298  693.9474
 299  698.5607
 300  757.8123
 301  778.3743
 302  740.4828
 303  732.4689
 304  767.3557
 305  763.9166
 306  654.3948
 307  629.3232
 308  567.3076
 309  602.2167
 310  576.9116
 311  534.0146
 312  591.8517
 313  630.1003
 314  710.5282
 315  557.8264
 316  578.8474
 317  465.8952
 318  489.1781
 319  597.2537
 320  644.4141
 321  633.3832
 322  636.7766
 323  613.2306
 324  493.3619
 325  435.2995
 326  449.9538
 327  505.2533
 328  579.6473
 329  622.5962
 330  636.1625
 331  607.2367
 332  493.8434
 333  415.7847
 334  421.9495
 335  492.5784
 336  605.0214
 337  705.262
 338  766.1008
 339  769.7853
 340  719.9213
 341  547.3354
 342  488.9312
 343  541.5375
 344  559.0075
 345  540.8199
 346  487.8363
 347  570.5659
 348  613.2565
 349  603.9896
 350  465.2686
 351  491.0002
 352  516.7999
 353  605.8995
 354  613.2475
 355  672.0525
 356  670.1093
 357  573.2358
 358  431.9006
 359  285.6172
 360  400.9624
 361  524.3016
 362  531.7151
 363  405.3857
 364  422.8249
 365  367.2575
 366  288.6833
 367  286.7688
 368  306.1024
 369  318.3845
 370  334.8469
 371  332.8172
 372  384.0672
 373  336.1277
 374  379.3943
 375  397.797
 376  327.0583
 377  312.1421
 378  299.4895
 379  459.3854
 380  511.9508
 381  563.7883
 382  414.253
 383  273.3002
 384  196.3943
 385  221.8501
 386  251.1456
 387  217.2551
 388  219.9377
 389  344.6371
 390  280.1051
 391  402.4283
 392  239.7269
 393  254.2191
 394  169.2791
 395  204.6053
 396  253.2343
 397  248.6188
 398  264.0789
 399  191.7421
 400  114.9865
 401  116.87
 402  154.0396
 403  278.7318
 404  307.38
 405  339.2437
 406  198.5103
 407  235.239
 408  228.7501
 409  193.374
 410  154.6117
 411  165.626
 412  143.3293
 413  176.0089
 414  100.224
 415  210.521
 416  139.6045
 417  123.6043
 418  118.267
 419  200.0791
 420  146.4123
 421  47.05939
 422  31.99899
 423  131.6689
 424  84.02616
 425  67.2621
 426  -25.56065
 427  99.27907
 428  4.484404
 429  -73.2641
 430  -110.0879
 431  18.29154
 432  126.7075
 433  120.1319
 434  163.7641
 435  84.73927
 436  12.40078
 437  -23.36751
 438  -1.421554
 439  -31.97726
 440  -62.17734
 441  51.30907
 442  81.7352
 443  198.1621
 444  170.8834
 445  316.3293
 446  259.2908
 447  229.9678
 448  87.27383
 449  90.51778
 450  121.6474
 451  134.683
 452  146.4935
 453  157.2254
 454  25.02423
 455  97.55135
 456  65.32917
 457  88.98598
 458  -53.28655
 459  67.57454
 460  -4.123351
 461  -13.48194
 462  30.3144
 463  146.116
 464  136.8109
 465  165.7169
 466  130.1837
 467  257.2292
 468  280.6607
 469  380.3647
 470  483.8246
 471  420.5072
 472  358.1833
 473  273.4844
 474  259.0608
 475  288.3335
 476  295.1228
 477  287.6573
 478  243.9202
 479  310.7321
 480  381.8904
 481  508.1862
 482  532.3301
 483  648.9357
 484  564.167
 485  477.2885
 486  391.9804
 487  365.567
 488  389.7183
 489  365.1866
 490  401.9199
 491  500.9
 492  462.0702
 493  372.3783
 494  351.3636
 495  343.1211
 496  384.5681
 497  389.6235
 498  443.5051
 499  464.245
 500  561.9512
 501  602.3074
 502  636.7535
 503  687.6586
 504  696.0645
 505  812.472
 506  767.0679
 507  704.7111
 508  513.556
 509  440.7906
 510  493.1322
 511  603.806
 512  690.7245
 513  799.7867
 514  626.8474
 515  589.5076
 516  548.3135
 517  689.32
 518  630.5355
 519  518.7028
 520  577.8224
 521  566.8253
 522  593.8525
 523  654.3597
 524  619.9987
 525  577.6152
 526  476.6215
 527  518.0267
 528  344.1988
 529  234.4217
 530  287.4523
 531  440.1562
 532  485.4746
 533  311.6227
 534  231.9117
 535  326.8751
 536  432.2133
 537  403.7017
 538  370.1383
 539  326.7488
 540  372.3707
 541  356.4446
 542  316.3141
 543  297.7699
 544  418.2633
 545  441.7896
 546  415.6437
 547  334.2996
 548  470.9976
 549  413.4211
 550  285.5888
 551  166.0025
 552  230.5473
 553  335.676
 554  368.2865
 555  473.7576
 556  575.8346
 557  560.3852
 558  426.9742
 559  354.181
 560  491.453
 561  614.3727
 562  613.4142
 563  596.4068
 564  514.1525
 565  536.1328
 566  448.899
 567  450.0565
 568  450.5331
 569  462.8214
 570  450.0872
 571  381.2232
 572  307.6289
 573  348.1047
 574  386.8026
 575  541.2418
 576  564.1531
 577  522.4887
 578  335.315
 579  248.1793
 580  252.9159
 581  232.8635
 582  119.7111
 583  110.3936
 584  200.4899
 585  208.1172
 586  125.8354
 587  162.2816
 588  373.2892
 589  424.0074
 590  476.3461
 591  435.509
 592  518.5389
 593  679.437
 594  788.8011
 595  924.8766
 596  966.5053
 597  977.4305
 598  1107.649
 599  1316.396
 600  1450.497
 601  1503.257
 602  1405.472
 603  1373.046
 604  1382.127
 605  1342.944
 606  1126.275
 607  872.9056
 608  686.5526
 609  509.9075
 610  462.8853
 611  459.9302
 612  450.3662
 613  443.4819
 614  467.8333
 615  462.8289
 616  477.1823
 617  447.9096
 618  518.2608
 619  650.0752
 620  742.3264
 621  776.2569
 622  698.0255
 623  625.0737
 624  636.0178
 625  645.2527
 626  687.2902
 627  685.4221
 628  666.3038
 629  777.2002
 630  898.4954
 631  939.6909
 632  836.4902
 633  752.3099
 634  758.4557
 635  793.3802
 636  733.2802
 637  726.3151
 638  635.635
 639  584.2465
 640  688.3171
 641  765.0776
 642  752.9547
 643  678.0424
 644  631.139
 645  746.6882
 646  714.3396
 647  595.1184
 648  515.3737
 649  592.9995
 650  790.3094
 651  891.2764
 652  859.7557
 653  841.7089
 654  696.8899
 655  490.0492
 656  406.8205
 657  262.0063
 658  388.95
 659  455.1212
 660  589.1941
 661  512.9177
 662  421.2293
 663  423.0904
 664  544.8735
 665  457.5535
 666  386.9605
 667  392.7125
 668  411.0524
 669  567.0851
 670  574.1213
 671  517.7641
 672  430.2757
 673  456.5669
 674  570.9819
 675  688.2521
 676  691.7073
 677  638.4073
 678  643.316
 679  710.3834
 680  671.084
 681  574.6013
 682  618.2596
 683  666.1189
 684  686.1976
 685  646.5662
 686  660.5253
 687  550.5073
 688  376.0762
 689  365.9178
 690  278.4508
 691  275.4465
 692  282.1372
 693  390.7928
 694  567.5569
 695  677.3156
 696  753.5176
 697  749.1568
 698  557.7978
 699  538.2197
 700  440.1498
 701  528.5921
 702  407.0614
 703  422.703
 704  419.5991
 705  565.4905
 706  468.5054
 707  663.2633
 708  680.554
 709  662.0587
 710  560.8803
 711  565.8052
 712  667.2428
 713  701.8699
 714  572.7346
 715  371.4537
 716  269.0648
 717  431.9227
 718  521.9048
 719  536.6906
 720  425.9582
 721  414.4064
 722  285.3022
 723  371.182
 724  227.9665
 725  194.2321
 726  308.8047
 727  341.0901
 728  178.937
 729  42.68563
 730  92.25352
 731  221.6634
 732  205.2968
 733  197.1381
 734  176.1637
 735  262.093
 736  291.7492
 737  366.1407
 738  326.7827
 739  333.9522
 740  344.9011
 741  340.5023
 742  183.0752
 743  167.8152
 744  360.5912
 745  564.1667
 746  671.618
 747  609.4161
 748  653.1105
 749  569.6841
 750  481.9248
 751  437.0781
 752  449.7957
 753  480.1862
 754  388.2032
 755  388.2884
 756  562.2084
 757  637.0996
 758  644.4368
 759  561.0433
 760  479.5572
 761  445.3039
 762  477.8213
 763  553.4773
 764  510.5107
 765  460.0557
 766  452.6621
 767  648.6526
 768  713.2991
 769  670.2772
 770  567.5491
 771  505.373
 772  571.3122
 773  705.6869
 774  808.5131
 775  772.2574
 776  600.1432
 777  487.4225
 778  485.4
 779  549.8862
 780  626.8653
 781  721.1937
 782  742.1977
 783  814.3473
 784  763.7809
 785  748.4442
 786  560.7491
 787  514.5479
 788  528.6741
 789  619.9644
 790  626.3403
 791  781.7925
 792  694.6895
 793  633.9724
 794  497.1223
 795  587.9294
 796  739.8468
 797  805.9171
 798  784.0325
 799  835.027
 800  914.2286
 801  927.1577
 802  877.4114
 803  869.6
 804  804.5801
 805  714.9511
 806  680.5362
 807  684.581
 808  695.5087
 809  631.3992
 810  657.8872
 811  556.6563
 812  489.5869
 813  376.7575
 814  397.9633
 815  552.8782
 816  634.5634
 817  624.1846
 818  619.7672
 819  561.0172
 820  662.7031
 821  708.8589
 822  804.3001
 823  660.7444
 824  568.1536
 825  555.8301
 826  636.8447
 827  680.0066
 828  608.46
 829  635.6061
 830  711.3333
 831  857.9871
 832  738.5716
 833  619.8447
 834  465.4547
 835  501.9171
 836  545.8942
 837  454.9103
 838  318.9615
 839  259.1294
 840  306.9225
 841  459.4753
 842  607.6944
 843  704.3655
 844  647.5876
 845  719.7512
 846  768.1055
 847  678.7477
 848  419.1591
 849  288.9498
 850  220.6646
 851  224.8089
 852  323.392
 853  414.8097
 854  464.949
 855  471.2455
 856  488.4758
 857  424.626
 858  404.5515
 859  340.5484
 860  363.2294
 861  417.581
 862  474.5361
 863  608.2485
 864  613.7267
 865  542.0727
 866  423.5686
 867  421.0779
 868  469.154
 869  490.0499
 870  511.0071
 871  543.9684
 872  586.3619
 873  518.6691
 874  466.3985
 875  408.7611
 876  458.9127
 877  630.3907
 878  670.8481
 879  645.8924
 880  603.5185
 881  569.6908
 882  525.7849
 883  496.3755
 884  513.396
 885  501.7369
 886  576.3466
 887  648.7005
 888  734.8809
 889  758.2443
 890  741.1544
 891  743.9122
 892  647.1251
 893  608.9349
 894  669.0475
 895  834.0146
 896  989.5755
 897  855.3734
 898  777.502
 899  645.0342
 900  795.1357
 901  846.9341
 902  873.337
 903  810.5256
 904  705.3867
 905  812.4171
 906  911.9078
 907  971.9565
 908  739.2239
 909  506.2946
 910  524.2819
 911  592.3514
 912  580.0473
 913  551.36
 914  629.6299
 915  731.6884
 916  607.0847
 917  496.8619
 918  495.4781
 919  619.0676
 920  654.0962
 921  672.143
 922  770.0338
 923  765.3737
 924  807.7471
 925  662.5858
 926  752.9904
 927  752.4897
 928  754.1025
 929  737.0866
 930  804.1973
 931  828.6483
 932  809.1558
 933  741.2162
 934  743.2123
 935  640.223
 936  639.962
 937  644.5195
 938  775.8676
 939  703.5858
 940  729.7041
 941  725.0168
 942  717.096
 943  718.4004
 944  730.0284
 945  771.05
 946  687.9478
 947  668.299
 948  692.176
 949  621.7442
 950  674.4182
 951  659.0138
 952  724.7434
 953  722.7516
 954  723.897
 955  640.1707
 956  645.1564
 957  619.9936
 958  623.1428
 959  565.7005
 960  429.2914
 961  507.8951
 962  542.6438
 963  502.6936
 964  362.9016
 965  388.2935
 966  503.569
 967  470.4208
 968  358.7416
 969  175.2773
 970  109.4762
 971  142.414
 972  345.6012
 973  526.3484
 974  597.4069
 975  480.3355
 976  314.5597
 977  314.4475
 978  367.8497
 979  422.6289
 980  513.8623
 981  575.4128
 982  477.3838
 983  403.1462
 984  452.6534
 985  492.3256
 986  478.6093
 987  502.9606
 988  597.8618
 989  522.3457
 990  355.4774
 991  269.5349
 992  251.6918
 993  385.4532
 994  420.9638
 995  482.6917
 996  475.8016
 997  488.471
 998  536.2635
 999  565.5268
1000  392.4277
1001  327.8584
1002  387.4009
1003  382.6652
1004  373.9144
1005  345.4315
1006  235.075
1007  205.211
1008  288.8117
1009  493.3114
1010  630.3194
1011  625.8849
1012  577.4297
1013  565.1308
1014  538.9058
1015  479.0523
1016  423.3368
1017  473.5554
1018  479.9946
1019  457.4797
1020  396.6678
1021  306.5226
1022  287.8213
1023  258.3888
