# Input file       =  1209704165.112302_cleaned.dat
# Candidate        =  PSR_0332+5434
# Telescope        =  AR
# Epoch_topo       =  58245.205834633125
# Epoch_bary       =  N/A
# T_sample         =  0.002
# Data Folded      =  7208960
# Data Avg         =  0.0430683440915991
# Data StdDev      =  1.0000489222068  
# Profile Bins     =  512
# Profile Avg      =  606.378800679978 
# Profile StdDev   =  118.664980862268 
# Reduced chi-sqr  =  2.229
# Prob(Noise)      <  7.99e-50   (~14.8 sigma)
# P_topo (ms)      =  714.541031519771  +/- 4.58e-05
# P'_topo (s/s)    =  -0                +/- 2.46e-11
# P''_topo (s/s^2) =  0                 +/- 1.11e-14
# P_bary (ms)      =  N/A
# P'_bary (s/s)    =  N/A
# P''_bary (s/s^2) =  N/A
# P_orb (s)        =  N/A
# asin(i)/c (s)    =  N/A
# eccentricity     =  N/A
# w (rad)          =  N/A
# T_peri           =  N/A
######################################################
   0  1320.161
   1  1268.065
   2  1161.562
   3  866.6427
   4  617.6442
   5  602.4066
   6  701.9034
   7  592.0507
   8  502.7514
   9  501.3724
  10  529.9917
  11  729.2143
  12  845.9059
  13  817.0615
  14  780.9423
  15  657.6004
  16  666.9941
  17  595.9673
  18  568.6792
  19  714.382
  20  636.0175
  21  595.2104
  22  536.1207
  23  407.4371
  24  418.7905
  25  585.2928
  26  696.6957
  27  628.8918
  28  544.8702
  29  720.9045
  30  725.7455
  31  526.6664
  32  514.0176
  33  516.0895
  34  556.3439
  35  574.9745
  36  584.5034
  37  538.0322
  38  539.3122
  39  529.5768
  40  563.6668
  41  555.6487
  42  461.9281
  43  596.9581
  44  766.0813
  45  818.1946
  46  780.0783
  47  661.9959
  48  617.7732
  49  582.3112
  50  664.3383
  51  675.2856
  52  519.0388
  53  568.2308
  54  578.5268
  55  612.2285
  56  517.4622
  57  511.4652
  58  492.342
  59  568.8168
  60  697.6294
  61  763.8589
  62  774.3185
  63  748.1605
  64  678.1271
  65  623.7183
  66  581.4907
  67  614.0115
  68  594.8517
  69  515.3853
  70  537.3155
  71  645.4184
  72  589.3515
  73  578.8932
  74  518.4186
  75  497.8026
  76  669.6708
  77  659.3732
  78  689.8961
  79  577.6218
  80  503.7253
  81  528.612
  82  436.4011
  83  513.119
  84  512.8466
  85  486.8873
  86  621.3506
  87  628.8069
  88  605.361
  89  496.9772
  90  367.3394
  91  386.9014
  92  524.7461
  93  646.8967
  94  757.5906
  95  748.6192
  96  733.6956
  97  534.0735
  98  405.5536
  99  382.484
 100  412.6643
 101  537.2489
 102  529.2061
 103  539.637
 104  434.8478
 105  513.7112
 106  534.2948
 107  551.881
 108  519.6238
 109  509.6595
 110  530.4395
 111  536.5563
 112  638.4665
 113  554.9048
 114  569.1119
 115  458.7603
 116  351.0016
 117  249.5431
 118  346.9245
 119  509.2865
 120  541.6606
 121  465.9233
 122  504.0188
 123  482.9717
 124  467.2043
 125  474.495
 126  500.3657
 127  490.8748
 128  617.7393
 129  584.775
 130  610.7781
 131  546.2178
 132  466.5341
 133  459.6095
 134  418.8575
 135  411.1782
 136  651.3948
 137  680.2531
 138  583.571
 139  486.1881
 140  512.0332
 141  604.7266
 142  609.3862
 143  647.2211
 144  549.6762
 145  560.1446
 146  654.8029
 147  604.2794
 148  615.8071
 149  541.0141
 150  413.9261
 151  399.2632
 152  606.8709
 153  611.7352
 154  609.0706
 155  531.5533
 156  437.3719
 157  511.2797
 158  612.6514
 159  839.0099
 160  862.5483
 161  726.8892
 162  612.2476
 163  556.7427
 164  573.6074
 165  564.0319
 166  705.9922
 167  592.4506
 168  600.5853
 169  615.1509
 170  465.88
 171  561.5354
 172  629.5795
 173  588.3677
 174  627.1878
 175  580.8576
 176  670.402
 177  567.646
 178  614.434
 179  634.9881
 180  561.6218
 181  628.033
 182  636.6475
 183  502.4524
 184  514.9796
 185  561.3638
 186  711.6271
 187  574.7073
 188  502.8101
 189  549.1967
 190  553.4647
 191  509.0356
 192  671.2847
 193  602.9907
 194  601.7012
 195  535.5135
 196  652.6439
 197  647.7167
 198  606.2845
 199  510.2614
 200  539.5591
 201  696.6816
 202  817.2589
 203  799.0096
 204  593.7826
 205  536.3159
 206  536.1217
 207  429.5556
 208  530.1244
 209  527.4803
 210  725.9847
 211  739.0508
 212  721.6688
 213  702.6044
 214  534.3171
 215  443.3547
 216  441.6764
 217  507.0554
 218  599.3355
 219  548.323
 220  463.1736
 221  542.0097
 222  465.3336
 223  462.4966
 224  592.665
 225  751.5891
 226  736.4729
 227  547.7198
 228  534.2999
 229  579.2314
 230  610.0519
 231  564.9661
 232  424.8163
 233  583.9868
 234  539.0252
 235  485.5579
 236  551.7045
 237  522.5728
 238  485.2177
 239  490.4891
 240  465.3426
 241  414.8212
 242  703.9691
 243  725.3657
 244  759.3784
 245  807.4141
 246  600.2605
 247  553.8583
 248  636.1452
 249  582.09
 250  551.644
 251  556.8429
 252  504.7229
 253  500.4332
 254  374.8117
 255  498.6166
 256  544.9993
 257  482.7566
 258  549.0059
 259  698.9061
 260  713.0041
 261  584.7949
 262  674.6166
 263  604.3311
 264  409.6903
 265  474.8958
 266  646.8401
 267  763.5054
 268  705.6633
 269  560.4615
 270  473.5512
 271  433.9326
 272  510.7975
 273  554.9898
 274  484.541
 275  460.4921
 276  659.8314
 277  832.3005
 278  777.9302
 279  706.9979
 280  529.694
 281  541.6453
 282  574.3122
 283  710.4699
 284  725.4898
 285  740.1973
 286  619.2436
 287  622.2858
 288  657.723
 289  577.8481
 290  618.6161
 291  615.7159
 292  734.5587
 293  840.3937
 294  810.6928
 295  779.1918
 296  588.124
 297  445.3121
 298  401.7231
 299  399.6915
 300  538.7087
 301  748.0887
 302  768.2387
 303  704.8654
 304  582.1887
 305  554.3254
 306  443.7571
 307  564.3815
 308  686.6815
 309  661.9186
 310  639.7994
 311  697.3695
 312  629.2736
 313  620.6417
 314  623.5656
 315  589.5226
 316  677.2076
 317  611.9851
 318  558.775
 319  465.8235
 320  495.2057
 321  570.4446
 322  463.3681
 323  438.2442
 324  558.1219
 325  586.7338
 326  652.0493
 327  628.9435
 328  593.6248
 329  621.3388
 330  601.5465
 331  585.1161
 332  542.1595
 333  524.8867
 334  562.8351
 335  612.2205
 336  621.0848
 337  495.6712
 338  548.9167
 339  479.6013
 340  470.814
 341  617.5318
 342  753.0436
 343  754.5473
 344  664.2103
 345  575.7113
 346  620.9849
 347  621.7094
 348  616.6456
 349  625.2907
 350  689.2996
 351  689.392
 352  644.1522
 353  625.1974
 354  403.1002
 355  419.5101
 356  541.7294
 357  568.9443
 358  553.3625
 359  647.6117
 360  667.7714
 361  655.3041
 362  520.9564
 363  554.375
 364  484.5526
 365  538.8715
 366  588.5416
 367  576.3387
 368  649.2116
 369  686.0139
 370  692.7457
 371  421.2525
 372  493.7102
 373  547.2432
 374  777.7191
 375  864.7643
 376  801.7325
 377  739.4699
 378  681.1687
 379  679.6587
 380  571.6531
 381  608.2212
 382  624.9243
 383  715.3669
 384  796.9678
 385  664.0247
 386  615.9248
 387  523.0713
 388  605.1143
 389  525.7966
 390  608.5035
 391  724.8507
 392  775.5409
 393  661.2568
 394  579.2473
 395  604.2007
 396  635.2957
 397  620.3235
 398  551.6405
 399  719.417
 400  812.7037
 401  787.3094
 402  714.4355
 403  685.3282
 404  675.7054
 405  549.238
 406  539.6896
 407  597.3967
 408  764.4615
 409  761.0341
 410  747.8243
 411  709.0992
 412  544.7529
 413  509.3071
 414  474.5761
 415  588.5575
 416  664.5001
 417  732.4706
 418  590.7545
 419  486.4722
 420  533.437
 421  536.0909
 422  591.0245
 423  598.355
 424  519.8107
 425  638.0596
 426  810.7064
 427  908.461
 428  712.6538
 429  541.4971
 430  639.0754
 431  542.9804
 432  537.1631
 433  568.9985
 434  600.6238
 435  631.3275
 436  618.0712
 437  553.4203
 438  596.3759
 439  494.6779
 440  636.0703
 441  760.0872
 442  721.8051
 443  727.872
 444  651.4869
 445  613.1448
 446  482.3058
 447  434.245
 448  450.8844
 449  386.9876
 450  528.9688
 451  710.015
 452  528.8746
 453  471.0008
 454  494.6057
 455  558.5103
 456  599.6184
 457  630.462
 458  616.0242
 459  679.9759
 460  710.1667
 461  642.5034
 462  541.856
 463  485.602
 464  535.1391
 465  529.9223
 466  588.5629
 467  691.899
 468  595.6028
 469  509.0005
 470  445.3943
 471  522.0268
 472  636.72
 473  649.2108
 474  710.9193
 475  749.536
 476  761.0878
 477  717.8863
 478  717.6283
 479  632.9228
 480  552.9882
 481  573.4727
 482  566.4906
 483  692.1494
 484  701.2672
 485  679.0538
 486  635.4852
 487  527.0023
 488  505.8193
 489  570.8741
 490  728.9714
 491  863.1256
 492  782.6801
 493  686.228
 494  757.1367
 495  666.3725
 496  648.286
 497  595.4908
 498  690.8129
 499  755.2112
 500  717.9244
 501  660.0779
 502  642.1409
 503  576.3569
 504  601.3953
 505  695.3428
 506  814.2253
 507  853.5804
 508  1007.079
 509  1180.31
 510  1358.81
 511  1393.815
