# Input file       =  1209718813.113208_cleaned.dat
# Candidate        =  PSR_0332+5434
# Telescope        =  AR
# Epoch_topo       =  58245.375371680646
# Epoch_bary       =  N/A
# T_sample         =  0.002
# Data Folded      =  7340032
# Data Avg         =  0.110327920609312
# Data StdDev      =  4.36050136747837 
# Profile Bins     =  1024
# Profile Avg      =  790.809939191073 
# Profile StdDev   =  369.177670716955 
# Reduced chi-sqr  =  0.890
# Prob(Noise)      <  0.995   (~0.0 sigma)
# P_topo (ms)      =  714.540884999276  +/- 0.000586
# P'_topo (s/s)    =  -0                +/- 3.09e-10
# P''_topo (s/s^2) =  0                 +/- 1.36e-13
# P_bary (ms)      =  N/A
# P'_bary (s/s)    =  N/A
# P''_bary (s/s^2) =  N/A
# P_orb (s)        =  N/A
# asin(i)/c (s)    =  N/A
# eccentricity     =  N/A
# w (rad)          =  N/A
# T_peri           =  N/A
######################################################
   0  967.9456
   1  1033.458
   2  1038.942
   3  1117.332
   4  1061.851
   5  1033.708
   6  1079.129
   7  1141.855
   8  1036.452
   9  970.7729
  10  980.5697
  11  1021.106
  12  842.3051
  13  732.725
  14  761.6743
  15  762.2858
  16  834.7156
  17  827.1409
  18  976.5013
  19  988.4026
  20  1020.129
  21  1016.568
  22  969.6755
  23  873.7156
  24  884.7929
  25  773.1052
  26  731.27
  27  713.4859
  28  777.4667
  29  898.2414
  30  807.492
  31  777.1428
  32  850.0754
  33  912.5031
  34  811.3455
  35  671.9108
  36  736.373
  37  859.7389
  38  885.94
  39  853.988
  40  892.5659
  41  855.6559
  42  799.1685
  43  772.4668
  44  901.2739
  45  1075.114
  46  1168.404
  47  1176.681
  48  1234.569
  49  1267.12
  50  1247.498
  51  1103.865
  52  988.3615
  53  865.0011
  54  882.4003
  55  809.6169
  56  692.1703
  57  710.1876
  58  823.0383
  59  938.6349
  60  911.743
  61  932.7601
  62  992.2684
  63  966.4061
  64  1087.321
  65  1171.187
  66  1267.669
  67  1168.792
  68  1030.044
  69  919.4515
  70  800.4816
  71  924.8866
  72  943.0576
  73  985.5563
  74  962.6307
  75  1058.509
  76  1087.424
  77  980.7351
  78  883.4668
  79  955.2142
  80  891.5198
  81  787.4852
  82  661.6093
  83  706.478
  84  800.3993
  85  767.6202
  86  797.9391
  87  830.5814
  88  987.409
  89  966.3948
  90  878.5052
  91  931.2115
  92  822.2376
  93  762.4521
  94  569.6168
  95  637.4815
  96  751.4077
  97  799.2862
  98  772.8312
  99  769.0078
 100  843.7398
 101  993.3906
 102  860.796
 103  791.476
 104  720.2332
 105  830.0536
 106  967.6599
 107  903.8213
 108  900.6915
 109  859.2915
 110  755.2219
 111  762.2899
 112  703.7592
 113  792.8373
 114  895.4724
 115  964.2393
 116  862.491
 117  794.558
 118  712.2998
 119  650.9708
 120  635.1183
 121  780.2679
 122  889.8025
 123  774.3037
 124  720.351
 125  665.7673
 126  746.0069
 127  794.285
 128  826.863
 129  811.0069
 130  868.0699
 131  1003.475
 132  976.8225
 133  970.1468
 134  979.0427
 135  983.3354
 136  932.0216
 137  771.6382
 138  623.6491
 139  565.3592
 140  654.8626
 141  792.405
 142  843.0321
 143  779.4985
 144  737.4997
 145  792.0574
 146  858.1973
 147  790.2838
 148  722.7199
 149  942.3854
 150  990.6592
 151  1034.755
 152  938.2172
 153  936.1824
 154  924.2036
 155  843.0912
 156  829.6772
 157  806.4631
 158  876.8375
 159  988.465
 160  1010.412
 161  944.6926
 162  883.3376
 163  858.7212
 164  923.2906
 165  828.9797
 166  864.1636
 167  800.9394
 168  784.6441
 169  699.4333
 170  713.7968
 171  757.1891
 172  700.0497
 173  681.2801
 174  751.6251
 175  868.8807
 176  945.239
 177  898.0564
 178  946.2484
 179  1048.807
 180  1038.896
 181  1085.812
 182  911.9586
 183  806.4428
 184  608.1379
 185  694.9402
 186  830.5894
 187  894.5393
 188  885.4675
 189  901.0853
 190  1016.486
 191  1006.563
 192  1014.486
 193  925.2069
 194  1030.429
 195  1068.51
 196  1105.124
 197  914.238
 198  848.1943
 199  943.3458
 200  1005.455
 201  947.4161
 202  916.6225
 203  1017.156
 204  1110.296
 205  996.3431
 206  939.2101
 207  945.1348
 208  965.6797
 209  952.9832
 210  946.2631
 211  1024.117
 212  882.1899
 213  932.9907
 214  871.0319
 215  860.4847
 216  855.2355
 217  902.6686
 218  956.5915
 219  831.5358
 220  812.6215
 221  775.2394
 222  837.4631
 223  713.4785
 224  662.7927
 225  635.8336
 226  618.7314
 227  699.2978
 228  861.9576
 229  967.8942
 230  879.2739
 231  723.4559
 232  846.123
 233  798.3244
 234  844.474
 235  881.7869
 236  830.6769
 237  814.8734
 238  685.6284
 239  712.3918
 240  739.6736
 241  955.378
 242  993.0993
 243  924.4832
 244  911.8984
 245  903.4404
 246  760.6267
 247  621.1328
 248  550.8564
 249  638.3982
 250  716.2731
 251  758.6575
 252  797.3146
 253  775.0035
 254  709.9439
 255  718.5259
 256  711.5527
 257  671.5845
 258  538.1521
 259  523.6733
 260  515.5524
 261  512.3821
 262  559.2264
 263  636.2982
 264  678.8677
 265  669.6757
 266  636.3881
 267  657.9626
 268  707.1754
 269  737.573
 270  784.7273
 271  684.7647
 272  637.1457
 273  463.5886
 274  496.7571
 275  556.616
 276  795.3301
 277  816.0651
 278  809.1693
 279  716.2856
 280  720.4628
 281  744.6141
 282  833.6741
 283  825.7654
 284  763.7181
 285  719.355
 286  750.6956
 287  744.3083
 288  589.6597
 289  590.0649
 290  693.845
 291  802.4728
 292  696.9854
 293  744.2353
 294  796.0558
 295  1074.877
 296  961.9313
 297  904.3606
 298  770.3517
 299  874.8639
 300  1016.516
 301  856.9329
 302  809.3499
 303  665.4335
 304  695.2778
 305  652.0296
 306  619.8224
 307  621.8186
 308  478.9893
 309  568.4948
 310  664.8746
 311  898.95
 312  952.436
 313  907.154
 314  876.1605
 315  889.2392
 316  995.8926
 317  919.5001
 318  878.5419
 319  818.601
 320  893.9571
 321  738.179
 322  752.462
 323  685.4581
 324  749.0574
 325  730.3727
 326  913.7222
 327  1019.225
 328  1043.706
 329  1056.308
 330  1108.57
 331  1145.294
 332  1059.06
 333  886.1392
 334  865.6838
 335  783.683
 336  672.5924
 337  691.6106
 338  692.3394
 339  750.728
 340  681.1475
 341  821.7414
 342  943.6677
 343  929.2393
 344  863.6318
 345  838.1952
 346  933.4903
 347  915.3825
 348  911.5374
 349  866.3151
 350  933.8764
 351  1044.541
 352  792.7924
 353  559.4615
 354  536.9624
 355  635.4744
 356  713.061
 357  644.4777
 358  861.4471
 359  910.4128
 360  881.4309
 361  811.5868
 362  764.1447
 363  829.2144
 364  687.0239
 365  763.7227
 366  755.6772
 367  753.3657
 368  700.153
 369  590.3904
 370  707.8241
 371  663.0925
 372  719.5437
 373  800.228
 374  830.0397
 375  1016.451
 376  907.0146
 377  842.5148
 378  667.7407
 379  802.7667
 380  945.7905
 381  981.8214
 382  853.5817
 383  828.5963
 384  828.8738
 385  790.4737
 386  870.9745
 387  882.3651
 388  959.1946
 389  892.2524
 390  807.2274
 391  809.3179
 392  858.7585
 393  883.1447
 394  869.0089
 395  833.7359
 396  808.1276
 397  728.8228
 398  642.89
 399  573.6896
 400  574.0966
 401  688.2491
 402  737.0953
 403  718.6649
 404  560.5691
 405  548.2938
 406  574.4291
 407  736.7491
 408  643.1802
 409  570.9598
 410  549.5438
 411  693.6296
 412  810.9285
 413  865.0391
 414  895.0021
 415  842.9052
 416  664.7182
 417  643.854
 418  599.5926
 419  531.6702
 420  591.9202
 421  655.0047
 422  706.9824
 423  611.6902
 424  528.0571
 425  370.3683
 426  321.0358
 427  360.2228
 428  555.0359
 429  738.9
 430  804.7325
 431  804.9521
 432  791.1029
 433  784.104
 434  747.1033
 435  625.5378
 436  610.4643
 437  528.7445
 438  701.9553
 439  760.3355
 440  719.2155
 441  691.7037
 442  611.0638
 443  636.3828
 444  480.2821
 445  621.3011
 446  603.6911
 447  651.865
 448  657.0833
 449  713.5379
 450  887.2042
 451  919.8929
 452  852.8511
 453  828.7172
 454  872.8984
 455  888.4532
 456  865.4261
 457  890.2979
 458  860.0386
 459  876.3951
 460  834.7224
 461  734.051
 462  758.1281
 463  718.4678
 464  767.7635
 465  796.7036
 466  765.4307
 467  839.4714
 468  918.9572
 469  985.1179
 470  884.0886
 471  868.6378
 472  956.8245
 473  872.9081
 474  778.7737
 475  728.973
 476  932.0491
 477  889.1826
 478  922.9984
 479  732.2931
 480  817.4388
 481  840.4272
 482  868.8251
 483  922.3228
 484  916.039
 485  1004.751
 486  986.1453
 487  999.287
 488  789.3179
 489  700.6404
 490  615.6464
 491  609.9769
 492  481.7012
 493  476.864
 494  620.0018
 495  820.1983
 496  933.3998
 497  987.6957
 498  833.2336
 499  754.3381
 500  760.5028
 501  810.1302
 502  791.993
 503  714.619
 504  818.2957
 505  761.3143
 506  654.1014
 507  591.1666
 508  668.7126
 509  738.0571
 510  780.5601
 511  771.9846
 512  750.1841
 513  783.4471
 514  760.1437
 515  674.1871
 516  533.1785
 517  461.6753
 518  545.394
 519  572.5669
 520  613.6947
 521  577.5571
 522  615.7574
 523  521.2287
 524  516.1307
 525  577.5679
 526  614.8339
 527  577.1224
 528  556.777
 529  572.9903
 530  608.6677
 531  779.2296
 532  882.9124
 533  919.0535
 534  795.0961
 535  742.3958
 536  860.9001
 537  940.3883
 538  849.2448
 539  854.7522
 540  953.3852
 541  984.4048
 542  916.0981
 543  843.0538
 544  932.947
 545  821.8483
 546  763.7471
 547  721.6057
 548  769.721
 549  908.2255
 550  1076.312
 551  1061.74
 552  1031.436
 553  943.066
 554  863.209
 555  846.6718
 556  799.28
 557  788.8271
 558  788.9006
 559  949.2646
 560  1050.717
 561  976.1141
 562  980.4665
 563  896.5065
 564  986.5031
 565  976.9024
 566  909.7411
 567  831.7048
 568  770.2335
 569  873.1838
 570  936.2994
 571  876.3397
 572  826.2768
 573  817.837
 574  976.6453
 575  928.2069
 576  948.65
 577  916.922
 578  895.9041
 579  846.1555
 580  765.067
 581  638.4296
 582  748.5031
 583  852.1699
 584  1021.817
 585  981.1978
 586  885.096
 587  642.696
 588  658.8645
 589  760.8844
 590  906.284
 591  886.0593
 592  919.3322
 593  1062.618
 594  1189.903
 595  1263.745
 596  1367.081
 597  1549.06
 598  1728.741
 599  1908.222
 600  2001.51
 601  1903.667
 602  1704.706
 603  1577.121
 604  1522.368
 605  1562.098
 606  1278.55
 607  1101.285
 608  964.9352
 609  921.7298
 610  871.7602
 611  653.9952
 612  728.8104
 613  820.4886
 614  979.4394
 615  969.8635
 616  972.1191
 617  999.4568
 618  949.7347
 619  817.554
 620  776.8962
 621  827.9445
 622  829.2252
 623  714.9886
 624  783.3295
 625  853.2646
 626  957.9106
 627  898.4009
 628  874.5443
 629  921.6707
 630  1010.222
 631  1062.888
 632  1046.903
 633  990.6754
 634  878.9491
 635  1008.784
 636  1011.539
 637  1027.637
 638  894.6174
 639  860.7273
 640  908.0282
 641  982.3721
 642  863.5887
 643  785.4547
 644  721.1155
 645  786.1579
 646  836.9485
 647  905.3507
 648  1051.103
 649  977.6812
 650  879.1213
 651  806.6111
 652  931.0928
 653  1001.225
 654  862.5026
 655  708.4368
 656  536.7592
 657  522.4947
 658  483.5068
 659  604.2034
 660  698.9478
 661  860.7855
 662  877.4078
 663  833.803
 664  706.4809
 665  666.783
 666  705.7175
 667  766.4318
 668  881.4059
 669  919.1849
 670  947.0601
 671  786.8209
 672  754.7204
 673  743.36
 674  752.2017
 675  807.6003
 676  602.6655
 677  608.8129
 678  653.02
 679  787.0099
 680  861.6726
 681  805.3081
 682  842.4528
 683  849.3107
 684  835.7524
 685  786.1706
 686  550.8079
 687  538.7735
 688  557.8959
 689  524.9266
 690  545.6141
 691  571.5667
 692  809.6141
 693  888.6823
 694  991.6097
 695  956.6468
 696  820.9838
 697  613.9736
 698  608.2149
 699  690.2111
 700  754.9069
 701  670.5132
 702  694.8922
 703  832.8698
 704  1014.391
 705  1164.349
 706  1112.632
 707  968.3657
 708  886.1097
 709  864.0751
 710  951.0078
 711  1051.407
 712  1033.21
 713  790.4554
 714  632.8486
 715  641.5163
 716  730.4992
 717  733.8258
 718  795.406
 719  853.1091
 720  917.379
 721  905.6594
 722  908.4783
 723  855.6379
 724  796.744
 725  740.9244
 726  676.2421
 727  681.0616
 728  672.9399
 729  564.4678
 730  595.5289
 731  520.4304
 732  662.2026
 733  676.0252
 734  740.1201
 735  694.4451
 736  683.1681
 737  718.3294
 738  738.9199
 739  686.7947
 740  609.8827
 741  651.618
 742  776.4822
 743  751.6924
 744  749.3242
 745  852.7791
 746  1012.568
 747  953.9385
 748  952.6647
 749  1022.069
 750  991.5598
 751  958.3215
 752  912.5021
 753  973.7797
 754  957.1328
 755  992.7825
 756  923.9774
 757  824.7736
 758  746.3318
 759  767.5626
 760  850.3348
 761  997.6486
 762  1077.719
 763  1043.054
 764  953.6547
 765  957.2844
 766  910.8238
 767  816.705
 768  870.5341
 769  941.836
 770  893.1365
 771  716.5128
 772  738.7688
 773  818.7875
 774  787.2214
 775  533.4207
 776  282.1557
 777  291.1483
 778  487.3815
 779  575.793
 780  647.0687
 781  623.6522
 782  634.9649
 783  551.0742
 784  557.4307
 785  604.2042
 786  634.3839
 787  525.9503
 788  436.3835
 789  379.335
 790  422.9606
 791  574.7401
 792  647.4068
 793  654.55
 794  662.6365
 795  821.5536
 796  1002.828
 797  952.6718
 798  836.39
 799  780.6868
 800  863.1899
 801  847.0125
 802  779.3964
 803  697.6971
 804  805.9228
 805  810.6661
 806  730.3875
 807  670.637
 808  635.9252
 809  701.9451
 810  697.4069
 811  723.2076
 812  923.6518
 813  844.9695
 814  807.356
 815  595.9539
 816  700.9528
 817  687.0053
 818  569.9152
 819  410.5649
 820  349.6287
 821  352.5182
 822  344.3129
 823  302.6331
 824  374.7543
 825  307.0741
 826  305.946
 827  412.3083
 828  501.5171
 829  576.6522
 830  627.928
 831  655.4532
 832  449.4374
 833  317.6646
 834  340.8942
 835  472.0625
 836  521.6016
 837  418.7402
 838  416.9741
 839  530.4713
 840  604.698
 841  623.9427
 842  548.5046
 843  498.1863
 844  356.7328
 845  290.1685
 846  288.266
 847  486.9938
 848  614.4763
 849  642.4721
 850  613.6695
 851  538.5009
 852  486.3328
 853  475.6617
 854  493.8902
 855  452.0365
 856  482.6997
 857  498.3586
 858  494.6891
 859  474.0653
 860  461.4026
 861  435.192
 862  457.2321
 863  490.3229
 864  526.7533
 865  484.5114
 866  432.4029
 867  409.8819
 868  404.5316
 869  408.5193
 870  399.751
 871  498.3095
 872  558.9019
 873  601.7235
 874  485.9054
 875  405.6468
 876  405.9094
 877  610.9312
 878  766.6144
 879  673.267
 880  594.1736
 881  649.1696
 882  691.0319
 883  697.6591
 884  725.8383
 885  749.7266
 886  688.989
 887  726.1943
 888  829.9756
 889  826.2352
 890  706.1489
 891  646.1073
 892  650.2291
 893  749.1509
 894  742.6282
 895  705.8322
 896  610.6005
 897  520.5851
 898  452.0067
 899  371.938
 900  458.6698
 901  483.8326
 902  557.8597
 903  620.322
 904  647.6821
 905  563.0602
 906  490.1065
 907  538.263
 908  580.1271
 909  631.1072
 910  783.1882
 911  844.8398
 912  725.3457
 913  494.3656
 914  423.2062
 915  508.8156
 916  675.951
 917  776.8015
 918  731.2627
 919  630.4531
 920  562.707
 921  635.754
 922  711.3521
 923  719.2057
 924  760.3217
 925  834.5103
 926  872.1802
 927  771.801
 928  818.7258
 929  802.2618
 930  719.8867
 931  531.801
 932  485.4315
 933  502.7955
 934  492.3906
 935  643.2091
 936  661.1643
 937  756.8059
 938  670.5669
 939  661.7943
 940  620.656
 941  682.3129
 942  705.9147
 943  850.9461
 944  847.9824
 945  806.4695
 946  659.0793
 947  556.34
 948  549.6821
 949  667.0711
 950  710.4756
 951  723.7566
 952  758.321
 953  914.0635
 954  852.7617
 955  761.8448
 956  574.4312
 957  639.5732
 958  587.0629
 959  702.3512
 960  850.4491
 961  1066.425
 962  1020.347
 963  904.4014
 964  793.2236
 965  751.3223
 966  644.7504
 967  630.1581
 968  792.3033
 969  926.2952
 970  862.0532
 971  727.3547
 972  668.2902
 973  785.0259
 974  832.2788
 975  833.8944
 976  775.58
 977  829.0604
 978  874.0542
 979  894.166
 980  818.7529
 981  751.2893
 982  824.2673
 983  889.2327
 984  898.0645
 985  756.1021
 986  796.5327
 987  849.3168
 988  862.6467
 989  900.3153
 990  934.93
 991  1058.079
 992  902.6501
 993  771.6758
 994  693.0646
 995  718.9376
 996  803.4113
 997  748.563
 998  642.5145
 999  597.7759
1000  584.1313
1001  619.726
1002  693.3061
1003  799.9272
1004  820.7522
1005  834.9355
1006  896.1965
1007  958.8568
1008  965.5671
1009  1086.522
1010  1058.995
1011  1000.512
1012  890.7053
1013  944.1573
1014  837.1765
1015  753.893
1016  760.3015
1017  905.0002
1018  971.9137
1019  985.0132
1020  1001.935
1021  940.1418
1022  867.4041
1023  897.4814
