# Input file       =  1210580531.111079_cleaned.dat
# Candidate        =  PSR_0332+5434
# Telescope        =  AR
# Epoch_topo       =  58255.348959618968
# Epoch_bary       =  N/A
# T_sample         =  0.002
# Data Folded      =  7340032
# Data Avg         =  0.110562554019063
# Data StdDev      =  4.82197776965037 
# Profile Bins     =  512
# Profile Avg      =  1585.01666062098 
# Profile StdDev   =  577.350039701505 
# Reduced chi-sqr  =  0.895
# Prob(Noise)      <  0.957   (~0.0 sigma)
# P_topo (ms)      =  714.53129667385   +/- 0.000756
# P'_topo (s/s)    =  -0                +/- 3.99e-10
# P''_topo (s/s^2) =  0                 +/- 1.76e-13
# P_bary (ms)      =  N/A
# P'_bary (s/s)    =  N/A
# P''_bary (s/s^2) =  N/A
# P_orb (s)        =  N/A
# asin(i)/c (s)    =  N/A
# eccentricity     =  N/A
# w (rad)          =  N/A
# T_peri           =  N/A
######################################################
   0  1353.678
   1  1392.898
   2  1619.242
   3  2252.612
   4  1834.458
   5  1660.041
   6  1844.074
   7  1619.762
   8  1797.039
   9  1642.163
  10  1939.885
  11  2122.27
  12  1946.78
  13  1977.078
  14  2004.382
  15  2089.096
  16  1802.309
  17  1861.241
  18  1876.327
  19  1766.629
  20  1804.633
  21  2031.396
  22  2033.933
  23  1518.42
  24  1879.287
  25  1984.988
  26  1603.976
  27  1847.05
  28  2259.009
  29  1863
  30  1954.836
  31  1887.658
  32  1566.437
  33  1424.888
  34  1754.848
  35  1696.782
  36  1746.184
  37  1631.269
  38  1332.701
  39  1164.958
  40  1253.345
  41  1559.065
  42  1847.323
  43  1606.7
  44  1696.788
  45  1649.793
  46  1493.255
  47  1335.766
  48  1693.344
  49  1618.385
  50  1357.973
  51  1456.033
  52  1401.01
  53  1466.724
  54  1227.919
  55  1343.893
  56  1328.915
  57  1658.169
  58  1584.861
  59  1511.084
  60  1345.644
  61  1033.941
  62  1681.007
  63  1857.532
  64  1800.274
  65  1278.913
  66  1313.695
  67  1592.442
  68  1451.656
  69  1365.714
  70  1559.176
  71  1867.761
  72  1819.794
  73  1527.465
  74  1480.237
  75  1544.236
  76  1685.366
  77  1855.391
  78  1696.791
  79  1385.357
  80  1438.962
  81  1372.865
  82  1765.692
  83  1528.397
  84  1510.081
  85  1351.233
  86  1014.309
  87  1188.053
  88  1153.453
  89  983.0644
  90  1092.291
  91  1267.424
  92  1463.631
  93  1128.712
  94  1247.694
  95  1529.301
  96  1525.979
  97  1581.066
  98  1542.399
  99  1435.547
 100  1311.834
 101  1352.297
 102  1521.391
 103  1257.114
 104  1549.166
 105  1456.935
 106  1502.551
 107  1788.46
 108  1656.167
 109  1385.424
 110  1632.301
 111  2112.071
 112  1975.167
 113  1820.711
 114  1812.122
 115  1297.069
 116  1349.367
 117  1497.87
 118  1177.684
 119  1318.244
 120  1146.691
 121  1167.764
 122  1096.014
 123  1369.937
 124  1211.318
 125  1299.209
 126  1395.328
 127  1449.063
 128  1441.261
 129  1317.401
 130  1719.265
 131  1440.871
 132  1106.554
 133  1209.158
 134  1698.999
 135  1633.441
 136  1194.378
 137  1140.555
 138  1626.363
 139  1463.017
 140  1579.686
 141  1784.674
 142  1945.053
 143  1230.57
 144  1405.224
 145  1789.215
 146  1752.926
 147  1635.917
 148  1829.729
 149  1942.192
 150  2096.67
 151  1773.423
 152  1458.735
 153  1513.852
 154  1372.219
 155  1668.385
 156  1551.596
 157  1767.963
 158  1628.801
 159  1765.209
 160  1727.672
 161  1733.773
 162  1708.284
 163  1659.85
 164  1388.344
 165  1276.369
 166  1383.093
 167  1254.664
 168  1128.382
 169  1447.55
 170  1557.168
 171  1045.974
 172  1036.116
 173  1019.42
 174  1227.578
 175  1420.954
 176  1194.464
 177  858.9379
 178  805.6026
 179  690.085
 180  1004.472
 181  999.5349
 182  801.6042
 183  759.4222
 184  1211.065
 185  1202.462
 186  1462.199
 187  1661.032
 188  1402.542
 189  1266.552
 190  1192.34
 191  1515.168
 192  1450.703
 193  1233.44
 194  1213.635
 195  1123.106
 196  1393.467
 197  1396.847
 198  1297.861
 199  1805.02
 200  1778.237
 201  1407.536
 202  1153.651
 203  1394.653
 204  1348.962
 205  1446.824
 206  1155.124
 207  1475.095
 208  1217.651
 209  963.8338
 210  1455.424
 211  1270.668
 212  946.1932
 213  697.272
 214  973.5232
 215  1026.612
 216  944.4487
 217  473.2061
 218  468.2882
 219  700.7146
 220  904.9592
 221  1119.568
 222  1230.581
 223  1428.686
 224  1766.121
 225  1318.004
 226  1345.584
 227  1381.087
 228  915.6365
 229  1071.658
 230  1150.129
 231  1417.355
 232  1268.455
 233  1497.702
 234  1416.984
 235  1381.579
 236  1423.81
 237  907.1803
 238  1197.142
 239  1388.875
 240  1245.619
 241  1067.132
 242  1123.605
 243  1255.448
 244  1423.721
 245  1592.646
 246  1450.133
 247  1338.36
 248  1122.074
 249  1131.531
 250  1224.449
 251  1232.73
 252  1352.872
 253  1381.848
 254  1261.984
 255  1109.523
 256  1096.988
 257  912.0099
 258  897.0845
 259  716.3118
 260  1306.29
 261  1306.937
 262  1286.706
 263  1197.81
 264  1002.428
 265  1109.182
 266  1463.501
 267  1544.539
 268  1218.176
 269  1297.375
 270  1529.468
 271  1761.937
 272  1462.319
 273  1447.819
 274  1333.773
 275  1665.108
 276  1685.916
 277  1437.147
 278  1133.708
 279  1315.157
 280  1362.512
 281  1547.076
 282  1369.31
 283  1264.782
 284  1135.569
 285  984.7631
 286  917.8019
 287  807.2439
 288  741.6617
 289  749.5507
 290  973.513
 291  610.1724
 292  853.6246
 293  617.4335
 294  613.7864
 295  1105.598
 296  1647.538
 297  2061.568
 298  2220.515
 299  2618.009
 300  2661.597
 301  2501.554
 302  1945.061
 303  1220.303
 304  1139.199
 305  1055.653
 306  1057.821
 307  880.6195
 308  828.2305
 309  1160.828
 310  1250.717
 311  1316.424
 312  1111.974
 313  1060.781
 314  1271.87
 315  1617.183
 316  1495.914
 317  1726.005
 318  1604.198
 319  1823.444
 320  1810.869
 321  1643.489
 322  1505.508
 323  1030.436
 324  1169.835
 325  1528.778
 326  1495.297
 327  1770.142
 328  1629.686
 329  1531.961
 330  1781.685
 331  1767.469
 332  1464.68
 333  1436.494
 334  1599.664
 335  1610.409
 336  1429.499
 337  1391.498
 338  1567.616
 339  1436.357
 340  1359.307
 341  1202.862
 342  1533.5
 343  1280.874
 344  1601.921
 345  1828.493
 346  1770.527
 347  1854.767
 348  1821.769
 349  1934.818
 350  2247.709
 351  2442.111
 352  2321.493
 353  1892.958
 354  1993.808
 355  2066.707
 356  2033.992
 357  1901.728
 358  1852.584
 359  1889.387
 360  2126.319
 361  2126.176
 362  1914.373
 363  2025.872
 364  1854.289
 365  1739.962
 366  1873.019
 367  2302.876
 368  2235.953
 369  2018.224
 370  1820.02
 371  1593.961
 372  1808.405
 373  1757.722
 374  2037.128
 375  2065.595
 376  1977.061
 377  2036.476
 378  1994.736
 379  1747.924
 380  1834.604
 381  1882.747
 382  1950.297
 383  1941.993
 384  2047.117
 385  1975.502
 386  2355.977
 387  2461.652
 388  1653.358
 389  1904.208
 390  2020.689
 391  1916.19
 392  1851.546
 393  1842.588
 394  1970.49
 395  2216.071
 396  2435.915
 397  2492.724
 398  2333.012
 399  2255.986
 400  2222.695
 401  2437.719
 402  2679.406
 403  2390.781
 404  2440.758
 405  2674.716
 406  2692.739
 407  2392.265
 408  2277.405
 409  2435.739
 410  2385.334
 411  2426.316
 412  2407.808
 413  2015.428
 414  2117.678
 415  2045.133
 416  1894.758
 417  2013.051
 418  2387.985
 419  1995.545
 420  1684.525
 421  1575.187
 422  1636.509
 423  1670.764
 424  1684.885
 425  2046.057
 426  2047.563
 427  1809.966
 428  1710.522
 429  1792.555
 430  1686.022
 431  1663.212
 432  1850.507
 433  1860.576
 434  1608.112
 435  1625.593
 436  1665.732
 437  1550.649
 438  1666.608
 439  1569.563
 440  1343.03
 441  1759.415
 442  2045.277
 443  2047.238
 444  2316.234
 445  2011.18
 446  1636.184
 447  1699.929
 448  2009.738
 449  1888.477
 450  2041.3
 451  1729.094
 452  1632.214
 453  1477.327
 454  1804.394
 455  1781.307
 456  1567.682
 457  1715.368
 458  1679.858
 459  1737.846
 460  1662.652
 461  1704.349
 462  1706.228
 463  1840.236
 464  1751.531
 465  1541.908
 466  1441.461
 467  1492.611
 468  1662.011
 469  1753.906
 470  1467.987
 471  1652.255
 472  1644.258
 473  1404.032
 474  1384.995
 475  1538.416
 476  1565.711
 477  1513.295
 478  1790.263
 479  1896.373
 480  1725.724
 481  1910.38
 482  2129.823
 483  2006.793
 484  1779.865
 485  1789.943
 486  2039.307
 487  1783.359
 488  1834.664
 489  2114.46
 490  2297.676
 491  2104.018
 492  2213.434
 493  2206.95
 494  2236.978
 495  2077.05
 496  2081.747
 497  2266.371
 498  1996.984
 499  1969.156
 500  2123.191
 501  1667.191
 502  1752.931
 503  1852.202
 504  1658.347
 505  1635.598
 506  1427.98
 507  1603.357
 508  1823.941
 509  1647.46
 510  1347.346
 511  1224.714
