# Input file       =  1210393607.115757_cleaned.dat
# Candidate        =  PSR_0332+5434
# Telescope        =  AR
# Epoch_topo       =  58253.185487450894
# Epoch_bary       =  N/A
# T_sample         =  0.002
# Data Folded      =  7143424
# Data Avg         =  0.223624144843139
# Data StdDev      =  4.93928491977508 
# Profile Bins     =  1024
# Profile Avg      =  1559.98862794958 
# Profile StdDev   =  412.541187978332 
# Reduced chi-sqr  =  0.647
# Prob(Noise)      <  1   (~0.0 sigma)
# P_topo (ms)      =  714.53339737296   +/- 4.49e-05
# P'_topo (s/s)    =  -0                +/- 2.44e-11
# P''_topo (s/s^2) =  0                 +/- 1.11e-14
# P_bary (ms)      =  N/A
# P'_bary (s/s)    =  N/A
# P''_bary (s/s^2) =  N/A
# P_orb (s)        =  N/A
# asin(i)/c (s)    =  N/A
# eccentricity     =  N/A
# w (rad)          =  N/A
# T_peri           =  N/A
######################################################
   0  1508.032
   1  1613.54
   2  1732.185
   3  1742.939
   4  1787.011
   5  1729.056
   6  1588.917
   7  1597.451
   8  1563.64
   9  1513.563
  10  1438.755
  11  1543.349
  12  1740.839
  13  1673.681
  14  1634.696
  15  1625.743
  16  1679.167
  17  1583.038
  18  1479.869
  19  1555.227
  20  1609.489
  21  1504.057
  22  1562.324
  23  1550.531
  24  1477.443
  25  1340.549
  26  1367.358
  27  1358.621
  28  1287.782
  29  1405.431
  30  1565.875
  31  1397.738
  32  1248.799
  33  1245.683
  34  1487.47
  35  1477.504
  36  1468.468
  37  1487.385
  38  1458.17
  39  1690.939
  40  1818.284
  41  1865.039
  42  1696.609
  43  1566.887
  44  1627.891
  45  1508.205
  46  1245.805
  47  1276.676
  48  1435.427
  49  1509.337
  50  1480.185
  51  1466.026
  52  1517.291
  53  1451.661
  54  1552.657
  55  1672.483
  56  1580.314
  57  1434.955
  58  1551.396
  59  1586.557
  60  1397.853
  61  1190.423
  62  1380.34
  63  1490.928
  64  1404.155
  65  1489.474
  66  1556.828
  67  1570.026
  68  1437.78
  69  1492.855
  70  1599.522
  71  1552.194
  72  1697.275
  73  1672.206
  74  1576.555
  75  1450.369
  76  1541.619
  77  1584.297
  78  1498.057
  79  1512.554
  80  1597.579
  81  1682.42
  82  1582.377
  83  1649.03
  84  1607.507
  85  1544.83
  86  1387.999
  87  1411.049
  88  1342.112
  89  1305.285
  90  1480.643
  91  1539.494
  92  1484.675
  93  1463.888
  94  1642.473
  95  1789.747
  96  1717.895
  97  1612.162
  98  1630.986
  99  1500.504
 100  1474.636
 101  1516.69
 102  1440.541
 103  1438.244
 104  1432.233
 105  1650.939
 106  1499.66
 107  1533.207
 108  1726.183
 109  1828.845
 110  1681.433
 111  1484.808
 112  1508.135
 113  1701.781
 114  1731.015
 115  1622.671
 116  1338.343
 117  1217.713
 118  1323.949
 119  1299.127
 120  1338.931
 121  1181.064
 122  1208.181
 123  1283.216
 124  1247.304
 125  1305.014
 126  1274.189
 127  1513.393
 128  1499.573
 129  1380.627
 130  1436.126
 131  1583.638
 132  1686.248
 133  1621.827
 134  1374.207
 135  1448.151
 136  1293.842
 137  1485.565
 138  1462.697
 139  1544.813
 140  1576.337
 141  1526.86
 142  1527.928
 143  1556.048
 144  1537.658
 145  1745.488
 146  1715.914
 147  1600.48
 148  1561.698
 149  1548.394
 150  1714.793
 151  1472.898
 152  1397.434
 153  1412.576
 154  1391.563
 155  1553.944
 156  1480.219
 157  1395.186
 158  1275.286
 159  1342.445
 160  1544.877
 161  1443.477
 162  1498.604
 163  1611.282
 164  1608.531
 165  1563.392
 166  1493.604
 167  1577.036
 168  1657.972
 169  1564.112
 170  1636.574
 171  1432.658
 172  1549.725
 173  1573.083
 174  1516.739
 175  1426.139
 176  1240.294
 177  1273.24
 178  1301.905
 179  1371.821
 180  1470.228
 181  1534.961
 182  1688.893
 183  1697.73
 184  1587.993
 185  1556.789
 186  1365.49
 187  1342.289
 188  1553.836
 189  1594.76
 190  1513.149
 191  1274.387
 192  1385.41
 193  1195.043
 194  1059.543
 195  1175.822
 196  1514.522
 197  1519.632
 198  1409.101
 199  1311.029
 200  1478.008
 201  1512.251
 202  1584.988
 203  1500.923
 204  1393.278
 205  1511.899
 206  1574.845
 207  1548.241
 208  1391.837
 209  1393.442
 210  1511.385
 211  1440.94
 212  1381.096
 213  1503.828
 214  1619.145
 215  1618.339
 216  1522.515
 217  1587.553
 218  1519.647
 219  1476.531
 220  1541.828
 221  1628.66
 222  1539.332
 223  1481.287
 224  1656.362
 225  1705.928
 226  1502.805
 227  1316.003
 228  1438.772
 229  1475.545
 230  1325.664
 231  1324.899
 232  1402.111
 233  1464.513
 234  1381.104
 235  1532.359
 236  1636.53
 237  1707.285
 238  1785.909
 239  1743.942
 240  1470.527
 241  1405.847
 242  1577.831
 243  1747.082
 244  1579.959
 245  1373.641
 246  1440.801
 247  1468.429
 248  1392.487
 249  1382.36
 250  1484.821
 251  1598.31
 252  1479.235
 253  1483.234
 254  1349.195
 255  1294.969
 256  1536.234
 257  1651.761
 258  1553.42
 259  1306.251
 260  1439.714
 261  1587.323
 262  1457.215
 263  1415.897
 264  1501.28
 265  1603.503
 266  1600.995
 267  1475.339
 268  1382.069
 269  1219.824
 270  1313.182
 271  1534.962
 272  1510.386
 273  1564.255
 274  1664.75
 275  1891.369
 276  1894.24
 277  1659.076
 278  1761.754
 279  1836.738
 280  1874.337
 281  1731.875
 282  1554.529
 283  1497.279
 284  1410.868
 285  1478.874
 286  1692.419
 287  1605.418
 288  1625.822
 289  1797.205
 290  1845.369
 291  1904.808
 292  1777.993
 293  1812.862
 294  1628.225
 295  1425.309
 296  1618.257
 297  1667.541
 298  1742.977
 299  1621.046
 300  1516.135
 301  1472.936
 302  1356.984
 303  1557.587
 304  1678.241
 305  1732.749
 306  1773.979
 307  1884.611
 308  1866.937
 309  1676.819
 310  1589.858
 311  1832.794
 312  1864.551
 313  1894.498
 314  1781.294
 315  1659.526
 316  1600.043
 317  1516.414
 318  1659.462
 319  1609
 320  1611.063
 321  1598.415
 322  1511.807
 323  1419.344
 324  1316.001
 325  1579.888
 326  1704.777
 327  1631.716
 328  1565.807
 329  1732.601
 330  1859.71
 331  1893.408
 332  1896.33
 333  2015.452
 334  1929.701
 335  1820.247
 336  1859.305
 337  1655.778
 338  1694.586
 339  1640.925
 340  1812.186
 341  1780.32
 342  1562.213
 343  1715.315
 344  1766.17
 345  1781.998
 346  1693.05
 347  1664.982
 348  1682.232
 349  1550.63
 350  1562.551
 351  1802.573
 352  1737.541
 353  1689.528
 354  1567.589
 355  1455.319
 356  1416.359
 357  1460.29
 358  1666.168
 359  1592.268
 360  1564.345
 361  1699.748
 362  1811.744
 363  1761.047
 364  1583.529
 365  1671.131
 366  1826.421
 367  1893.132
 368  1938.438
 369  1940.043
 370  1738.008
 371  1664.255
 372  1630.345
 373  1636.045
 374  1469.834
 375  1334.874
 376  1402.089
 377  1443.598
 378  1412.223
 379  1528.525
 380  1700.974
 381  1834.793
 382  1802.77
 383  1768.223
 384  1774.804
 385  1718.393
 386  1827.7
 387  1776.549
 388  1646.472
 389  1466.445
 390  1629.691
 391  1611.771
 392  1437.134
 393  1316.811
 394  1528.099
 395  1653.101
 396  1517.191
 397  1474.273
 398  1563.791
 399  1730.797
 400  1784.105
 401  1780.029
 402  1591.854
 403  1565.789
 404  1763.834
 405  2012.7
 406  1901.742
 407  1780.15
 408  1867.794
 409  1932.878
 410  1767.719
 411  1666.397
 412  1684.015
 413  1666.799
 414  1649.358
 415  1671.565
 416  1759.597
 417  1692.54
 418  1614.818
 419  1625.503
 420  1592.771
 421  1613.621
 422  1815.854
 423  1772.694
 424  1628.284
 425  1513.768
 426  1731.085
 427  1818.184
 428  1667.672
 429  1684.327
 430  1672.069
 431  1678.203
 432  1613.633
 433  1586.993
 434  1597.929
 435  1497.804
 436  1588.182
 437  1723.901
 438  1614.33
 439  1536.813
 440  1585.043
 441  1826.215
 442  1869.744
 443  1682.994
 444  1737.975
 445  1771.862
 446  1763.413
 447  1778.24
 448  1723.513
 449  1571.845
 450  1293.504
 451  1262.967
 452  1424.355
 453  1485.213
 454  1680.843
 455  1809.549
 456  1767.732
 457  1562.668
 458  1590.22
 459  1875.092
 460  1735.997
 461  1552.303
 462  1390.391
 463  1512.488
 464  1601.535
 465  1588.02
 466  1653.303
 467  1562.808
 468  1640.77
 469  1835.36
 470  1813.815
 471  1753.535
 472  1630.712
 473  1742.278
 474  1796.975
 475  1738.242
 476  1735.077
 477  1691.203
 478  1639.795
 479  1588.183
 480  1550.922
 481  1611.483
 482  1567.831
 483  1529.062
 484  1699.332
 485  1648.9
 486  1558.822
 487  1328.094
 488  1265.893
 489  1309.764
 490  1364.078
 491  1596.648
 492  1713.414
 493  1615.252
 494  1654.528
 495  1669.711
 496  1798.077
 497  1718.025
 498  1762.834
 499  1754.725
 500  1607.084
 501  1561.508
 502  1597.49
 503  1550.585
 504  1481.974
 505  1352.302
 506  1352.739
 507  1282.384
 508  1299.245
 509  1421.071
 510  1548.651
 511  1712.62
 512  1765.372
 513  1622.593
 514  1564.283
 515  1359.365
 516  1451.308
 517  1389.97
 518  1386.957
 519  1386.01
 520  1425.332
 521  1366.089
 522  1151.391
 523  1226.837
 524  1380.74
 525  1299.915
 526  1223.322
 527  1366.55
 528  1519.308
 529  1535.841
 530  1304.69
 531  1332.029
 532  1380.914
 533  1546.896
 534  1657.379
 535  1609.953
 536  1546.807
 537  1514.226
 538  1576.195
 539  1570.567
 540  1374.839
 541  1483.566
 542  1529.884
 543  1479.427
 544  1247.289
 545  1124.237
 546  1108.548
 547  1216.367
 548  1369.222
 549  1566.006
 550  1416.904
 551  1328.903
 552  1489.04
 553  1527.257
 554  1414.97
 555  1261.037
 556  1433.567
 557  1331.672
 558  1132.901
 559  1155.949
 560  1460.399
 561  1508.652
 562  1477.182
 563  1389.768
 564  1451.87
 565  1507.488
 566  1610.917
 567  1692.379
 568  1563.557
 569  1566.295
 570  1608.965
 571  1742.448
 572  1616.529
 573  1442.224
 574  1362.375
 575  1490.992
 576  1427.687
 577  1404.968
 578  1358.279
 579  1431.493
 580  1571.84
 581  1563.761
 582  1457.816
 583  1324.688
 584  1427.14
 585  1440.519
 586  1383.135
 587  1275.222
 588  1467.706
 589  1627.425
 590  1659.443
 591  1592.505
 592  1773.102
 593  1958.479
 594  2132.962
 595  2069.282
 596  2155.921
 597  2263.456
 598  2434.801
 599  2522.852
 600  2539.284
 601  2591.013
 602  2696.811
 603  2625.265
 604  2325.067
 605  2106.791
 606  1935.729
 607  1826.076
 608  1749.919
 609  1701.291
 610  1694.603
 611  1609.012
 612  1537.062
 613  1448.34
 614  1425.185
 615  1408.137
 616  1300.114
 617  1404.543
 618  1378.203
 619  1399.59
 620  1499.957
 621  1521.96
 622  1471.073
 623  1332.052
 624  1465.242
 625  1706.318
 626  1716.742
 627  1563.73
 628  1366.979
 629  1346.168
 630  1483.945
 631  1403.799
 632  1346.146
 633  1307.398
 634  1503.143
 635  1565.694
 636  1455.021
 637  1494.151
 638  1437.403
 639  1435.556
 640  1357.488
 641  1399.031
 642  1523.967
 643  1594.338
 644  1629.249
 645  1689.289
 646  1642.291
 647  1653.836
 648  1428.601
 649  1423.91
 650  1405.307
 651  1323.599
 652  1308.433
 653  1317.012
 654  1402.318
 655  1272.077
 656  1205.585
 657  1405.016
 658  1535.56
 659  1617.123
 660  1781.322
 661  1773.297
 662  1795.974
 663  1627.128
 664  1599.813
 665  1447.555
 666  1271.573
 667  1475.636
 668  1606.429
 669  1526.324
 670  1427.012
 671  1428.71
 672  1612.809
 673  1439.057
 674  1330.611
 675  1403.618
 676  1563.171
 677  1731.288
 678  1814.492
 679  1814.054
 680  1626.532
 681  1408.437
 682  1475.945
 683  1488.625
 684  1465.239
 685  1468.265
 686  1491.982
 687  1437.79
 688  1298.435
 689  1579.83
 690  1703.674
 691  1536.841
 692  1374.044
 693  1461.695
 694  1505.078
 695  1479.569
 696  1422.128
 697  1570.151
 698  1442.552
 699  1481.156
 700  1471.38
 701  1489.399
 702  1545.745
 703  1611.275
 704  1731.775
 705  1633.479
 706  1483.145
 707  1486.515
 708  1523.488
 709  1507.816
 710  1545.89
 711  1535.967
 712  1539.218
 713  1498.181
 714  1565.467
 715  1661.001
 716  1428.982
 717  1455.595
 718  1488.891
 719  1529.387
 720  1364.822
 721  1329.655
 722  1616.847
 723  1525.892
 724  1421.585
 725  1380.329
 726  1393.142
 727  1531.517
 728  1547.091
 729  1796.962
 730  1756.446
 731  1791.615
 732  1789.665
 733  1744.903
 734  1572.066
 735  1748.639
 736  1853.656
 737  1897.71
 738  1719.008
 739  1573.833
 740  1552.452
 741  1509.084
 742  1559.195
 743  1647.834
 744  1469.094
 745  1398.059
 746  1254.993
 747  1394.866
 748  1347.757
 749  1370.174
 750  1463.383
 751  1601.211
 752  1446.798
 753  1429.459
 754  1580.368
 755  1784.205
 756  1577.334
 757  1412.653
 758  1444.121
 759  1479.163
 760  1432.131
 761  1275.754
 762  1385.678
 763  1463.685
 764  1640.786
 765  1681.919
 766  1700.496
 767  1753.882
 768  1882.865
 769  1842.962
 770  1719.016
 771  1480.728
 772  1544.199
 773  1605.348
 774  1696.859
 775  1704.541
 776  1756.739
 777  1669.643
 778  1451.969
 779  1193.083
 780  1159.265
 781  1130.158
 782  1333.459
 783  1592.456
 784  1746.7
 785  1640.453
 786  1632.023
 787  1614.397
 788  1606.824
 789  1417.051
 790  1614.136
 791  1743.356
 792  1664.956
 793  1506.568
 794  1260.201
 795  1316.418
 796  1442.446
 797  1622.786
 798  1646.144
 799  1540.494
 800  1603.063
 801  1722.013
 802  1752.514
 803  1791.069
 804  1619.982
 805  1680.669
 806  1576.804
 807  1589.868
 808  1677.261
 809  1693.845
 810  1706.992
 811  1651.869
 812  1676.749
 813  1726.752
 814  1530.674
 815  1596.983
 816  1679.345
 817  1567.813
 818  1546.015
 819  1619.649
 820  1687.036
 821  1443.489
 822  1444.953
 823  1717.406
 824  1706.195
 825  1543.05
 826  1595.11
 827  1796.02
 828  1821.977
 829  1736.172
 830  1718.798
 831  1579.426
 832  1453.244
 833  1559.013
 834  1532.955
 835  1486.004
 836  1375.693
 837  1569.311
 838  1718.936
 839  1700.685
 840  1637.818
 841  1707.054
 842  1680.349
 843  1577.54
 844  1398.956
 845  1429.172
 846  1365.207
 847  1411.68
 848  1525.065
 849  1452.041
 850  1345.347
 851  1264.496
 852  1332.777
 853  1304.276
 854  1121.906
 855  1344.654
 856  1561.52
 857  1553.35
 858  1551.999
 859  1523.873
 860  1676.088
 861  1622.313
 862  1793.07
 863  1746.145
 864  1629.439
 865  1611.421
 866  1706.714
 867  1648.611
 868  1482.738
 869  1309.476
 870  1388.253
 871  1436.268
 872  1440.922
 873  1579.856
 874  1579.106
 875  1664.98
 876  1623.533
 877  1584.393
 878  1557.869
 879  1371.493
 880  1642.227
 881  1606.956
 882  1573.893
 883  1400.575
 884  1471.645
 885  1401.538
 886  1238.912
 887  1353.832
 888  1515.751
 889  1344.19
 890  1171.536
 891  1275.181
 892  1537.782
 893  1599.725
 894  1543.055
 895  1578.738
 896  1573.677
 897  1659.664
 898  1788.34
 899  1732.69
 900  1621.293
 901  1612.01
 902  1800.717
 903  1716.96
 904  1493.834
 905  1437.022
 906  1579.243
 907  1511.305
 908  1465.826
 909  1482.524
 910  1499.975
 911  1436.346
 912  1411.121
 913  1517.982
 914  1396.095
 915  1360.798
 916  1528.008
 917  1576.831
 918  1454.973
 919  1384.457
 920  1534.344
 921  1623.539
 922  1367.732
 923  1280.756
 924  1353.793
 925  1438.698
 926  1472.647
 927  1454.53
 928  1561.291
 929  1628.93
 930  1706.85
 931  1736.627
 932  1643.584
 933  1743.262
 934  1881.718
 935  1877.088
 936  1666.171
 937  1356.163
 938  1409.26
 939  1523.678
 940  1649.773
 941  1663.365
 942  1497.666
 943  1322.947
 944  1280.659
 945  1315.938
 946  1221.824
 947  1151.717
 948  1308.031
 949  1604.901
 950  1597.933
 951  1578.52
 952  1727.499
 953  1884.363
 954  1717.424
 955  1472.426
 956  1542.243
 957  1483.413
 958  1352.557
 959  1280.819
 960  1420.847
 961  1577.723
 962  1526.637
 963  1495.56
 964  1420.919
 965  1432.854
 966  1647.587
 967  1823.399
 968  1862.744
 969  1658.945
 970  1598.614
 971  1569.892
 972  1500.952
 973  1527.85
 974  1552.217
 975  1472.987
 976  1452.144
 977  1489.811
 978  1586.106
 979  1567.241
 980  1553.177
 981  1599.544
 982  1477.286
 983  1362.885
 984  1407.555
 985  1508.375
 986  1578.092
 987  1484.965
 988  1631.793
 989  1789.525
 990  1814.052
 991  1685.781
 992  1566.858
 993  1725.049
 994  1675.902
 995  1631.651
 996  1532.913
 997  1489.356
 998  1509.292
 999  1557.16
1000  1594.364
1001  1630.111
1002  1458.761
1003  1666.874
1004  1876.945
1005  1901.798
1006  1820.746
1007  1637.038
1008  1701.491
1009  1684.458
1010  1589.89
1011  1709.724
1012  1562.206
1013  1685.203
1014  1640.501
1015  1626.336
1016  1571.049
1017  1489.721
1018  1459.825
1019  1364.224
1020  1226.234
1021  1453.396
1022  1491.993
1023  1517.889
