# Input file       =  1210580531.111079_cleaned.dat
# Candidate        =  PSR_0332+5434
# Telescope        =  AR
# Epoch_topo       =  58255.348959618968
# Epoch_bary       =  N/A
# T_sample         =  0.002
# Data Folded      =  7340032
# Data Avg         =  0.110562554019063
# Data StdDev      =  4.82197776965037 
# Profile Bins     =  1024
# Profile Avg      =  792.50833034108  
# Profile StdDev   =  408.248128191257 
# Reduced chi-sqr  =  0.795
# Prob(Noise)      <  1   (~0.0 sigma)
# P_topo (ms)      =  714.531296606466  +/- 0.000756
# P'_topo (s/s)    =  -0                +/- 3.99e-10
# P''_topo (s/s^2) =  0                 +/- 1.76e-13
# P_bary (ms)      =  N/A
# P'_bary (s/s)    =  N/A
# P''_bary (s/s^2) =  N/A
# P_orb (s)        =  N/A
# asin(i)/c (s)    =  N/A
# eccentricity     =  N/A
# w (rad)          =  N/A
# T_peri           =  N/A
######################################################
   0  674.013
   1  709.4655
   2  736.099
   3  618.7769
   4  823.2557
   5  984.8022
   6  1178.891
   7  1037.436
   8  943.028
   9  806.4161
  10  822.9062
  11  935.9948
  12  934.5643
  13  846.4534
  14  787.1771
  15  849.3857
  16  911.5458
  17  836.819
  18  816.6497
  19  864.5652
  20  970.0628
  21  1077.256
  22  1060.2
  23  1039.549
  24  959.7148
  25  968.624
  26  989.8487
  27  993.9185
  28  996.6676
  29  1042.783
  30  1055.82
  31  976.9565
  32  881.8589
  33  873.0341
  34  935.3099
  35  990.8652
  36  933.824
  37  898.3033
  38  856.8123
  39  927.4791
  40  878.5603
  41  940.4999
  42  1014.087
  43  1089.864
  44  1033.645
  45  837.2003
  46  748.5441
  47  795.2923
  48  939.1637
  49  1013.627
  50  990.4282
  51  944.3132
  52  756.1501
  53  813.5079
  54  895.3594
  55  1105.579
  56  1153.734
  57  1025.897
  58  918.8606
  59  921.3671
  60  1007
  61  989.16
  62  923.2411
  63  893.2662
  64  760.5327
  65  716.2723
  66  686.1205
  67  795.2019
  68  895.2331
  69  892.3152
  70  867.2525
  71  829.6186
  72  861.7507
  73  898.1848
  74  821.6013
  75  670.7165
  76  687.1378
  77  633.8485
  78  613.233
  79  522.7897
  80  621.399
  81  744.9526
  82  762.9543
  83  853.0925
  84  926.9153
  85  907.8779
  86  778.7703
  87  812.4528
  88  848.2864
  89  873.3754
  90  803.3235
  91  804.8634
  92  753.8445
  93  689.9066
  94  632.0726
  95  736.3395
  96  840.3095
  97  907.1904
  98  830.1963
  99  699.7662
 100  681.5168
 101  678.7126
 102  758.7687
 103  688.6691
 104  715.7745
 105  713.8148
 106  756.5493
 107  640.1879
 108  603.1345
 109  666.5287
 110  700.3615
 111  610.5546
 112  646.2777
 113  780.2681
 114  846.5372
 115  810.9316
 116  785.4749
 117  772.1455
 118  760.4747
 119  730.1508
 120  701.2193
 121  530.0004
 122  502.7152
 123  637.1974
 124  887.3013
 125  907.3085
 126  922.7364
 127  983.3102
 128  904.4976
 129  759.8629
 130  631.6982
 131  589.9669
 132  677.1163
 133  698.0042
 134  817.456
 135  809.7506
 136  712.3253
 137  675.3906
 138  658.4485
 139  746.1249
 140  768.0714
 141  854.316
 142  937.2748
 143  977.1331
 144  929.353
 145  781.7009
 146  775.4772
 147  727.532
 148  744.2986
 149  776.9894
 150  778.1605
 151  748.8401
 152  853.3699
 153  908.9692
 154  930.9305
 155  917.7671
 156  847.1393
 157  752.8772
 158  679.7705
 159  720.9907
 160  729.7628
 161  647.3684
 162  686.5902
 163  827.0389
 164  893.0554
 165  827.8578
 166  743.1763
 167  771.0517
 168  740.6852
 169  764.6525
 170  655.9915
 171  590.3228
 172  484.489
 173  508.2656
 174  618.3774
 175  609.011
 176  592.5697
 177  511.7693
 178  504.6851
 179  462.2408
 180  578.9069
 181  562.7006
 182  643.4907
 183  706.862
 184  735.8611
 185  681.9665
 186  519.3201
 187  563.3117
 188  633.9924
 189  700.1632
 190  779.1893
 191  748.9752
 192  770.486
 193  798.1589
 194  763.8012
 195  801.3282
 196  758.4699
 197  774.2734
 198  737.5876
 199  638.6641
 200  671.0891
 201  629.4983
 202  676.2767
 203  747.2795
 204  776.7601
 205  712.6793
 206  575.0346
 207  694.8974
 208  788.4457
 209  797.2523
 210  737.2663
 211  662.5684
 212  771.6147
 213  828.5601
 214  914.3158
 215  880.5475
 216  807.4468
 217  789.0222
 218  652.2847
 219  712.4873
 220  788.8535
 221  1007.396
 222  1048.815
 223  1056.532
 224  991.6494
 225  914.0938
 226  918.869
 227  912.7964
 228  948.2423
 229  774.3062
 230  649.3632
 231  559.1297
 232  689.5448
 233  784.6758
 234  754.9374
 235  651.7391
 236  551.4214
 237  648.2337
 238  656.4055
 239  633.4629
 240  547.3641
 241  593.7136
 242  600.615
 243  503.4192
 244  530.2879
 245  665.8265
 246  676.6443
 247  680.8865
 248  597.6785
 249  599.7425
 250  639.3328
 251  702.0265
 252  699.7646
 253  680.1556
 254  726.6292
 255  765.3196
 256  712.8538
 257  658.3105
 258  635.0809
 259  772.291
 260  874.4553
 261  833.1524
 262  732.8785
 263  607.4698
 264  555.5598
 265  528.6079
 266  594.5708
 267  704.2282
 268  883.9894
 269  888.9731
 270  822.0272
 271  745.4584
 272  558.0225
 273  509.7343
 274  541.1407
 275  767.0314
 276  835.8312
 277  757.3798
 278  717.4815
 279  737.9717
 280  804.606
 281  831.2745
 282  872.5306
 283  992.6023
 284  983.5961
 285  834.7286
 286  602.6327
 287  555.7986
 288  701.207
 289  804.9779
 290  927.462
 291  902.0692
 292  910.4097
 293  781.1295
 294  833.5552
 295  835.7483
 296  964.9586
 297  921.8192
 298  975.5024
 299  1001.482
 300  1059.94
 301  1007.661
 302  908.1275
 303  726.0298
 304  706.269
 305  804.186
 306  742.4114
 307  674.5482
 308  663.272
 309  831.0049
 310  831.7377
 311  790.0858
 312  794.8549
 313  781.4613
 314  903.9413
 315  919.7984
 316  800.0151
 317  769.0285
 318  890.851
 319  955.8283
 320  856.456
 321  815.7004
 322  842.9261
 323  921.3413
 324  844.7143
 325  854.4233
 326  818.6556
 327  780.2271
 328  695.3705
 329  626.4221
 330  623.4717
 331  696.4633
 332  683.5157
 333  674.7195
 334  624.9642
 335  569.0868
 336  573.5292
 337  597.269
 338  729.8675
 339  809.3531
 340  786.0189
 341  664.4214
 342  506.8459
 343  496.9761
 344  493.1552
 345  543.9101
 346  516.5468
 347  518.0474
 348  622.795
 349  706.3583
 350  707.9854
 351  660.4164
 352  590.2969
 353  536.3356
 354  397.8776
 355  417.2126
 356  417.8589
 357  327.0668
 358  340.4918
 359  426.7211
 360  494.7926
 361  557.4442
 362  480.7253
 363  489.4202
 364  386.4833
 365  331.2497
 366  360.1359
 367  498.7859
 368  619.2054
 369  636.1949
 370  598.4019
 371  640.1401
 372  715.5539
 373  848.1374
 374  833.6303
 375  748.8638
 376  701.0785
 377  672.6716
 378  626.0683
 379  589.8441
 380  574.6344
 381  690.0975
 382  751.3607
 383  842.7844
 384  689.5726
 385  657.6174
 386  578.0672
 387  642.7101
 388  600.731
 389  568.8798
 390  540.0336
 391  621.8692
 392  689.3782
 393  766.3859
 394  706.132
 395  593.946
 396  638.4857
 397  781.0141
 398  932.4455
 399  911.0887
 400  896.3186
 401  857.4365
 402  700.6208
 403  583.6051
 404  541.5043
 405  671.9436
 406  703.3028
 407  685.7958
 408  661.9067
 409  702.6387
 410  748.9915
 411  637.6835
 412  535.8628
 413  647.4232
 414  749.6494
 415  737.8696
 416  618.4764
 417  481.7078
 418  471.6891
 419  586.1317
 420  741.5228
 421  757.5432
 422  637.8276
 423  515.2812
 424  496.5808
 425  392.4684
 426  336.3854
 427  361.76
 428  498.6321
 429  550.8221
 430  509.2575
 431  501.3455
 432  500.1584
 433  353.7287
 434  230.35
 435  164.2402
 436  256.7592
 437  278.5003
 438  374.617
 439  371.8983
 440  468.1196
 441  513.4574
 442  569.5375
 443  575.9255
 444  614.6446
 445  637.0576
 446  711.6541
 447  808.0887
 448  912.5281
 449  850.167
 450  645.9751
 451  578.3203
 452  669.1447
 453  750.5876
 454  709.9095
 455  534.1809
 456  443.9787
 457  502.2533
 458  536.1694
 459  535.8522
 460  548.296
 461  705.153
 462  717.144
 463  635.4352
 464  615.1594
 465  715.3342
 466  761.7745
 467  734.2725
 468  699.646
 469  680.3337
 470  680.6654
 471  750.4827
 472  727.0217
 473  588.5082
 474  413.9128
 475  438.0418
 476  633.2841
 477  659.9679
 478  738.9099
 479  660.9759
 480  621.731
 481  575.9576
 482  499.5548
 483  555.7786
 484  527.0366
 485  629.5524
 486  603.2819
 487  667.5576
 488  736.4146
 489  755.7917
 490  829.4344
 491  734.8935
 492  735.9784
 493  677.87
 494  684.7065
 495  613.842
 496  538.6537
 497  572.0317
 498  535.5115
 499  667.3522
 500  599.5106
 501  585.7144
 502  589.8989
 503  674.1829
 504  677.0701
 505  640.7929
 506  690.3435
 507  742.0326
 508  623.1603
 509  557.8873
 510  534.1966
 511  609.6415
 512  527.1848
 513  515.1627
 514  439.7396
 515  453.9875
 516  440.9832
 517  378.1131
 518  330.9224
 519  494.7458
 520  655.9006
 521  769.2842
 522  638.2471
 523  592.5098
 524  659.4418
 525  627.8259
 526  612.6838
 527  519.3563
 528  501.6748
 529  505.8305
 530  546.8209
 531  651.7492
 532  720.895
 533  810.454
 534  767.4515
 535  700.2474
 536  595.0899
 537  595.9901
 538  643.6475
 539  727.2299
 540  742.0877
 541  878.1797
 542  873.9919
 543  827.6349
 544  709.2754
 545  689.4203
 546  750.9283
 547  692.0583
 548  648.6636
 549  727.1907
 550  824.0023
 551  899.4471
 552  819.0563
 553  837.9531
 554  730.9529
 555  576.4677
 556  567.0497
 557  613.22
 558  658.3571
 559  650.2592
 560  672.2025
 561  743.5872
 562  780.1302
 563  741.5659
 564  691.6753
 565  628.8389
 566  628.5704
 567  620.9872
 568  573.7258
 569  555.2209
 570  461.7891
 571  498.3729
 572  452.5488
 573  413.2364
 574  415.8197
 575  364.5632
 576  389.8715
 577  333.8189
 578  381.2928
 579  466.7967
 580  498.1122
 581  406.1346
 582  286.5866
 583  317.2377
 584  424.7069
 585  456.5593
 586  287.3026
 587  241.6332
 588  294.2466
 589  415.9377
 590  569.0037
 591  661.309
 592  828.9732
 593  1000.018
 594  1027.768
 595  1015.741
 596  1102.663
 597  1250.483
 598  1318.859
 599  1314.354
 600  1323.803
 601  1381.347
 602  1243.902
 603  1114.374
 604  972.0427
 605  783.0645
 606  600.0369
 607  540.215
 608  555.5838
 609  597.1127
 610  527.2353
 611  493.1365
 612  546.749
 613  502.4971
 614  436.0347
 615  368.4
 616  413.3126
 617  516.4111
 618  564.9109
 619  661.53
 620  613.7889
 621  627.5397
 622  675.4995
 623  614.4512
 624  574.518
 625  463.2383
 626  560.4286
 627  543.5784
 628  606.4506
 629  819.8663
 630  778.1439
 631  790.7493
 632  704.4089
 633  831.4753
 634  877.1473
 635  839.4905
 636  810.2078
 637  821.4402
 638  934.7947
 639  933.2667
 640  918.7531
 641  828.5874
 642  807.1027
 643  814.446
 644  747.3881
 645  641.6706
 646  505.4297
 647  483.5031
 648  603.3763
 649  680.8631
 650  779.4054
 651  756.1693
 652  732.4564
 653  817.4073
 654  884.4989
 655  925.7302
 656  813.6424
 657  745.0413
 658  760.5049
 659  825.6725
 660  913.6821
 661  868.1974
 662  898.9022
 663  807.8857
 664  754.9934
 665  643.8196
 666  723.2044
 667  793.66
 668  802.478
 669  826.0645
 670  781.72
 671  784.8345
 672  704.2685
 673  694.134
 674  670.0118
 675  761.0583
 676  765.8691
 677  791.816
 678  698.4542
 679  702.453
 680  702.7386
 681  585.3577
 682  612.2531
 683  659.4322
 684  823.6019
 685  698.0492
 686  631.0248
 687  689.6896
 688  799.2087
 689  912.069
 690  925.1656
 691  885.5895
 692  883.6188
 693  862.8471
 694  963.3536
 695  922.2685
 696  896.6312
 697  933.5344
 698  929.4209
 699  1077.836
 700  1110.262
 701  1151.233
 702  1231.204
 703  1289.405
 704  1183.264
 705  973.2946
 706  932.6041
 707  969.3579
 708  997.1674
 709  1059.275
 710  1028.904
 711  991.363
 712  1024.155
 713  1017.401
 714  934.8104
 715  930.2726
 716  903.4556
 717  955.9782
 718  908.6995
 719  997.9855
 720  1063.011
 721  1139.984
 722  1055.812
 723  975.9475
 724  952.1233
 725  995.1954
 726  1030.394
 727  967.1848
 728  936.1536
 729  890.8132
 730  873.3948
 731  832.5951
 732  938.7539
 733  1021.028
 734  1190.879
 735  1169.523
 736  1143.555
 737  1024.329
 738  1023.165
 739  972.0084
 740  922.8326
 741  849.8896
 742  748.0276
 743  879.7255
 744  904.7335
 745  884.7242
 746  861.2374
 747  965.3996
 748  1026.364
 749  1038.825
 750  1018.16
 751  1004.974
 752  996.4144
 753  969.4635
 754  1045.389
 755  1008.833
 756  1013.088
 757  928.0876
 758  859.5542
 759  851.6982
 760  941.7325
 761  950.5684
 762  952.1699
 763  932.1094
 764  964.6714
 765  982.0527
 766  940.9694
 767  1056.768
 768  1019.676
 769  1007.084
 770  957.9047
 771  1068.977
 772  1176.004
 773  1280.781
 774  1261.631
 775  1028.359
 776  784.0347
 777  822.0687
 778  958.9645
 779  1054.079
 780  1001.373
 781  953.1836
 782  947.3491
 783  982.5081
 784  929.552
 785  869.3984
 786  908.0954
 787  1013.814
 788  955.6515
 789  1011.454
 790  1099.839
 791  1198.893
 792  1236.119
 793  1230.36
 794  1289.344
 795  1171.345
 796  1181.135
 797  1121.299
 798  1139.594
 799  1121.579
 800  1115.264
 801  1112.714
 802  1191.919
 803  1353.654
 804  1342.563
 805  1265.169
 806  1206.277
 807  1151.854
 808  1249.36
 809  1232.262
 810  1357.695
 811  1369.853
 812  1363.612
 813  1272.923
 814  1212.738
 815  1121.425
 816  1132.898
 817  1200.509
 818  1225.017
 819  1188.84
 820  1226.887
 821  1157.625
 822  1246.459
 823  1175.879
 824  1245.172
 825  1097.437
 826  989.4247
 827  1005.399
 828  1064.425
 829  1099.183
 830  1028.857
 831  973.1343
 832  951.1192
 833  892.8821
 834  1008.768
 835  1143.753
 836  1248.281
 837  1100.807
 838  1015.07
 839  870.4385
 840  848.5645
 841  759.1612
 842  804.5524
 843  812.0696
 844  856.3622
 845  776.453
 846  838.6825
 847  853.1644
 848  849.153
 849  830.4033
 850  1053.004
 851  1113.169
 852  1046.872
 853  904.1211
 854  922.2916
 855  912.4203
 856  832.3765
 857  832.7993
 858  890.8163
 859  908.1058
 860  859.4424
 861  787.1745
 862  843.0131
 863  883.749
 864  912.606
 865  974.9667
 866  911.2567
 867  885.9865
 868  777.9832
 869  802.018
 870  790.9993
 871  870.6893
 872  827.8873
 873  795.7256
 874  763.2778
 875  774.4109
 876  858.6483
 877  874.3702
 878  777.1787
 879  678.6441
 880  635.9279
 881  773.1202
 882  887.1546
 883  978.1542
 884  1026.423
 885  1016.069
 886  993.9743
 887  1142.452
 888  1151.27
 889  1118.022
 890  977.5723
 891  962.632
 892  787.4114
 893  746.9783
 894  857.4472
 895  1007.506
 896  1012.671
 897  908.5161
 898  941.0302
 899  1008.896
 900  1042.057
 901  937.8137
 902  857.6442
 903  846.9529
 904  828.7394
 905  734.3891
 906  731.3872
 907  803.0012
 908  927.4543
 909  925.3561
 910  922.9526
 911  808.1417
 912  781.0975
 913  778.0027
 914  883.5507
 915  849.0703
 916  840.2056
 917  867.9548
 918  884.0176
 919  801.8721
 920  824.0362
 921  918.7595
 922  823.5302
 923  817.5118
 924  850.672
 925  912.3832
 926  929.7956
 927  897.1094
 928  904.3041
 929  783.1706
 930  802.4177
 931  707.437
 932  733.0449
 933  699.6694
 934  754.4329
 935  772.551
 936  844.4164
 937  877.7173
 938  871.4826
 939  836.0032
 940  694.0673
 941  742.7423
 942  814.7017
 943  909.911
 944  794.4666
 945  791.7297
 946  699.4221
 947  655.1084
 948  675.8099
 949  763.4846
 950  756.9003
 951  782.8389
 952  767.6483
 953  781.1534
 954  749.4263
 955  793.2516
 956  903.3374
 957  978.9796
 958  970.178
 959  870.5765
 960  855.1168
 961  891.7952
 962  944.4655
 963  1041.903
 964  1066.63
 965  1032.698
 966  1005.587
 967  994.3889
 968  887.1506
 969  791.6506
 970  944.8926
 971  934.256
 972  1069.305
 973  955.6254
 974  890.4733
 975  856.9169
 976  921.0344
 977  991.4529
 978  1071.541
 979  1095.148
 980  1163.124
 981  1117.677
 982  1036.635
 983  1046.016
 984  1106.356
 985  1158.783
 986  1085.638
 987  1112.231
 988  1099.738
 989  1119.104
 990  1041.945
 991  990.4597
 992  1040.554
 993  1079.318
 994  1152.853
 995  1126.026
 996  985.1478
 997  918.5862
 998  956.0455
 999  1132.503
1000  1065.239
1001  893.0396
1002  831.8527
1003  832.9935
1004  879.4367
1005  928.5803
1006  929.8613
1007  890.7565
1008  821.1384
1009  821.9291
1010  794.7634
1011  798.3924
1012  673.8195
1013  720.0731
1014  823.8383
1015  881.5176
1016  922.8071
1017  910.731
1018  827.9223
1019  729.452
1020  661.7393
1021  631.2338
1022  609.9664
1023  628.9357
