# Input file       =  1210479741.110695_cleaned.dat
# Candidate        =  PSR_0332+5434
# Telescope        =  AR
# Epoch_topo       =  58254.182408688597
# Epoch_bary       =  N/A
# T_sample         =  0.002
# Data Folded      =  7208960
# Data Avg         =  0.0392998655520017
# Data StdDev      =  1.00005510914323 
# Profile Bins     =  512
# Profile Avg      =  553.372950680742 
# Profile StdDev   =  118.665714999045 
# Reduced chi-sqr  =  1.748
# Prob(Noise)      <  3.18e-23   (~9.9 sigma)
# P_topo (ms)      =  714.532423993853  +/- 0.000301
# P'_topo (s/s)    =  -0                +/- 1.61e-10
# P''_topo (s/s^2) =  0                 +/- 7.26e-14
# P_bary (ms)      =  N/A
# P'_bary (s/s)    =  N/A
# P''_bary (s/s^2) =  N/A
# P_orb (s)        =  N/A
# asin(i)/c (s)    =  N/A
# eccentricity     =  N/A
# w (rad)          =  N/A
# T_peri           =  N/A
######################################################
   0  1489.233
   1  1428.658
   2  1188.491
   3  871.1849
   4  730.1866
   5  786.6364
   6  695.5261
   7  553.9831
   8  462.1182
   9  527.8519
  10  454.8568
  11  485.3823
  12  508.1718
  13  520.8364
  14  635.2482
  15  473.6515
  16  603.4656
  17  580.5361
  18  558.4767
  19  533.4257
  20  506.6932
  21  530.3368
  22  462.346
  23  499.2006
  24  589.1423
  25  545.5026
  26  444.8032
  27  583.7516
  28  422.7898
  29  387.4123
  30  442.8012
  31  538.5804
  32  544.9704
  33  489.3051
  34  439.4961
  35  454.1917
  36  400.7024
  37  430.3436
  38  531.8735
  39  587.3329
  40  482.5081
  41  475.2147
  42  601.4603
  43  573.987
  44  532.9953
  45  475.4236
  46  383.8385
  47  442.7402
  48  519.4694
  49  473.61
  50  490.6944
  51  434.9444
  52  406.9199
  53  519.8415
  54  513.5508
  55  396.8979
  56  493.2522
  57  614.0731
  58  539.3979
  59  499.7059
  60  500.1105
  61  472.5821
  62  522.9022
  63  554.7711
  64  484.3594
  65  428.5547
  66  415.1435
  67  522.4533
  68  474.219
  69  530.2589
  70  543.899
  71  433.9343
  72  466.8441
  73  515.1632
  74  522.0508
  75  487.5498
  76  533.7629
  77  466.3914
  78  556.1327
  79  531.1548
  80  478.4835
  81  450.845
  82  418.3271
  83  526.7756
  84  492.6341
  85  554.004
  86  465.6875
  87  459.0286
  88  631.3183
  89  614.6505
  90  612.0157
  91  586.4659
  92  654.2517
  93  522.8685
  94  523.2094
  95  535.6515
  96  605.514
  97  614.4731
  98  583.8967
  99  586.317
 100  469.3346
 101  686.8086
 102  779.6888
 103  662.1359
 104  588.8245
 105  640.8206
 106  577.1888
 107  663.423
 108  601.0924
 109  655.4001
 110  585.6878
 111  605.4877
 112  696.7031
 113  688.5948
 114  540.2896
 115  519.8038
 116  524.5917
 117  531.4789
 118  539.1679
 119  566.7272
 120  583.7198
 121  527.0289
 122  593.9637
 123  575.7438
 124  598.8472
 125  560.1462
 126  586.3051
 127  684.9734
 128  579.3182
 129  635.9182
 130  655.3248
 131  534.723
 132  569.2994
 133  587.4543
 134  515.683
 135  608.0883
 136  616.6223
 137  639.2551
 138  724.8431
 139  709.0197
 140  603.3182
 141  562.2264
 142  543.3236
 143  637.1685
 144  516.6862
 145  431.0998
 146  572.887
 147  527.0405
 148  517.8249
 149  345.9037
 150  501.5168
 151  560.6672
 152  577.6412
 153  594.4675
 154  487.1783
 155  491.0103
 156  495.7504
 157  520.9042
 158  609.0039
 159  575.6749
 160  566.9088
 161  581.0764
 162  550.4679
 163  527.0458
 164  497.2603
 165  489.9822
 166  470.6395
 167  459.8502
 168  450.2191
 169  341.8535
 170  426.9925
 171  643.6321
 172  695.9631
 173  599.614
 174  551.9518
 175  572.2045
 176  476.3176
 177  346.775
 178  430.844
 179  377.2533
 180  439.0124
 181  383.1404
 182  422.08
 183  498.0994
 184  507.2971
 185  447.0506
 186  562.9612
 187  485.0035
 188  399.6479
 189  547.2116
 190  574.9762
 191  651.9112
 192  567.5463
 193  544.5854
 194  600.134
 195  509.1449
 196  635.8818
 197  628.9946
 198  630.5894
 199  598.2045
 200  677.7036
 201  572.0106
 202  453.3625
 203  435.2712
 204  490.2698
 205  598.7922
 206  592.5227
 207  396.463
 208  411.6731
 209  497.6204
 210  409.2364
 211  524.3607
 212  543.6025
 213  515.0176
 214  397.5777
 215  378.0985
 216  450.5732
 217  393.6822
 218  464.5108
 219  555.6146
 220  541.6993
 221  562.868
 222  480.7524
 223  540.6375
 224  574.3764
 225  593.5167
 226  495.8271
 227  577.1943
 228  510.5162
 229  494.9218
 230  447.6489
 231  479.067
 232  588.5856
 233  570.6284
 234  534.5294
 235  405.6859
 236  594.8283
 237  644.4146
 238  663.7219
 239  633.9694
 240  554.1412
 241  532.9571
 242  654.8563
 243  702.0595
 244  618.5246
 245  559.7274
 246  574.5452
 247  566.3808
 248  517.2559
 249  633.1783
 250  600.2766
 251  588.4291
 252  565.6862
 253  514.7402
 254  467.6767
 255  523.6146
 256  602.851
 257  555.0723
 258  549.7586
 259  604.0603
 260  621.5066
 261  586.239
 262  481.5247
 263  627.4928
 264  612.588
 265  553.0074
 266  526.3414
 267  632.9078
 268  527.4482
 269  507.3508
 270  514.5203
 271  397.7725
 272  542.846
 273  633.7913
 274  649.1107
 275  628.1927
 276  508.8069
 277  566.4639
 278  446.6561
 279  503.8788
 280  564.3393
 281  534.0476
 282  527.5033
 283  572.6195
 284  654.8836
 285  571.8922
 286  474.0238
 287  409.1261
 288  449.8751
 289  482.0851
 290  421.7347
 291  486.9801
 292  588.2679
 293  531.2714
 294  466.9129
 295  507.3593
 296  553.0266
 297  623.7191
 298  513.4819
 299  474.9637
 300  481.5793
 301  399.8706
 302  473.906
 303  600.2673
 304  594.4456
 305  401.5964
 306  449.1419
 307  442.7716
 308  354.0745
 309  382.606
 310  494.1212
 311  615.1857
 312  670.1045
 313  622.4241
 314  513.8413
 315  429.8116
 316  555.9915
 317  676.9567
 318  644.5155
 319  687.0563
 320  445.5945
 321  432.0053
 322  521.5712
 323  507.4066
 324  575.6465
 325  612.2942
 326  540.1904
 327  596.1307
 328  616.9896
 329  600.1914
 330  620.128
 331  503.2633
 332  561.3385
 333  561.3446
 334  523.4981
 335  548.222
 336  566.3792
 337  633.871
 338  633.5962
 339  534.6196
 340  562.5228
 341  720.6722
 342  646.1743
 343  512.5468
 344  498.0137
 345  520.8463
 346  601.7884
 347  587.8539
 348  656.6813
 349  532.6817
 350  505.6096
 351  573.8864
 352  643.4753
 353  582.7962
 354  553.7515
 355  654.5154
 356  549.707
 357  499.3544
 358  482.7132
 359  637.5119
 360  564.149
 361  486.7035
 362  554.3304
 363  613.4631
 364  616.3402
 365  430.8131
 366  593.6475
 367  605.2257
 368  532.3018
 369  652.5197
 370  671.647
 371  679.4131
 372  507.5618
 373  598.2623
 374  540.1728
 375  522.1412
 376  495.0844
 377  516.851
 378  491.3326
 379  523.4402
 380  563.0198
 381  542.2468
 382  601.7545
 383  716.3529
 384  656.2189
 385  596.5038
 386  503.2794
 387  628.5326
 388  620.2239
 389  619.4044
 390  589.5616
 391  609.5927
 392  478.504
 393  591.3968
 394  661.1264
 395  603.4387
 396  403.1678
 397  466.6684
 398  563.496
 399  542.7648
 400  535.9882
 401  597.4476
 402  685.4913
 403  634.0491
 404  565.8366
 405  565.0126
 406  604.3695
 407  613.1504
 408  592.8984
 409  540.879
 410  590.5738
 411  602.8301
 412  561.6821
 413  627.6304
 414  658.0637
 415  525.0983
 416  332.5532
 417  341.7649
 418  590.7943
 419  665.0027
 420  611.0888
 421  492.0688
 422  608.3364
 423  610.6671
 424  457.7549
 425  555.1517
 426  685.8692
 427  615.0964
 428  547.9629
 429  621.6633
 430  567.8088
 431  559.0588
 432  522.7785
 433  522.249
 434  567.0001
 435  574.7126
 436  533.1034
 437  599.3986
 438  731.9492
 439  562.2717
 440  557.5007
 441  545.2903
 442  568.8553
 443  635.262
 444  544.8968
 445  595.4565
 446  540.4092
 447  483.6826
 448  518.2289
 449  480.266
 450  474.1118
 451  496.8098
 452  464.3292
 453  444.0089
 454  480.893
 455  498.3027
 456  630.0375
 457  581.2846
 458  616.6252
 459  576.5246
 460  518.9379
 461  597.819
 462  533.9349
 463  523.6621
 464  537.3438
 465  596.1681
 466  601.9406
 467  594.6852
 468  551.0926
 469  474.8146
 470  429.0039
 471  502.5298
 472  453.6771
 473  359.3399
 474  425.0672
 475  377.8846
 476  520.0174
 477  514.3522
 478  506.062
 479  542.6476
 480  548.2532
 481  578.1074
 482  532.1386
 483  559.1415
 484  499.2024
 485  467.5099
 486  561.7762
 487  542.2855
 488  505.2487
 489  531.8764
 490  525.046
 491  564.9321
 492  421.3937
 493  568.5629
 494  670.7303
 495  317.1204
 496  478.9629
 497  614.7068
 498  529.8085
 499  466.1064
 500  452.3116
 501  521.5621
 502  596.8876
 503  654.8804
 504  608.1644
 505  589.7208
 506  689.844
 507  776.1887
 508  733.532
 509  923.3034
 510  1257.135
 511  1373.819
