# Input file       =  1210063501.123266_cleaned.dat
# Candidate        =  PSR_0332+5434
# Telescope        =  AR
# Epoch_topo       =  58249.364816241505
# Epoch_bary       =  N/A
# T_sample         =  0.002
# Data Folded      =  7340032
# Data Avg         =  0.071519817789976
# Data StdDev      =  0.999983619174005
# Profile Bins     =  512
# Profile Avg      =  1025.07485170065 
# Profile StdDev   =  119.731075050731 
# Reduced chi-sqr  =  1.993
# Prob(Noise)      <  5.24e-36   (~12.5 sigma)
# P_topo (ms)      =  714.537105016677  +/- 0.000504
# P'_topo (s/s)    =  -0                +/- 2.66e-10
# P''_topo (s/s^2) =  0                 +/- 1.17e-13
# P_bary (ms)      =  N/A
# P'_bary (s/s)    =  N/A
# P''_bary (s/s^2) =  N/A
# P_orb (s)        =  N/A
# asin(i)/c (s)    =  N/A
# eccentricity     =  N/A
# w (rad)          =  N/A
# T_peri           =  N/A
######################################################
   0  1092.329
   1  1010.251
   2  1090.54
   3  1032.331
   4  1110.702
   5  1222.734
   6  1181.653
   7  1177.071
   8  1118.356
   9  1112.568
  10  1034.548
  11  1065.649
  12  1185.927
  13  1155.896
  14  1118.411
  15  1094.448
  16  1158.712
  17  1091.357
  18  1087.497
  19  1073.687
  20  1124.462
  21  1135.305
  22  1093.585
  23  1055.422
  24  975.3156
  25  1003.035
  26  1019.017
  27  1023.674
  28  1030.2
  29  1078.149
  30  1041.802
  31  1077.309
  32  1058.03
  33  1039.259
  34  1029.059
  35  1010.812
  36  1012.707
  37  1046.116
  38  1117.386
  39  1084.075
  40  1018.134
  41  1067.015
  42  1082.927
  43  974.2676
  44  1030.42
  45  1073.655
  46  1068.253
  47  1016.033
  48  907.5471
  49  855.7367
  50  978.7293
  51  1035.143
  52  913.1439
  53  979.0211
  54  1049.805
  55  1006.33
  56  996.7831
  57  1055.556
  58  1056.225
  59  1041.025
  60  1035.369
  61  1048.969
  62  1071.262
  63  986.9506
  64  1010.834
  65  1028.952
  66  1132.626
  67  1120.227
  68  1032.551
  69  1031.948
  70  992.2637
  71  1045.805
  72  1002.126
  73  910.3762
  74  897.6148
  75  1026.109
  76  1028.906
  77  1040.078
  78  989.5208
  79  957.3153
  80  861.2083
  81  823.2377
  82  933.3705
  83  974.4709
  84  946.775
  85  920.8625
  86  969.6089
  87  972.4558
  88  1001.489
  89  984.3893
  90  903.9891
  91  1034.127
  92  986.0426
  93  890.8298
  94  833.8378
  95  981.4377
  96  947.0891
  97  992.1236
  98  968.9495
  99  984.7997
 100  975.8525
 101  973.5724
 102  935.7192
 103  944.3637
 104  850.5911
 105  861.3447
 106  822.8239
 107  842.0861
 108  831.1765
 109  792.7317
 110  838.8266
 111  896.249
 112  939.8677
 113  949.7828
 114  945.2208
 115  826.1482
 116  914.6431
 117  933.9188
 118  853.8005
 119  935.2248
 120  986.0956
 121  919.6136
 122  838.2754
 123  836.9679
 124  881.3586
 125  972.1074
 126  857.9715
 127  817.351
 128  971.9187
 129  1056.116
 130  1017.597
 131  967.3782
 132  1012.862
 133  944.0574
 134  868.736
 135  778.1021
 136  773.5835
 137  781.1679
 138  951.5535
 139  967.3505
 140  942.5576
 141  971.2218
 142  967.9152
 143  1005.732
 144  1082.175
 145  1023.453
 146  892.9438
 147  906.5659
 148  966.4019
 149  1026.539
 150  1037.121
 151  1028.773
 152  1018.908
 153  922.7091
 154  863.6829
 155  898.8094
 156  961.2306
 157  957.2537
 158  974.8757
 159  841.7703
 160  889.324
 161  906.8667
 162  890.4437
 163  844.4509
 164  836.243
 165  832.0768
 166  828.8325
 167  825.6431
 168  827.1207
 169  888.7857
 170  885.804
 171  838.7534
 172  824.8014
 173  760.697
 174  807.5664
 175  870.1119
 176  821.1287
 177  774.6865
 178  817.1808
 179  791.0721
 180  850.7896
 181  922.0066
 182  886.7991
 183  898.7697
 184  889.4847
 185  889.1742
 186  924.1997
 187  904.5864
 188  950.8876
 189  1011.186
 190  995.3652
 191  960.4952
 192  951.5175
 193  1020.847
 194  1030.98
 195  957.7056
 196  976.5768
 197  960.5103
 198  875.4096
 199  862.3507
 200  871.6454
 201  887.3968
 202  899.6482
 203  935.6398
 204  954.9575
 205  906.9468
 206  861.2526
 207  924.0815
 208  925.1198
 209  947.5643
 210  852.9277
 211  879.1051
 212  936.4214
 213  897.4736
 214  891.0522
 215  922.3637
 216  946.043
 217  897.6063
 218  961.7581
 219  913.1177
 220  937.1104
 221  926.9808
 222  975.1832
 223  964.644
 224  1025.554
 225  1135.037
 226  1042.406
 227  1045.389
 228  1028.332
 229  1030.365
 230  1061.467
 231  1016.656
 232  1140.067
 233  1021.866
 234  999.6505
 235  1098.359
 236  988.3312
 237  998.8045
 238  940.6981
 239  963.239
 240  1003.781
 241  1007.149
 242  1006.151
 243  865.4584
 244  893.2073
 245  963.0793
 246  928.3802
 247  877.4706
 248  891.8357
 249  933.2221
 250  881.5172
 251  1019.064
 252  980.7206
 253  932.5936
 254  975.8231
 255  978.3019
 256  919.1542
 257  957.12
 258  1000.813
 259  1050.185
 260  1056.214
 261  1018.629
 262  1017.599
 263  951.5716
 264  1025.804
 265  1045.187
 266  1068.709
 267  1037.021
 268  1050.937
 269  1130.703
 270  1065.051
 271  1043.926
 272  1051.253
 273  1043.636
 274  1072.967
 275  1048.161
 276  1030.969
 277  1012.233
 278  1000.194
 279  992.2671
 280  988.5309
 281  1015.169
 282  998.5441
 283  1024.547
 284  1032.559
 285  928.5045
 286  959.1312
 287  987.3228
 288  975.3474
 289  964.0319
 290  1022.581
 291  944.1658
 292  881.0651
 293  938.4979
 294  898.3661
 295  915.4323
 296  996.6428
 297  913.9222
 298  941.2299
 299  1072.68
 300  1074.707
 301  1059.169
 302  1075.547
 303  1088.472
 304  1111.115
 305  1090.983
 306  1126.18
 307  1113.829
 308  1067.534
 309  1021.191
 310  1040.124
 311  1104.287
 312  1118.473
 313  1109.03
 314  1165.068
 315  1104.431
 316  1108.502
 317  1024.606
 318  975.9475
 319  1054.672
 320  960.0614
 321  932.845
 322  922.6943
 323  1030.324
 324  981.3182
 325  1031.753
 326  1008.311
 327  965.3442
 328  931.1052
 329  945.3861
 330  954.9097
 331  977.334
 332  1006.44
 333  994.9835
 334  1051.941
 335  1026.25
 336  1004.683
 337  990.0904
 338  886.173
 339  868.0322
 340  887.1116
 341  923.1671
 342  955.4949
 343  961.5235
 344  962.6514
 345  987.5956
 346  942.5645
 347  955.0694
 348  1010.264
 349  970.6843
 350  934.2055
 351  984.2261
 352  1052.781
 353  1091.893
 354  1034.26
 355  1087.888
 356  1193.398
 357  1186.365
 358  1073.917
 359  1101.729
 360  1078.144
 361  1070.242
 362  1109.594
 363  1107.654
 364  1067.57
 365  1081.341
 366  1184.882
 367  1145.843
 368  1044.907
 369  1001.895
 370  967.22
 371  1062.664
 372  1110.798
 373  1071.846
 374  1093.496
 375  1098.236
 376  1107.88
 377  985.0934
 378  947.6203
 379  1070.515
 380  1095.153
 381  1083.672
 382  1121.09
 383  1069.74
 384  1158.544
 385  1185.899
 386  1129.893
 387  1136.819
 388  1090.363
 389  1115.133
 390  1122.581
 391  1083.449
 392  1161.252
 393  1170.015
 394  1120.815
 395  1145.826
 396  1126.631
 397  1121.423
 398  1114.796
 399  1107.847
 400  1168.339
 401  1168.883
 402  1107.37
 403  1151.515
 404  1103.807
 405  1188.928
 406  1191.828
 407  1179.287
 408  1137.666
 409  1089.313
 410  1092.698
 411  1188.609
 412  1081.041
 413  1093.283
 414  1077.768
 415  1072.331
 416  1051.675
 417  1031.382
 418  1093.162
 419  1007.855
 420  1001.84
 421  1033.87
 422  1122.286
 423  1127.622
 424  1082.478
 425  1157.572
 426  1108.497
 427  1101.711
 428  1023.5
 429  1058.594
 430  1102.382
 431  1091.55
 432  1108.557
 433  1209.057
 434  1182.129
 435  1155.408
 436  1130.685
 437  1188.503
 438  1190.096
 439  1059.876
 440  1125.602
 441  1174.091
 442  1205.961
 443  1197.582
 444  1215.173
 445  1172.271
 446  1172.446
 447  1242.141
 448  1222.314
 449  1204.618
 450  1205.72
 451  1222.684
 452  1223.313
 453  1229.111
 454  1154.217
 455  1191.918
 456  1178.933
 457  1110.856
 458  1025.572
 459  1098.747
 460  1060.414
 461  1106.514
 462  1052.622
 463  1030.9
 464  1010.606
 465  1002.39
 466  1073.777
 467  1053.73
 468  979.3089
 469  971.7412
 470  958.3521
 471  911.4659
 472  1017.484
 473  1040.422
 474  974.9416
 475  936.6249
 476  943.0057
 477  1100.139
 478  1093.472
 479  1031.841
 480  1047.237
 481  1049.968
 482  1146.01
 483  1145.425
 484  1173.854
 485  1164.731
 486  1114.26
 487  1153.149
 488  1152.06
 489  1136.968
 490  1125.975
 491  1124.36
 492  1171.338
 493  1116.374
 494  1160.305
 495  1128.379
 496  1145.453
 497  1153.888
 498  1198.13
 499  1250.612
 500  1243.491
 501  1415.096
 502  1633.349
 503  1806.044
 504  1800.153
 505  1703.512
 506  1553.726
 507  1284.588
 508  1147.347
 509  1092.645
 510  1068.041
 511  1136.255
