# Input file       =  1210164609.112019_cleaned.dat
# Candidate        =  PSR_0332+5434
# Telescope        =  AR
# Epoch_topo       =  58250.535047592813
# Epoch_bary       =  N/A
# T_sample         =  0.002
# Data Folded      =  7340032
# Data Avg         =  0.10226569007604 
# Data StdDev      =  3.37438018090946 
# Profile Bins     =  512
# Profile Avg      =  1465.97380615166 
# Profile StdDev   =  404.024784949871 
# Reduced chi-sqr  =  1.431
# Prob(Noise)      <  5.04e-10   (~6.1 sigma)
# P_topo (ms)      =  714.536315634415  +/- 0.00041
# P'_topo (s/s)    =  -0                +/- 2.16e-10
# P''_topo (s/s^2) =  0                 +/- 9.54e-14
# P_bary (ms)      =  N/A
# P'_bary (s/s)    =  N/A
# P''_bary (s/s^2) =  N/A
# P_orb (s)        =  N/A
# asin(i)/c (s)    =  N/A
# eccentricity     =  N/A
# w (rad)          =  N/A
# T_peri           =  N/A
######################################################
   0  1158.461
   1  1105.788
   2  1179.913
   3  1312.031
   4  1450.21
   5  1147.483
   6  1013.812
   7  989.8298
   8  1104.363
   9  1355.697
  10  1294.031
  11  1337.057
  12  1348.152
  13  1003.605
  14  1023.642
  15  941.9081
  16  764.2225
  17  995.4632
  18  1387.97
  19  1443.392
  20  1459.532
  21  1740.625
  22  1424.398
  23  1370.852
  24  1400.804
  25  1469.852
  26  1227.129
  27  1549.096
  28  1349.994
  29  1522.288
  30  1368.379
  31  1169.134
  32  1154.661
  33  1078.527
  34  1150.771
  35  1420.238
  36  1020.401
  37  1097.204
  38  1243.871
  39  1189.761
  40  1472.596
  41  1591.333
  42  1404.165
  43  956.7128
  44  798.8246
  45  913.4904
  46  1024.329
  47  1079.211
  48  1369.327
  49  1475.363
  50  1681.225
  51  1638.649
  52  1244.957
  53  1155.542
  54  1072.308
  55  1466.526
  56  1416.33
  57  1497.632
  58  1468.573
  59  1367.153
  60  1382.011
  61  1319.43
  62  1323.191
  63  1252.737
  64  1543.924
  65  1549.027
  66  1223.706
  67  1280.722
  68  1419.127
  69  1528.723
  70  1478.19
  71  1611.171
  72  1523.601
  73  1371.933
  74  1497.236
  75  1497.42
  76  1425.936
  77  1378.941
  78  1228.547
  79  1341.919
  80  1280.173
  81  1444.438
  82  1511.303
  83  1626.023
  84  1660.871
  85  1520.301
  86  1401.657
  87  1539.343
  88  1757.376
  89  1477.235
  90  1264.624
  91  1307.251
  92  1393.727
  93  1347.233
  94  1068.755
  95  1413.795
  96  1388.547
  97  1360.41
  98  1307.299
  99  1010.8
 100  1193.028
 101  1369.975
 102  1077.134
 103  1110.878
 104  1557.477
 105  1574.98
 106  1429
 107  1540.228
 108  1490.916
 109  1310.025
 110  1417.56
 111  1553.066
 112  1689.208
 113  1837.516
 114  1947.776
 115  1700.69
 116  1253.967
 117  1328.589
 118  1763.359
 119  2227.968
 120  1995.893
 121  1702.898
 122  1424.065
 123  1305.454
 124  1298.567
 125  1694.318
 126  1074.369
 127  1100.888
 128  1233.587
 129  887.5831
 130  856.0985
 131  1066.521
 132  937.8694
 133  918.0515
 134  981.9635
 135  676.9176
 136  926.7401
 137  934.0671
 138  1201.485
 139  975.1105
 140  781.2708
 141  1167.381
 142  1061.821
 143  1440.724
 144  1179.373
 145  946.9966
 146  1235.687
 147  1201.637
 148  900.0771
 149  1103.146
 150  1422.145
 151  1506.451
 152  1471.479
 153  1340.238
 154  1446.448
 155  1217.706
 156  799.5847
 157  1270.879
 158  1320.219
 159  1307.565
 160  1048.922
 161  836.2595
 162  1154.645
 163  1445.764
 164  1447.995
 165  1463.151
 166  1342.136
 167  1453.004
 168  1262.956
 169  1277.601
 170  1338.138
 171  1367.535
 172  1556.721
 173  1574.329
 174  1416.498
 175  1437.454
 176  1417.626
 177  1398.993
 178  1637.454
 179  1684.067
 180  1521.307
 181  1558.762
 182  1295.313
 183  1268.749
 184  1268.043
 185  1327.147
 186  1558.978
 187  1737.701
 188  1597.448
 189  1705.215
 190  1657.386
 191  1992.824
 192  1794.595
 193  1422.691
 194  1508.127
 195  1360.043
 196  1485.702
 197  1642.209
 198  1702.016
 199  1872.548
 200  1741.797
 201  1788.583
 202  1459.875
 203  1468.485
 204  1527.269
 205  1611.246
 206  1731.732
 207  1614.311
 208  1893.021
 209  1641.167
 210  1367.051
 211  1435.666
 212  1472.671
 213  1610.069
 214  1964.773
 215  2020.867
 216  1779.289
 217  1418.222
 218  1260.48
 219  1396.262
 220  1343.958
 221  1266.037
 222  1469.021
 223  1780.902
 224  1795.865
 225  1660.338
 226  1790.651
 227  1853.442
 228  1365.096
 229  1522.978
 230  1753.861
 231  1554.208
 232  1385.82
 233  1697.962
 234  1767.47
 235  1535.672
 236  1554.212
 237  1398.7
 238  1399.52
 239  1589.564
 240  1892.56
 241  2055.964
 242  1882.991
 243  1612.106
 244  1665.177
 245  1469.938
 246  1561.245
 247  1759.538
 248  1687.234
 249  1796.916
 250  1700.933
 251  1614.495
 252  1494.14
 253  1204.062
 254  1400.176
 255  1480.737
 256  1558.549
 257  1521.171
 258  1798.373
 259  1894.438
 260  1780.06
 261  1521.325
 262  1441.623
 263  1492.679
 264  1266.244
 265  1214.319
 266  1276.15
 267  1200.897
 268  1464.921
 269  1402.622
 270  1416.77
 271  1217.204
 272  1254.587
 273  1332.888
 274  1964.48
 275  2480.758
 276  2531.456
 277  3185.929
 278  3750.249
 279  3487.692
 280  3509.094
 281  3240.014
 282  2441.316
 283  2079.756
 284  1764.661
 285  1487.319
 286  1254.798
 287  1497.781
 288  1472.878
 289  1177.687
 290  1242.763
 291  1562.529
 292  1513.436
 293  1372.176
 294  1231.24
 295  1232.269
 296  1205.194
 297  1159.187
 298  1472.225
 299  1354.977
 300  1358.594
 301  1278.754
 302  1023.466
 303  964.0579
 304  1172.393
 305  1218.474
 306  826.0115
 307  1254.755
 308  1283.04
 309  1077.272
 310  1111.78
 311  978.8699
 312  1244.9
 313  1447.63
 314  1385.441
 315  1344.984
 316  1513.228
 317  1572.718
 318  1284.149
 319  1281.409
 320  1343.649
 321  1160.93
 322  1396.719
 323  1836.407
 324  1506.317
 325  1338.093
 326  1273.759
 327  1243.914
 328  1414.866
 329  1466.64
 330  1514.734
 331  1400.731
 332  1434.177
 333  1641.672
 334  1778.697
 335  1570.667
 336  1325.23
 337  967.545
 338  1029.233
 339  1475.673
 340  1136.131
 341  1031.286
 342  1415.106
 343  1269.238
 344  1071.355
 345  876.5844
 346  1052.994
 347  1614.75
 348  1768.364
 349  1238.862
 350  1376.395
 351  1500.361
 352  1741.202
 353  1657.373
 354  1477.943
 355  1736.053
 356  1805.823
 357  1865.268
 358  1822.313
 359  1790.578
 360  1742.558
 361  1772.648
 362  1780.284
 363  1823.695
 364  1754.898
 365  1772.13
 366  1751.437
 367  1695.576
 368  1662.337
 369  1826.726
 370  1948.563
 371  1660.161
 372  1950.059
 373  1974.567
 374  2066.874
 375  2159.49
 376  1960.905
 377  1654.996
 378  1608.395
 379  1531.711
 380  1882.515
 381  1899.066
 382  1926.755
 383  2085.339
 384  1911.204
 385  1949.008
 386  1864.653
 387  2005.668
 388  2176.276
 389  1811.871
 390  1858.062
 391  1984.085
 392  1918.807
 393  1979.266
 394  1683.839
 395  1841.045
 396  1665.591
 397  1572.411
 398  1995.797
 399  2149.321
 400  1977.455
 401  1723.663
 402  1526.992
 403  1642.466
 404  1488.404
 405  1575.452
 406  1855.585
 407  1589.343
 408  1253.628
 409  1417.508
 410  1322.095
 411  1453.916
 412  1545.106
 413  1450.537
 414  1401.215
 415  1342.744
 416  1090.249
 417  1260.036
 418  1033.25
 419  1454.523
 420  1388.012
 421  1090.112
 422  1272.279
 423  1345.997
 424  1448.752
 425  1319.209
 426  996.8708
 427  1360.447
 428  1304.433
 429  1275.818
 430  1090.218
 431  1211.333
 432  1560.319
 433  1265.654
 434  1279.951
 435  1011.653
 436  1005.747
 437  1069.744
 438  1202.462
 439  1131.391
 440  1084.333
 441  1267.611
 442  1554.587
 443  1238.718
 444  1286.434
 445  1018.027
 446  921.7515
 447  1064.73
 448  1385.455
 449  1744.959
 450  1605.743
 451  1667.582
 452  2052.034
 453  2036.944
 454  1359.542
 455  1267.919
 456  1433.046
 457  1622.542
 458  1808.208
 459  1926.564
 460  1625.499
 461  1859.888
 462  2077.739
 463  1777.253
 464  1520.22
 465  1365.424
 466  1414.709
 467  1573.067
 468  1497.391
 469  1582.663
 470  1302.474
 471  1138.551
 472  1588.509
 473  1588.82
 474  1276.986
 475  1458.954
 476  1475.173
 477  1370.148
 478  1311.653
 479  1564.456
 480  1578.414
 481  1434.855
 482  1547.105
 483  1641.705
 484  1332.704
 485  1493.682
 486  1405.97
 487  1621.063
 488  1919.351
 489  1414.191
 490  1334.642
 491  1438.766
 492  1506.029
 493  1691.348
 494  1506.574
 495  1100.24
 496  1055.75
 497  1025.386
 498  869.426
 499  1511.378
 500  1837.265
 501  1749.543
 502  1407.2
 503  1424.351
 504  1114.318
 505  1035.316
 506  1302.337
 507  1578.78
 508  1470.639
 509  1459.778
 510  1146.249
 511  1290.073
