# Input file       =  1210048853.110351_cleaned.dat
# Candidate        =  PSR_0332+5434
# Telescope        =  AR
# Epoch_topo       =  58249.195279054991
# Epoch_bary       =  N/A
# T_sample         =  0.002
# Data Folded      =  7208960
# Data Avg         =  0.352205935403154
# Data StdDev      =  6.59998170781954 
# Profile Bins     =  1024
# Profile Avg      =  2479.43073096906 
# Profile StdDev   =  553.769537033783 
# Reduced chi-sqr  =  1.559
# Prob(Noise)      <  8.6e-28   (~10.9 sigma)
# P_topo (ms)      =  714.537254982324  +/- 2.13e-05
# P'_topo (s/s)    =  -0                +/- 1.14e-11
# P''_topo (s/s^2) =  0                 +/- 5.13e-15
# P_bary (ms)      =  N/A
# P'_bary (s/s)    =  N/A
# P''_bary (s/s^2) =  N/A
# P_orb (s)        =  N/A
# asin(i)/c (s)    =  N/A
# eccentricity     =  N/A
# w (rad)          =  N/A
# T_peri           =  N/A
######################################################
   0  2247.315
   1  1972.349
   2  1997.835
   3  1983.355
   4  1906.875
   5  2044.853
   6  2026.735
   7  2195.493
   8  2152.377
   9  2446.8
  10  3129.971
  11  3077.622
  12  3078.904
  13  2946.471
  14  2980.63
  15  2881.366
  16  2675.773
  17  2749.959
  18  2566.201
  19  2269.144
  20  2177.105
  21  1903.849
  22  1869.629
  23  2002.75
  24  2390.314
  25  2783.42
  26  2840.628
  27  3029.375
  28  3071.531
  29  2947.215
  30  3027.007
  31  2783.978
  32  2729.176
  33  2430.74
  34  2269.559
  35  2098.862
  36  1581.626
  37  1576.054
  38  1712.195
  39  2045.64
  40  2147.441
  41  2040.866
  42  2258.286
  43  2485.618
  44  2670.278
  45  2941.685
  46  2919.878
  47  2851.481
  48  2562.637
  49  2525.946
  50  2306.257
  51  2119.513
  52  2154.703
  53  2256.807
  54  2009.193
  55  2032.667
  56  2187.624
  57  2607.337
  58  2744.389
  59  2853.41
  60  2902.195
  61  2761.167
  62  2850.401
  63  2801.077
  64  2741.205
  65  2624.411
  66  2498.247
  67  2391.795
  68  2238.594
  69  2113.955
  70  2228.713
  71  2237.878
  72  2323.946
  73  2256.726
  74  2256.073
  75  2282.702
  76  2375.775
  77  2612.568
  78  2841.503
  79  2637.439
  80  2603.529
  81  2528.997
  82  2395.697
  83  2278.368
  84  2262.396
  85  2584.828
  86  2636.302
  87  2413.358
  88  2315.294
  89  2154.774
  90  2289.672
  91  2431.111
  92  2593.312
  93  2646.198
  94  2343.264
  95  2501.824
  96  2526.799
  97  2540.483
  98  2325.784
  99  2240.513
 100  2048.343
 101  2018.826
 102  1833.554
 103  2034.542
 104  2120.538
 105  2385.793
 106  2499.518
 107  2250.541
 108  2264.132
 109  2284.413
 110  2531.062
 111  2618.031
 112  2589.862
 113  2716.113
 114  2632.935
 115  2535.667
 116  2377.092
 117  2415.472
 118  2506.546
 119  2333.803
 120  2275.493
 121  2144.838
 122  2201.001
 123  2334.861
 124  2610.869
 125  2775.483
 126  2961.681
 127  2807.313
 128  2869.292
 129  2542.528
 130  2539.698
 131  2171.438
 132  1906.031
 133  1800.822
 134  1718.527
 135  1729.057
 136  1910.786
 137  2111.409
 138  2376.231
 139  2154.006
 140  2450.903
 141  2614.632
 142  2717.285
 143  2815.628
 144  2824.401
 145  2904.427
 146  2621.838
 147  2358.907
 148  2245.848
 149  2086.339
 150  2139.69
 151  2173.364
 152  2018.45
 153  2202.187
 154  2209.274
 155  2502.273
 156  2558.065
 157  2669.266
 158  2895.893
 159  2861.534
 160  2939.948
 161  2873.006
 162  2589.804
 163  2553.839
 164  2302.082
 165  2385.97
 166  2115.648
 167  1869.047
 168  1853.789
 169  1747.507
 170  1847.423
 171  2052.386
 172  2193.729
 173  2528.937
 174  2380.663
 175  2571.55
 176  2634.385
 177  2693.256
 178  2926.744
 179  2819.331
 180  2778.898
 181  2419.955
 182  2323.75
 183  2403.893
 184  2093.147
 185  2086.684
 186  2182.98
 187  2192.446
 188  2310.471
 189  2317.862
 190  2619.743
 191  2772.283
 192  2798.127
 193  2991.74
 194  2733.67
 195  2837.86
 196  2846.229
 197  2778.753
 198  2656.074
 199  2258.034
 200  2076.436
 201  1869.059
 202  1697.477
 203  1877.239
 204  1821.955
 205  2010.473
 206  2081.336
 207  2240.926
 208  2489.497
 209  2414.879
 210  2736.281
 211  3070.677
 212  3043.546
 213  2690.372
 214  2310.287
 215  2350.358
 216  2206.548
 217  1969.393
 218  2031.151
 219  1976.949
 220  1926.775
 221  2013.03
 222  2254.554
 223  2463.134
 224  2459.128
 225  2593.387
 226  2720.702
 227  2477.215
 228  2725.03
 229  2725.294
 230  2622.111
 231  2181.408
 232  2071.162
 233  2136.121
 234  2083.712
 235  2015.016
 236  2195.69
 237  2206.808
 238  2209.34
 239  2152.445
 240  2428.565
 241  2598.108
 242  2595.595
 243  2652.507
 244  2670.962
 245  2513.339
 246  2468.888
 247  2665.404
 248  2652.151
 249  2535.918
 250  2433.437
 251  2633.173
 252  2520.608
 253  2431.75
 254  2568.361
 255  2586.15
 256  2578.803
 257  2676.094
 258  2733.696
 259  2805.939
 260  2600.221
 261  2696.387
 262  2614.479
 263  2552.737
 264  2432.114
 265  2422.275
 266  2335.806
 267  2370.311
 268  2367.235
 269  2646.567
 270  2658.611
 271  2638.85
 272  2421.234
 273  2281.312
 274  2502.861
 275  2771.405
 276  3092.993
 277  2987.295
 278  2777.881
 279  2630.425
 280  2388.568
 281  2297.502
 282  2317.741
 283  2597.87
 284  2696.565
 285  2508.99
 286  2520.043
 287  2611.949
 288  2869.063
 289  3089.018
 290  3144.133
 291  3153.982
 292  2875.725
 293  2733.037
 294  2739.378
 295  2601.845
 296  2646.548
 297  2474.274
 298  2403.01
 299  2231.327
 300  1967.316
 301  2293.039
 302  2534.503
 303  2926.275
 304  2964.18
 305  2893.682
 306  2890.091
 307  2815.058
 308  2871.751
 309  3109.892
 310  2882.875
 311  2838.201
 312  2513.584
 313  2505.692
 314  2311.317
 315  2024.341
 316  2108.359
 317  2080.347
 318  2188.306
 319  2527.188
 320  2579.355
 321  2842.832
 322  2867.084
 323  3092.938
 324  3167.918
 325  2950.329
 326  3188.637
 327  3112.512
 328  3049.848
 329  2763.852
 330  2548.121
 331  2427.114
 332  2104.895
 333  1854.353
 334  2091.357
 335  2173.598
 336  2440.206
 337  2365.816
 338  2708.313
 339  2987.67
 340  3127.939
 341  3568.481
 342  3604.253
 343  3419.212
 344  3244.045
 345  2969.666
 346  2872.937
 347  2425.181
 348  2453.344
 349  2422.448
 350  2251.69
 351  2233.836
 352  2211.711
 353  2403.339
 354  2661.03
 355  2855.921
 356  3198.743
 357  3123.805
 358  3182.014
 359  3388.226
 360  3262.661
 361  3275.992
 362  2781.844
 363  2627.85
 364  2342.88
 365  1936.984
 366  2057.385
 367  2051.908
 368  2124.928
 369  2052.458
 370  2195.308
 371  2541.366
 372  2533.18
 373  2756.708
 374  3130.993
 375  3059.807
 376  3177.768
 377  3123.861
 378  3044.876
 379  2616.366
 380  2376.329
 381  2539.743
 382  2476.357
 383  2266.013
 384  2440.431
 385  2352.661
 386  2490.839
 387  2572.563
 388  3006.454
 389  2973.077
 390  2780.663
 391  2901.481
 392  3118.556
 393  3099.347
 394  3156.345
 395  3114.098
 396  2984.957
 397  2631.695
 398  2479.333
 399  2486.668
 400  2212.139
 401  2328.935
 402  2498.774
 403  2723.351
 404  2560.939
 405  2387.532
 406  2586.722
 407  2708.636
 408  2860.748
 409  3029.585
 410  3038.13
 411  2943.199
 412  2789.714
 413  2837.013
 414  2662.749
 415  2467.11
 416  2484.864
 417  2581.291
 418  2517.715
 419  2550.025
 420  2550.288
 421  2784.146
 422  2733.139
 423  2854.841
 424  2921.953
 425  2985.071
 426  2992.121
 427  2885.316
 428  2769.741
 429  2481.635
 430  2258.354
 431  2199.336
 432  2243.791
 433  2375.773
 434  2586.004
 435  2777.127
 436  2839.966
 437  2820.076
 438  2717.015
 439  2719.597
 440  2792.095
 441  2943.963
 442  2934.867
 443  2644.838
 444  2545.775
 445  2476.375
 446  2397.925
 447  2540.336
 448  2545.998
 449  2684.308
 450  2358.035
 451  2361.502
 452  2686.447
 453  2820.087
 454  3062.227
 455  3194.928
 456  3184.912
 457  3091.772
 458  2754.566
 459  2841.524
 460  2686.635
 461  2427.652
 462  2256.583
 463  2046.06
 464  2031.26
 465  2065.11
 466  2046.52
 467  2425.312
 468  2496.611
 469  2779.667
 470  2644.7
 471  2634.922
 472  2726.751
 473  2729.329
 474  2811.883
 475  2792.528
 476  2595.793
 477  2505.163
 478  2355.259
 479  2518.191
 480  2385.107
 481  2305.924
 482  2482.754
 483  2374.526
 484  2449.004
 485  2558.993
 486  2901.352
 487  3104.204
 488  2983.209
 489  2994.087
 490  3036.876
 491  2886.457
 492  2888.783
 493  2615.76
 494  2647.574
 495  2312.39
 496  1963.792
 497  1941.46
 498  1646.615
 499  1879.873
 500  1985.947
 501  2256.438
 502  2421.765
 503  2344.897
 504  2755.176
 505  2803.573
 506  3036.477
 507  3325.447
 508  3310.655
 509  3170.747
 510  2739.096
 511  2576.677
 512  2492.448
 513  2134.789
 514  2218.523
 515  2033.18
 516  2053.782
 517  2264.825
 518  2258.086
 519  2621.908
 520  2715.235
 521  2981.908
 522  3237.886
 523  3241.21
 524  3436.919
 525  3308.696
 526  3058.44
 527  2986.443
 528  2661.141
 529  2538.771
 530  2045.899
 531  1715.132
 532  1882.119
 533  1996.878
 534  2219.785
 535  2087.702
 536  2262.105
 537  2541.868
 538  2625.523
 539  2990.915
 540  3232.781
 541  3147.368
 542  3000.881
 543  2724.471
 544  2732.953
 545  2291.092
 546  2379.111
 547  2508.998
 548  2434.252
 549  2218.25
 550  2298.256
 551  2399.396
 552  2486.273
 553  2473.756
 554  2764.066
 555  2903.224
 556  2938.059
 557  2914.2
 558  2841.617
 559  2836.005
 560  2839.666
 561  2795.635
 562  2634.079
 563  2261.007
 564  2351.799
 565  2317.776
 566  2413.584
 567  2173.75
 568  2121.343
 569  2277.149
 570  2378.352
 571  2542.613
 572  2711.712
 573  2873.353
 574  3036.655
 575  3223.245
 576  3159.287
 577  2943.283
 578  2711.767
 579  2714.175
 580  2487.194
 581  2129.477
 582  2301.955
 583  2318.117
 584  2520.905
 585  2462.355
 586  2637.067
 587  2823.579
 588  2902.968
 589  3012.402
 590  3013.747
 591  2968.323
 592  3117.968
 593  3181.315
 594  2994.972
 595  2774.35
 596  2841.702
 597  3095.041
 598  3228.494
 599  3234.015
 600  3549.333
 601  3543.341
 602  3545.973
 603  3310.069
 604  3259.585
 605  3230.09
 606  3108.71
 607  3053
 608  2799.742
 609  2394.516
 610  2222.781
 611  2365.134
 612  2286.698
 613  2145.986
 614  1878.624
 615  2188.084
 616  2184.049
 617  2405.594
 618  2717.349
 619  2911.55
 620  3013.094
 621  2915.48
 622  2965.642
 623  2819.41
 624  2680.039
 625  2793.018
 626  2650.456
 627  2471.654
 628  2163.948
 629  2076.394
 630  2189.461
 631  2396.455
 632  2575.057
 633  2701.452
 634  2667.614
 635  2836.272
 636  2656.779
 637  2704.94
 638  2710.679
 639  2625.757
 640  2678.224
 641  2425.582
 642  2322.054
 643  2103.22
 644  2167.805
 645  2328.773
 646  2124.314
 647  2131.246
 648  2127.601
 649  2277.379
 650  2555.163
 651  2731.675
 652  3008.289
 653  2988.745
 654  2973.655
 655  2967.875
 656  2616.911
 657  2686.055
 658  2558.68
 659  2435.912
 660  2263.032
 661  1803.998
 662  1673.908
 663  1578.687
 664  1592.016
 665  1845
 666  1745.252
 667  2035.085
 668  2177.645
 669  2426.078
 670  2809.074
 671  2826.302
 672  3079.726
 673  3292.77
 674  3112.205
 675  2976.49
 676  2600.671
 677  2540.9
 678  2248.613
 679  1918.914
 680  2037.116
 681  1753.155
 682  1777.638
 683  2017.029
 684  2262.885
 685  2674.35
 686  2725.761
 687  3211.655
 688  3239.938
 689  3114.49
 690  3233.922
 691  2984.647
 692  2674.604
 693  2208.262
 694  1963.202
 695  1929.026
 696  1577.68
 697  1474.057
 698  1472.281
 699  1538.52
 700  1972.118
 701  2035.54
 702  2324.894
 703  2490.933
 704  2706.026
 705  3060.968
 706  2808.291
 707  2714.538
 708  2551.956
 709  2691.956
 710  2613.588
 711  2288.817
 712  2337.938
 713  2357.995
 714  2164.381
 715  2088.059
 716  2162.531
 717  2501.433
 718  2610.382
 719  2731.123
 720  2922.493
 721  2729.943
 722  2748.796
 723  2879.053
 724  2940.199
 725  2967.677
 726  2722.058
 727  2599.105
 728  2291.902
 729  1911.293
 730  2022.693
 731  1985.032
 732  2012.878
 733  1891.941
 734  2017.338
 735  2129.429
 736  2136.408
 737  2459.589
 738  2933.839
 739  2891.858
 740  2803.814
 741  2855.882
 742  2961.268
 743  2696.252
 744  2472.344
 745  2470.493
 746  2272.74
 747  1993.032
 748  2041.044
 749  1937.836
 750  2000.252
 751  2188.57
 752  2718.793
 753  2860.766
 754  2782.715
 755  2714.382
 756  2736.853
 757  2484.001
 758  2578.1
 759  2491.519
 760  2372.829
 761  2032.076
 762  1955.132
 763  1997.82
 764  2062.375
 765  2113.493
 766  2334.436
 767  2281.776
 768  2197.038
 769  2200.327
 770  2421.4
 771  2581.89
 772  2468.99
 773  2554.994
 774  2519.64
 775  2378.611
 776  2263.16
 777  2262.456
 778  2315.686
 779  2159.984
 780  2169.08
 781  2292.147
 782  2291.178
 783  2370.299
 784  2611.858
 785  2706.365
 786  2708.081
 787  2698.427
 788  2942.11
 789  2833.326
 790  2692.443
 791  2423.918
 792  2235.533
 793  2121.44
 794  1911.905
 795  1834.116
 796  1880.374
 797  1923.307
 798  2228.423
 799  2266.52
 800  2397.369
 801  2439.024
 802  2417.485
 803  2541.647
 804  2470.436
 805  2510.562
 806  2505.509
 807  2390.656
 808  2347.741
 809  2227.123
 810  2253.071
 811  2244.018
 812  2033.523
 813  2166.616
 814  2113.121
 815  2284.333
 816  2344.626
 817  2375.615
 818  2667.21
 819  2688.901
 820  2655.609
 821  2605.626
 822  2323.084
 823  2388.793
 824  2291.187
 825  2156.745
 826  2028.467
 827  1640.849
 828  1730.579
 829  1611.832
 830  1708.293
 831  1888.487
 832  2018.836
 833  2343.154
 834  2371.066
 835  2646.208
 836  2912.369
 837  2678.65
 838  2600.093
 839  2398.368
 840  2399.684
 841  2142.195
 842  2148.94
 843  2271.394
 844  1866.252
 845  1517.709
 846  1775.583
 847  1867.62
 848  2059.154
 849  2057.49
 850  2426.336
 851  2565.561
 852  2613.061
 853  2932.835
 854  2914.888
 855  2877.079
 856  2695.322
 857  2439.995
 858  2291.694
 859  1903.678
 860  1808.414
 861  1863.75
 862  1743.602
 863  1836.094
 864  1716.217
 865  1924.006
 866  2064.769
 867  2064.634
 868  2418.413
 869  2402.011
 870  2600.631
 871  2823.104
 872  2706.639
 873  2573.564
 874  2212.399
 875  2336.553
 876  2244.057
 877  1909.147
 878  1918.898
 879  1758.072
 880  1657.108
 881  1690.613
 882  1925.37
 883  2256.607
 884  2418.144
 885  2638.385
 886  2908.439
 887  2655.502
 888  2747.23
 889  2783.437
 890  2820.683
 891  2638.059
 892  2292.785
 893  2184.863
 894  1804.573
 895  1550.898
 896  1560.636
 897  1614.097
 898  1746.303
 899  1770.534
 900  2033.411
 901  2148.707
 902  2203.981
 903  2550.004
 904  2848.863
 905  2780.228
 906  2522.627
 907  2478.586
 908  2414.964
 909  2215.745
 910  2141.092
 911  2092.285
 912  1889.919
 913  1934.518
 914  2109.794
 915  2271.91
 916  2193.92
 917  2312.73
 918  2549.894
 919  2675.874
 920  2569.842
 921  2679.511
 922  2771.806
 923  2767.219
 924  2516.269
 925  2348.078
 926  2186.557
 927  2010.672
 928  1909.791
 929  1935.824
 930  2092.384
 931  2233.233
 932  2295.663
 933  2253.136
 934  2223.489
 935  2342.287
 936  2601.571
 937  2661.952
 938  2703.44
 939  2624.531
 940  2527.273
 941  2459.466
 942  2338.809
 943  2316.582
 944  2116.68
 945  1862.035
 946  1945.899
 947  2049.723
 948  2226.266
 949  2377.966
 950  2569.095
 951  2574.561
 952  2354.433
 953  2444.189
 954  2684.479
 955  2680.554
 956  2527.533
 957  2307.784
 958  2147.285
 959  2081.71
 960  1994.221
 961  2059.091
 962  2051.93
 963  2092.555
 964  2243.887
 965  2251.3
 966  2339.611
 967  2360.823
 968  2380.577
 969  2612.276
 970  2443.346
 971  2365.604
 972  2236.903
 973  2242.376
 974  2351.156
 975  2208.308
 976  2280.567
 977  2166.541
 978  2159.369
 979  2265.562
 980  2183.826
 981  2291.017
 982  2330.205
 983  2450.524
 984  2730.9
 985  2664.774
 986  2716.943
 987  2584.048
 988  2513.623
 989  2460.754
 990  2171.212
 991  1950.777
 992  1796.83
 993  1493.084
 994  1701.856
 995  1891.727
 996  2302.317
 997  2322.039
 998  2466.073
 999  2702.906
1000  2660.018
1001  2786.617
1002  3014.299
1003  3049.667
1004  3013.88
1005  2716.424
1006  2664.114
1007  2312.562
1008  2259.524
1009  2310.351
1010  2103.531
1011  1989.494
1012  2039.823
1013  2259.826
1014  2537.104
1015  2548.919
1016  2872.224
1017  2898.771
1018  2899.874
1019  3125.776
1020  2930.861
1021  2990.094
1022  2622.853
1023  2437.051
