# Input file       =  1210738238.106472_cleaned.dat
# Candidate        =  PSR_0332+5434
# Telescope        =  AR
# Epoch_topo       =  58257.174272065648
# Epoch_bary       =  N/A
# T_sample         =  0.002
# Data Folded      =  7143424
# Data Avg         =  0.157800069805063
# Data StdDev      =  5.11171682940181 
# Profile Bins     =  1024
# Profile Avg      =  1100.86827428029 
# Profile StdDev   =  426.94312388569  
# Reduced chi-sqr  =  1.763
# Prob(Noise)      <  6.98e-46   (~14.2 sigma)
# P_topo (ms)      =  714.529491308335  +/- 1.94e-05
# P'_topo (s/s)    =  -0                +/- 1.05e-11
# P''_topo (s/s^2) =  0                 +/- 4.78e-15
# P_bary (ms)      =  N/A
# P'_bary (s/s)    =  N/A
# P''_bary (s/s^2) =  N/A
# P_orb (s)        =  N/A
# asin(i)/c (s)    =  N/A
# eccentricity     =  N/A
# w (rad)          =  N/A
# T_peri           =  N/A
######################################################
   0  483.3996
   1  596.6326
   2  625.1315
   3  809.4417
   4  925.1808
   5  1091.293
   6  1214.979
   7  1243.547
   8  1336.373
   9  1377.651
  10  1247.262
  11  1262.108
  12  1201.565
  13  999.5963
  14  920.0801
  15  917.223
  16  839.197
  17  631.9454
  18  711.1
  19  1023.828
  20  1200.26
  21  1297.246
  22  1333.088
  23  1321.617
  24  1273.322
  25  1185.732
  26  1130.319
  27  1103.194
  28  932.4666
  29  902.5999
  30  871.3163
  31  791.8
  32  762.4185
  33  877.5042
  34  874.3127
  35  890.1757
  36  1198.959
  37  1634.702
  38  1663.257
  39  1464.948
  40  1355.043
  41  1469.531
  42  1482.331
  43  1497.036
  44  1363.725
  45  1153.138
  46  908.4394
  47  911.9216
  48  877.7312
  49  692.8497
  50  676.1982
  51  777.8995
  52  879.588
  53  893.4334
  54  1083.357
  55  1207.509
  56  1250.612
  57  1291.769
  58  1435.983
  59  1445.59
  60  1416.818
  61  1391.466
  62  1175.857
  63  813.8832
  64  559.5789
  65  625.2491
  66  616.8941
  67  576.6974
  68  689.5181
  69  861.9187
  70  918.9949
  71  1183.588
  72  1669.293
  73  1844.565
  74  2000.611
  75  1859.978
  76  1777.414
  77  1427.578
  78  1277.683
  79  1191.612
  80  1131.966
  81  981.8361
  82  771.572
  83  774.923
  84  755.5016
  85  778.3824
  86  848.653
  87  923.6624
  88  1007.083
  89  1202.995
  90  1363.571
  91  1441.723
  92  1443.56
  93  1530.658
  94  1406.836
  95  1181.623
  96  1018.811
  97  1089.274
  98  1021.926
  99  841.477
 100  655.2668
 101  679.4705
 102  644.7842
 103  818.0715
 104  1071.602
 105  1295.062
 106  1497.678
 107  1583.414
 108  1740.177
 109  1600.679
 110  1636.449
 111  1604.351
 112  1422.663
 113  1129.711
 114  980.4424
 115  978.0294
 116  938.8571
 117  815.8787
 118  648.728
 119  686.1741
 120  819.2883
 121  1101.099
 122  1300.429
 123  1369.073
 124  1426.116
 125  1518.773
 126  1491.57
 127  1177.271
 128  1082.884
 129  1235.958
 130  1195.72
 131  983.9609
 132  741.9644
 133  742.9516
 134  831.977
 135  891.9468
 136  1046.515
 137  1105.729
 138  1132.259
 139  1301.666
 140  1418.748
 141  1432.544
 142  1424.504
 143  1419.656
 144  1523.645
 145  1394.544
 146  1375.598
 147  1315.341
 148  1138.758
 149  1126.838
 150  1124.55
 151  1191.498
 152  972.2289
 153  971.9445
 154  1026.284
 155  1156.588
 156  1225.881
 157  1248.879
 158  1151.837
 159  1002.764
 160  1006.369
 161  1080.553
 162  1125.576
 163  1084.074
 164  887.6638
 165  675.2459
 166  758.1163
 167  941.2553
 168  1048.98
 169  1056.662
 170  1290.848
 171  1426.57
 172  1339.868
 173  1242.745
 174  1227.474
 175  1275.225
 176  1165.367
 177  1130.171
 178  1049.497
 179  891.5646
 180  759.749
 181  743.4578
 182  817.8536
 183  601.4452
 184  631.4624
 185  834.447
 186  1014.342
 187  961.1846
 188  905.4196
 189  1038.236
 190  1053.647
 191  1141.298
 192  1143.484
 193  1182.567
 194  1137.444
 195  1020.352
 196  928.556
 197  784.8916
 198  768.903
 199  894.0801
 200  943.5225
 201  908.7244
 202  1000.762
 203  1166.883
 204  1270.679
 205  1354.327
 206  1467.992
 207  1541.616
 208  1478.664
 209  1371.285
 210  1176.997
 211  940.6982
 212  799.9247
 213  786.5161
 214  691.0513
 215  569.0402
 216  575.2453
 217  727.0642
 218  754.2756
 219  994.5276
 220  1177.801
 221  1356.806
 222  1314.867
 223  1418.616
 224  1412.609
 225  1287.478
 226  1196.912
 227  1194.769
 228  1011.251
 229  711.5781
 230  538.1725
 231  659.4104
 232  664.0945
 233  635.1884
 234  779.2563
 235  973.9247
 236  1126.522
 237  1184.473
 238  1591.26
 239  1688.979
 240  1758.096
 241  1641.28
 242  1712.316
 243  1445.561
 244  1288.721
 245  1164.14
 246  1025.446
 247  701.2319
 248  499.0183
 249  573.0894
 250  657.3057
 251  627.876
 252  779.6171
 253  1028.262
 254  966.8478
 255  1014.157
 256  1185.127
 257  1471.054
 258  1605.733
 259  1676.081
 260  1381.245
 261  958.8817
 262  737.5511
 263  830.2783
 264  729.8445
 265  551.0934
 266  483.7521
 267  696.1645
 268  878.8448
 269  1067.453
 270  1157.079
 271  1321.795
 272  1386.705
 273  1470.257
 274  1584.082
 275  1598.303
 276  1504.784
 277  1335.226
 278  1145.648
 279  1028.148
 280  905.2635
 281  934.1434
 282  967.6874
 283  964.908
 284  936.1656
 285  976.1461
 286  881.9532
 287  888.6589
 288  978.5447
 289  1233.876
 290  1313.763
 291  1400.438
 292  1537.4
 293  1458.907
 294  1321.137
 295  1204.685
 296  1075.66
 297  1056.619
 298  961.179
 299  1011.3
 300  929.8742
 301  975.7175
 302  969.8994
 303  964.0022
 304  989.8677
 305  1175.735
 306  1413.108
 307  1478.673
 308  1557.411
 309  1491.803
 310  1463.577
 311  1268.147
 312  1205.535
 313  1083.432
 314  980.309
 315  815.5002
 316  614.8393
 317  646.5114
 318  854.5957
 319  1122.312
 320  1150.775
 321  1150.311
 322  1152.478
 323  1161.089
 324  1282.121
 325  1268.974
 326  1261.704
 327  1144.586
 328  1078.651
 329  980.1967
 330  902.9949
 331  779.7623
 332  851.6287
 333  1075.772
 334  1413.057
 335  1434.624
 336  1390.835
 337  1384.416
 338  1370.372
 339  1440.305
 340  1469.089
 341  1526.325
 342  1363.612
 343  1341.886
 344  1301.286
 345  1180.923
 346  944.4248
 347  908.6332
 348  956.582
 349  865.9138
 350  794.6841
 351  970.4331
 352  1181.115
 353  1190.688
 354  1117.599
 355  1120.653
 356  1274.746
 357  1319.621
 358  1370.256
 359  1140.394
 360  970.7709
 361  832.7545
 362  788.992
 363  776.2919
 364  819.9857
 365  959.5388
 366  1121.969
 367  1261.872
 368  1355.114
 369  1515.824
 370  1544.305
 371  1475.879
 372  1520.357
 373  1579.571
 374  1443.504
 375  1235.538
 376  1136.425
 377  928.6285
 378  817.9189
 379  853.1621
 380  958.2468
 381  831.3713
 382  853.5549
 383  986.4531
 384  1155.498
 385  1104.532
 386  1178.351
 387  1290.416
 388  1284.294
 389  1190.005
 390  1148.02
 391  1146.042
 392  1202.345
 393  1098.714
 394  846.2252
 395  522.2886
 396  574.7601
 397  796.0709
 398  915.7916
 399  888.9429
 400  1075.749
 401  1322.946
 402  1395.357
 403  1345.632
 404  1556.427
 405  1626.142
 406  1633.744
 407  1470.646
 408  1354.082
 409  1050.05
 410  899.6978
 411  940.923
 412  1014.779
 413  869.1656
 414  785.8996
 415  846.1855
 416  890.5064
 417  962.2144
 418  1032.945
 419  1147.327
 420  1169.591
 421  1161.267
 422  1209.386
 423  1159.31
 424  1163.012
 425  1188.386
 426  1123.929
 427  798.8145
 428  685.4274
 429  725.9527
 430  762.503
 431  616.5082
 432  661.7746
 433  767.6473
 434  995.6368
 435  1206.993
 436  1287.859
 437  1459.908
 438  1583.886
 439  1645.342
 440  1425.529
 441  1102.969
 442  863.1961
 443  863.7426
 444  718.5596
 445  536.4756
 446  501.1906
 447  647.9305
 448  706.8376
 449  676.3607
 450  726.9786
 451  776.5998
 452  1011.097
 453  1199.378
 454  1466.669
 455  1334.276
 456  1243.346
 457  1197.181
 458  1100.465
 459  1017.707
 460  1007.994
 461  1044.091
 462  987.137
 463  735.5604
 464  674.2256
 465  731.0469
 466  768.4257
 467  912.9985
 468  1020.479
 469  1224.956
 470  1410.23
 471  1571.873
 472  1558.684
 473  1508.275
 474  1542.098
 475  1541.969
 476  1391.385
 477  1222.135
 478  999.5233
 479  897.8311
 480  852.1851
 481  928.0355
 482  969.3961
 483  952.8646
 484  897.2484
 485  986.9554
 486  1086.598
 487  1143.061
 488  1136.749
 489  1174.552
 490  1257.424
 491  1225.099
 492  1144.871
 493  1119.516
 494  966.6791
 495  837.6592
 496  741.9844
 497  822.8877
 498  912.2515
 499  1048.469
 500  1255.952
 501  1267.539
 502  1240.539
 503  1321.012
 504  1398.451
 505  1337.537
 506  1331.7
 507  1179.173
 508  1095.558
 509  1011.211
 510  1044.874
 511  988.0501
 512  939.2515
 513  966.1515
 514  954.3352
 515  1101.453
 516  1079.514
 517  1152.937
 518  998.3008
 519  1077.345
 520  994.7963
 521  992.1614
 522  984.4589
 523  1012.554
 524  1063.625
 525  983.0894
 526  947.3499
 527  810.6725
 528  542.8315
 529  501.5522
 530  790.1757
 531  1092.068
 532  1215.113
 533  1162.408
 534  1205.978
 535  1316.752
 536  1429.378
 537  1469.945
 538  1385.028
 539  1310.284
 540  1176.75
 541  1085.998
 542  979.7922
 543  687.6894
 544  664.5505
 545  801.1458
 546  884.4696
 547  788.3228
 548  927.3516
 549  1191.698
 550  1478.677
 551  1424.422
 552  1359.706
 553  1248.149
 554  1233.444
 555  1291.418
 556  1321.147
 557  1237.547
 558  861.9711
 559  686.5961
 560  632.1246
 561  661.2139
 562  652.3785
 563  886.4634
 564  1121.043
 565  1212.986
 566  1274.035
 567  1370.823
 568  1543.415
 569  1602.214
 570  1668.077
 571  1640.27
 572  1635.753
 573  1547.156
 574  1303.071
 575  955.7033
 576  714.7412
 577  748.5205
 578  818.4426
 579  755.8212
 580  766.8406
 581  927.3967
 582  1045.982
 583  1061.618
 584  1166.219
 585  1276.772
 586  1356.367
 587  1469.078
 588  1547.504
 589  1462.278
 590  1273.894
 591  1234.261
 592  1200.594
 593  1101.452
 594  1058.232
 595  1308.623
 596  1503.095
 597  1709.289
 598  1966.344
 599  2242.127
 600  2406.84
 601  2548.278
 602  2572.387
 603  2530.629
 604  2345.442
 605  2197.935
 606  1860.656
 607  1472.63
 608  1228.696
 609  1304.745
 610  1301.18
 611  983.1016
 612  726.665
 613  646.2511
 614  843.1326
 615  787.6595
 616  1030.151
 617  1031.708
 618  1138.863
 619  1230.816
 620  1572.078
 621  1630.961
 622  1490.651
 623  1458.643
 624  1444.645
 625  1319.427
 626  1014.462
 627  947.6019
 628  969.7349
 629  944.4265
 630  939.5361
 631  888.9477
 632  946.3583
 633  1040.775
 634  1247.881
 635  1239.101
 636  1396.586
 637  1557.049
 638  1723.319
 639  1473.248
 640  1408.55
 641  1388.217
 642  1327.421
 643  1212.593
 644  1075.334
 645  1022.32
 646  1007.203
 647  1084.54
 648  1128.293
 649  1125.078
 650  1036.775
 651  1135.355
 652  1152.176
 653  1119.828
 654  1126.449
 655  1164.865
 656  1318.711
 657  1190.122
 658  1151.354
 659  1014.474
 660  991.7368
 661  1036.838
 662  1141.639
 663  1176.082
 664  1125.919
 665  1266.023
 666  1294.422
 667  1394.342
 668  1488.909
 669  1699.036
 670  1708.632
 671  1532.339
 672  1514.32
 673  1386.355
 674  1360.847
 675  1146.827
 676  1001.029
 677  878.9572
 678  939.781
 679  1197.651
 680  1198.385
 681  1168.571
 682  1135.96
 683  1234.844
 684  1387.577
 685  1490.141
 686  1402.042
 687  1293.298
 688  1262.925
 689  1193.419
 690  1000.017
 691  820.6332
 692  683.0192
 693  689.404
 694  676.1086
 695  769.7319
 696  1052.144
 697  1295.877
 698  1366.87
 699  1277.391
 700  1353.816
 701  1544.932
 702  1697.248
 703  1692.047
 704  1593.575
 705  1465.976
 706  1219.293
 707  1101.384
 708  943.0714
 709  927.007
 710  791.3472
 711  841.5048
 712  1028.363
 713  1121.107
 714  1318.545
 715  1360.912
 716  1623.883
 717  1619.011
 718  1521.387
 719  1295.384
 720  1264.201
 721  1273.459
 722  1143.602
 723  983.0005
 724  890.5212
 725  802.244
 726  762.4678
 727  636.6255
 728  597.0144
 729  778.0678
 730  1030.742
 731  1123.367
 732  1195.346
 733  1311.236
 734  1545.139
 735  1661.353
 736  1697.028
 737  1561.544
 738  1378.88
 739  1223.585
 740  1138.599
 741  1008.818
 742  778.8474
 743  581.5405
 744  671.9988
 745  755.6437
 746  809.3621
 747  915.913
 748  1080.383
 749  1149.896
 750  1174.891
 751  1297.763
 752  1344.509
 753  1467.364
 754  1405.946
 755  1331.028
 756  1081.965
 757  827.7948
 758  516.0527
 759  423.8908
 760  382.6485
 761  586.7842
 762  695.0963
 763  821.9009
 764  914.9423
 765  1112.735
 766  1401.804
 767  1534.265
 768  1682.398
 769  1646.382
 770  1516.946
 771  1403.993
 772  1222.727
 773  1118.112
 774  932.5273
 775  977.8237
 776  1017.968
 777  947.975
 778  679.3347
 779  533.7939
 780  533.0796
 781  691.006
 782  958.2804
 783  1141.741
 784  1149.742
 785  1214.312
 786  1440.963
 787  1444.993
 788  1288.204
 789  1145.219
 790  1019.564
 791  821.681
 792  622.2922
 793  452.4345
 794  372.4086
 795  410.6615
 796  537.8939
 797  631.8713
 798  757.7234
 799  1062.671
 800  1402.114
 801  1558.243
 802  1538.535
 803  1485.969
 804  1459.281
 805  1331.524
 806  1196.131
 807  1081.117
 808  880.7736
 809  847.769
 810  808.7824
 811  807.5425
 812  755.4362
 813  731.3171
 814  813.7696
 815  892.0062
 816  1046.416
 817  1074.365
 818  1079.194
 819  1121.852
 820  1133.199
 821  1111.193
 822  1042.637
 823  938.3843
 824  912.0961
 825  876.6494
 826  668.9248
 827  631.1309
 828  718.1004
 829  760.7873
 830  880.7286
 831  1008.867
 832  1192.309
 833  1201.083
 834  1249.827
 835  1296.837
 836  1119.501
 837  1103.265
 838  1062.479
 839  1065.569
 840  942.2038
 841  874.8555
 842  931.4539
 843  751.4749
 844  725.0512
 845  879.7366
 846  995.1618
 847  942.032
 848  917.3895
 849  1120.626
 850  1174.296
 851  1155.892
 852  1100.487
 853  1032.28
 854  894.9115
 855  808.6942
 856  783.6538
 857  836.0013
 858  861.949
 859  852.9595
 860  875.5056
 861  890.2291
 862  991.6218
 863  1218.745
 864  1409.848
 865  1497.773
 866  1496.79
 867  1504.162
 868  1401.592
 869  1327.256
 870  1210.717
 871  1104.073
 872  1109.428
 873  945.9808
 874  714.4563
 875  586.2165
 876  700.4782
 877  901.0001
 878  879.2473
 879  1002.635
 880  1015.786
 881  1086.809
 882  1172.72
 883  1321.389
 884  1313.414
 885  1342.503
 886  1193.829
 887  1175.517
 888  950.0026
 889  798.1323
 890  773.8275
 891  736.6801
 892  740.0496
 893  823.9884
 894  1054.454
 895  1146.88
 896  1093.191
 897  1022.604
 898  1131.006
 899  1368.389
 900  1588.477
 901  1697.052
 902  1506.468
 903  1320.565
 904  1130.729
 905  1112.258
 906  1029.327
 907  871.9865
 908  727.8245
 909  746.2493
 910  726.5219
 911  781.8146
 912  806.7731
 913  921.202
 914  1046.399
 915  1157.457
 916  1285.401
 917  1287.277
 918  1465.816
 919  1385.601
 920  1140.37
 921  798.3232
 922  714.4578
 923  658.3188
 924  538.1544
 925  397.1514
 926  395.8764
 927  501.3602
 928  684.4415
 929  916.4777
 930  1130.544
 931  1362.561
 932  1578.831
 933  1800.125
 934  1855.339
 935  1813.601
 936  1654.653
 937  1503.628
 938  1203.786
 939  789.4589
 940  470.3874
 941  392.844
 942  479.0219
 943  533.009
 944  664.2385
 945  680.0671
 946  805.8821
 947  924.4588
 948  1050.514
 949  1198.784
 950  1344.621
 951  1448.074
 952  1443
 953  1321.798
 954  1170.191
 955  1007.093
 956  760.2803
 957  555.1942
 958  546.3814
 959  670.0676
 960  686.1529
 961  684.5188
 962  778.7568
 963  1014.854
 964  1345.398
 965  1514.973
 966  1669.849
 967  1613.621
 968  1605.869
 969  1414.62
 970  1382.5
 971  1196.575
 972  1086.945
 973  985.2349
 974  1005.36
 975  917.5471
 976  665.1482
 977  510.2834
 978  598.7979
 979  924.844
 980  1088.144
 981  1142.305
 982  1293.927
 983  1424.497
 984  1484.269
 985  1323.159
 986  1220.615
 987  1093.859
 988  1028.883
 989  908.2117
 990  822.7119
 991  751.7717
 992  745.6033
 993  630.0739
 994  699.8793
 995  791.3137
 996  940.0004
 997  1114.79
 998  1053.568
 999  1068.751
1000  1209.291
1001  1441.526
1002  1557.695
1003  1355.421
1004  1151.129
1005  1022.673
1006  912.9122
1007  919.3973
1008  868.8788
1009  929.4383
1010  828.8964
1011  915.4828
1012  1037.897
1013  1105.275
1014  937.0241
1015  866.0098
1016  899.9598
1017  904.2753
1018  1036.274
1019  938.2582
1020  972.3344
1021  861.3969
1022  745.2553
1023  574.508
