# Input file       =  1210767789.121276_cleaned.dat
# Candidate        =  PSR_0332+5434
# Telescope        =  AR
# Epoch_topo       =  58257.516297699949
# Epoch_bary       =  N/A
# T_sample         =  0.002
# Data Folded      =  7340032
# Data Avg         =  0.179394462801741
# Data StdDev      =  4.40408173590674 
# Profile Bins     =  1024
# Profile Avg      =  1285.9008923253  
# Profile StdDev   =  372.867360857948 
# Reduced chi-sqr  =  0.766
# Prob(Noise)      <  1   (~0.0 sigma)
# P_topo (ms)      =  714.52950462154   +/- 0.000476
# P'_topo (s/s)    =  -0                +/- 2.51e-10
# P''_topo (s/s^2) =  0                 +/- 1.11e-13
# P_bary (ms)      =  N/A
# P'_bary (s/s)    =  N/A
# P''_bary (s/s^2) =  N/A
# P_orb (s)        =  N/A
# asin(i)/c (s)    =  N/A
# eccentricity     =  N/A
# w (rad)          =  N/A
# T_peri           =  N/A
######################################################
   0  1227.757
   1  1183.887
   2  1241.137
   3  1266.285
   4  1238.475
   5  1203.312
   6  1202.471
   7  1313.538
   8  1290.927
   9  1272.526
  10  1277.135
  11  1339.275
  12  1352.891
  13  1272.795
  14  1247.453
  15  1318.856
  16  1327.638
  17  1370.724
  18  1492.147
  19  1590.67
  20  1442.643
  21  1425.867
  22  1474.754
  23  1525.251
  24  1485.764
  25  1368.74
  26  1450.155
  27  1376.021
  28  1243.414
  29  1171.474
  30  1110.297
  31  1081.248
  32  1109.327
  33  1234.887
  34  1279.984
  35  1164.657
  36  1120.989
  37  1291.91
  38  1471.962
  39  1471.881
  40  1404.068
  41  1305.093
  42  1334.422
  43  1255.822
  44  1203.435
  45  1202.355
  46  1273.096
  47  1414.719
  48  1388.312
  49  1404.444
  50  1270.21
  51  1339.388
  52  1368.097
  53  1372.227
  54  1331.509
  55  1336.85
  56  1367.78
  57  1394.995
  58  1499.675
  59  1532.641
  60  1545.28
  61  1521.777
  62  1493.061
  63  1366.167
  64  1302.039
  65  1364.776
  66  1277.916
  67  1085.222
  68  985.1786
  69  1148.052
  70  1139.893
  71  1216.406
  72  1293.212
  73  1511.055
  74  1461.415
  75  1444.934
  76  1376.78
  77  1314.576
  78  1221.886
  79  1289.994
  80  1436.639
  81  1538.966
  82  1504.868
  83  1520.956
  84  1390.22
  85  1416.286
  86  1385.954
  87  1567.961
  88  1508.54
  89  1500.307
  90  1437.117
  91  1495.678
  92  1389.734
  93  1299.02
  94  1186.929
  95  1307.381
  96  1355.393
  97  1432.032
  98  1496.938
  99  1569.233
 100  1518.835
 101  1448.015
 102  1417.716
 103  1299.429
 104  1317.078
 105  1281.51
 106  1318.069
 107  1276.143
 108  1337.707
 109  1555.453
 110  1664.84
 111  1653.35
 112  1581.988
 113  1484.517
 114  1507.879
 115  1492.032
 116  1484.689
 117  1440.288
 118  1375.811
 119  1296.74
 120  1267.359
 121  1259.67
 122  1253.477
 123  1153.023
 124  1238.359
 125  1303.249
 126  1394.832
 127  1262.446
 128  1251.8
 129  1211.989
 130  1203.112
 131  1134.931
 132  1201.896
 133  1211.568
 134  1312.787
 135  1214.317
 136  1001.371
 137  806.7297
 138  706.5903
 139  874.0562
 140  937.6352
 141  1023.087
 142  978.9069
 143  1070.442
 144  1129.181
 145  1132.724
 146  1174.103
 147  1182.473
 148  1198.768
 149  1069.919
 150  1058.944
 151  962.1904
 152  1076.736
 153  1121.204
 154  1191.681
 155  1175.475
 156  1224.55
 157  1290.133
 158  1279.85
 159  1248.969
 160  1112.538
 161  966.993
 162  990.9266
 163  1100.219
 164  1182.668
 165  1166.871
 166  1187.233
 167  1179.806
 168  1166.247
 169  1165.284
 170  1113.788
 171  1093.419
 172  1156.051
 173  1187.401
 174  1219.175
 175  1079.539
 176  1059.166
 177  1018.473
 178  1064.54
 179  1254.104
 180  1411.453
 181  1414.974
 182  1334.696
 183  1251.231
 184  1174.146
 185  1132.483
 186  1171.675
 187  1257.271
 188  1177.176
 189  1089.781
 190  1072.638
 191  1130.329
 192  1189.673
 193  1203.498
 194  1323.163
 195  1374.1
 196  1344.043
 197  1396.632
 198  1408.853
 199  1415.562
 200  1274.478
 201  1126.449
 202  960.2988
 203  986.5101
 204  1129.957
 205  1249.804
 206  1274.71
 207  1148.176
 208  1219.179
 209  1289.355
 210  1402.393
 211  1209.196
 212  1158.393
 213  1256.986
 214  1274.48
 215  1125.227
 216  1124.879
 217  1198.037
 218  1304.054
 219  1276.631
 220  1285.972
 221  1092.237
 222  1007.394
 223  947.3947
 224  1011.969
 225  1050.002
 226  1123.788
 227  1120.019
 228  1097.747
 229  1044.694
 230  1075.991
 231  1153.916
 232  1246.159
 233  1196.26
 234  1062.721
 235  993.3307
 236  1018.119
 237  961.8486
 238  944.191
 239  946.0177
 240  979.3428
 241  965.3643
 242  1050.296
 243  1065.553
 244  1102.014
 245  1064.134
 246  1025.062
 247  1076.896
 248  1054.613
 249  1103.125
 250  1106.015
 251  1060.394
 252  1129.627
 253  1089.012
 254  1104.093
 255  1145.184
 256  1122.478
 257  1156.907
 258  1083.001
 259  1192.691
 260  1221.767
 261  1224.686
 262  1202.647
 263  1245.583
 264  1202.197
 265  1174.361
 266  1037.16
 267  982.9003
 268  965.2338
 269  1048.397
 270  1051.887
 271  1112.259
 272  1000.441
 273  1009.007
 274  1036
 275  1123.123
 276  1175.031
 277  1272.453
 278  1230.257
 279  1238.487
 280  1143.205
 281  1229.575
 282  1303.46
 283  1364.332
 284  1320.665
 285  1263.193
 286  1113.107
 287  1105.021
 288  1036.679
 289  1142.437
 290  1200.359
 291  1230.35
 292  1261.182
 293  1167.105
 294  1188.732
 295  1181.777
 296  1318.323
 297  1352.961
 298  1319.378
 299  1343.984
 300  1282.366
 301  1250.239
 302  1157.152
 303  1099.15
 304  998.4913
 305  1000.288
 306  1070.784
 307  1070.713
 308  1066.06
 309  1095.257
 310  1208.743
 311  1290.104
 312  1298.347
 313  1326.73
 314  1290.378
 315  1266.097
 316  1280.104
 317  1190.995
 318  1217.357
 319  1329.121
 320  1513.824
 321  1475.229
 322  1409.269
 323  1363.465
 324  1523.632
 325  1516.98
 326  1467.358
 327  1418.294
 328  1516.013
 329  1459.873
 330  1419.95
 331  1431.525
 332  1444.627
 333  1423.393
 334  1380.919
 335  1358.077
 336  1186.016
 337  1050.674
 338  1140.605
 339  1160.586
 340  1232.501
 341  1149.658
 342  1304.274
 343  1381.205
 344  1308.391
 345  1200.05
 346  1216.407
 347  1325.711
 348  1319.262
 349  1194.67
 350  1285.303
 351  1275.344
 352  1322.887
 353  1135.906
 354  1106.164
 355  1018.226
 356  1117.122
 357  1143.718
 358  1095.045
 359  1034.255
 360  995.6124
 361  1089.817
 362  1173.405
 363  1188.061
 364  1192.218
 365  1257.709
 366  1346.48
 367  1338.332
 368  1338.307
 369  1330.927
 370  1387.196
 371  1414.849
 372  1489.257
 373  1405.967
 374  1326.652
 375  1389.014
 376  1469.362
 377  1552.151
 378  1524.129
 379  1501.533
 380  1582.469
 381  1513.392
 382  1520.65
 383  1490.867
 384  1507.791
 385  1414.768
 386  1367.965
 387  1405.068
 388  1559.008
 389  1593.376
 390  1675.668
 391  1610.301
 392  1563.575
 393  1563.77
 394  1578.042
 395  1533.07
 396  1377.102
 397  1261.075
 398  1261.091
 399  1248.877
 400  1241.214
 401  1157.442
 402  1286.587
 403  1467.117
 404  1427.308
 405  1433.608
 406  1311.006
 407  1355.261
 408  1327.186
 409  1417.47
 410  1374.623
 411  1286.527
 412  1244.354
 413  1259.577
 414  1185.811
 415  1196.257
 416  1203.291
 417  1271.323
 418  1235.322
 419  1204.817
 420  1265.836
 421  1390.028
 422  1530.154
 423  1576.861
 424  1572.769
 425  1557.785
 426  1449.594
 427  1477.99
 428  1319.336
 429  1254.363
 430  1218.988
 431  1332.845
 432  1435.096
 433  1485.253
 434  1525.484
 435  1540.613
 436  1479.517
 437  1256.426
 438  1054.262
 439  1023.241
 440  1184.657
 441  1320.216
 442  1307.69
 443  1202.955
 444  1043.192
 445  999.2891
 446  999.5786
 447  1048.409
 448  1071.617
 449  1127.827
 450  1143.026
 451  1060.55
 452  958.2878
 453  1133.95
 454  1340.776
 455  1357.561
 456  1339.547
 457  1287.468
 458  1326.124
 459  1175.558
 460  1241.285
 461  1262.383
 462  1210.812
 463  1183.365
 464  1197.948
 465  1237.365
 466  1094.642
 467  1065.535
 468  1164.999
 469  1178.607
 470  1252.564
 471  1319.613
 472  1342.96
 473  1226.936
 474  1160.625
 475  1235.673
 476  1225.3
 477  1383.437
 478  1384.999
 479  1362.05
 480  1301.626
 481  1337.113
 482  1354.678
 483  1282.043
 484  1284.32
 485  1343.442
 486  1364.279
 487  1366.942
 488  1347.635
 489  1302.719
 490  1155.058
 491  1162.044
 492  1156.858
 493  1278.353
 494  1307.829
 495  1325.614
 496  1282.036
 497  1258.571
 498  1235.813
 499  1190.354
 500  1115.029
 501  1164.463
 502  1087.232
 503  1008.62
 504  941.9755
 505  1083.966
 506  1241.826
 507  1316.946
 508  1220.165
 509  1065.343
 510  1102.438
 511  1193.343
 512  1233.808
 513  1137.474
 514  1088.706
 515  1052.873
 516  1098.022
 517  1126.702
 518  1286.943
 519  1349.233
 520  1325.274
 521  1273.047
 522  1226.994
 523  1171.894
 524  1017.211
 525  881.7051
 526  927.8486
 527  940.2917
 528  1023.371
 529  1048.775
 530  1220.237
 531  1236.795
 532  1279.774
 533  1151.008
 534  1206.711
 535  1124.144
 536  1071.017
 537  1018.026
 538  1116.635
 539  1139.411
 540  1165.37
 541  1165.386
 542  1199.974
 543  1258.742
 544  1208.527
 545  1182.33
 546  1102.896
 547  1075.707
 548  1066.186
 549  1052.094
 550  978.8389
 551  998.1974
 552  962.1115
 553  981.5748
 554  861.4908
 555  837.7793
 556  976.8663
 557  1055.077
 558  1153.14
 559  1108.011
 560  1201.726
 561  1205.654
 562  1249.49
 563  1257.567
 564  1176.731
 565  969.2741
 566  872.0334
 567  888.3733
 568  1002.258
 569  1027.713
 570  868.1752
 571  914.3616
 572  965.0289
 573  987.1091
 574  846.3196
 575  806.9036
 576  948.6003
 577  946.8543
 578  1040.88
 579  909.4203
 580  965.6538
 581  1041.691
 582  1178.75
 583  1200.334
 584  1186.178
 585  1085.636
 586  1129.242
 587  1183.551
 588  1250.709
 589  1267.365
 590  1281.244
 591  1353.915
 592  1418.075
 593  1526.493
 594  1638.857
 595  1735.713
 596  1844.375
 597  1996.619
 598  2071.019
 599  2083.09
 600  1977.259
 601  1898.09
 602  1751.036
 603  1572.144
 604  1471.176
 605  1443.504
 606  1400.912
 607  1227.454
 608  1159.383
 609  1124.031
 610  1105.075
 611  1096.404
 612  1246.355
 613  1373.432
 614  1408.73
 615  1419.594
 616  1455.735
 617  1406.488
 618  1379.545
 619  1450.755
 620  1523.287
 621  1402.635
 622  1310.106
 623  1231.919
 624  1362.777
 625  1336.438
 626  1527.689
 627  1505.686
 628  1501.454
 629  1406.905
 630  1357.151
 631  1506.866
 632  1558.52
 633  1518.536
 634  1368.438
 635  1295.123
 636  1371.791
 637  1460.322
 638  1559.763
 639  1609.165
 640  1529.702
 641  1567.785
 642  1603.966
 643  1616.694
 644  1598.755
 645  1600.677
 646  1635.556
 647  1602.928
 648  1444.891
 649  1416.73
 650  1478.038
 651  1551.021
 652  1579.034
 653  1664.834
 654  1609.344
 655  1443.346
 656  1255.732
 657  1275.954
 658  1366.679
 659  1496.887
 660  1546.07
 661  1479.971
 662  1353.419
 663  1257.034
 664  1397.184
 665  1486.115
 666  1543.992
 667  1489.602
 668  1393.892
 669  1323.874
 670  1203.327
 671  1313.579
 672  1266.713
 673  1274.308
 674  1345.668
 675  1375.827
 676  1401.706
 677  1344.023
 678  1384.165
 679  1460.505
 680  1382.332
 681  1374.089
 682  1326.37
 683  1205.287
 684  1171.876
 685  1129.792
 686  1218.776
 687  1285.552
 688  1282.651
 689  1378.518
 690  1418.833
 691  1401.371
 692  1319.992
 693  1282.283
 694  1291.74
 695  1370.584
 696  1364.633
 697  1244.98
 698  1193.704
 699  1249.385
 700  1345.526
 701  1404.075
 702  1365.325
 703  1347.44
 704  1362.229
 705  1391.328
 706  1414.48
 707  1434.512
 708  1459.402
 709  1554.421
 710  1631.301
 711  1795.029
 712  1688.17
 713  1492.738
 714  1368.515
 715  1370.695
 716  1436.023
 717  1472.703
 718  1518.763
 719  1568.947
 720  1578.819
 721  1475.504
 722  1518.506
 723  1466.655
 724  1454.22
 725  1225.123
 726  1277.795
 727  1350.91
 728  1485.609
 729  1497.226
 730  1431.547
 731  1350.537
 732  1315.786
 733  1299.357
 734  1300.446
 735  1256.403
 736  1339.323
 737  1409.727
 738  1460.353
 739  1433.106
 740  1428.816
 741  1561.556
 742  1594.899
 743  1474.978
 744  1278.387
 745  1294.004
 746  1402.89
 747  1476.147
 748  1397.749
 749  1393.091
 750  1397.572
 751  1418.994
 752  1435.312
 753  1406.385
 754  1475.451
 755  1464.566
 756  1456.484
 757  1439.031
 758  1398.042
 759  1354.538
 760  1445.906
 761  1437.953
 762  1501.017
 763  1551.873
 764  1527.833
 765  1523.006
 766  1430.375
 767  1604.912
 768  1412.413
 769  1324.438
 770  1091.608
 771  1216.188
 772  1420.904
 773  1490.593
 774  1527.975
 775  1540.891
 776  1446.357
 777  1325.041
 778  1306.959
 779  1421.027
 780  1331.79
 781  1297.703
 782  1351.013
 783  1539.387
 784  1506.688
 785  1436.79
 786  1345.828
 787  1344.735
 788  1243.207
 789  1248.746
 790  1235.2
 791  1361.198
 792  1380.908
 793  1349.908
 794  1397.625
 795  1409.936
 796  1327.596
 797  1301.167
 798  1330.031
 799  1516.431
 800  1429.227
 801  1322.508
 802  1261.735
 803  1269.024
 804  1246.896
 805  1239.386
 806  1252.388
 807  1423.702
 808  1576.861
 809  1580.19
 810  1396.507
 811  1308.82
 812  1378.318
 813  1446.366
 814  1372.194
 815  1366.726
 816  1273.977
 817  1300.217
 818  1295.692
 819  1399.425
 820  1374.778
 821  1251.163
 822  1195.28
 823  1190.237
 824  1350.287
 825  1415.948
 826  1296.716
 827  1134.76
 828  1101.149
 829  1258.813
 830  1127.944
 831  942.6147
 832  909.5593
 833  1026.373
 834  1070.994
 835  1144.053
 836  1104.148
 837  1301.403
 838  1258.71
 839  1362.344
 840  1428.824
 841  1374.421
 842  1325.879
 843  1137.769
 844  1149.656
 845  1102.77
 846  994.0792
 847  952.9271
 848  958.0986
 849  1097.714
 850  1207.12
 851  1134.037
 852  1237.758
 853  1179.282
 854  1236.745
 855  1261.456
 856  1369.714
 857  1327.094
 858  1193.055
 859  1150.964
 860  1213.145
 861  1147.784
 862  1068.03
 863  1000.93
 864  1023.483
 865  1077.792
 866  1098.193
 867  1175.353
 868  1216.569
 869  1153.405
 870  1190.009
 871  1255.022
 872  1434.667
 873  1604.775
 874  1563.034
 875  1547.028
 876  1474.721
 877  1510.124
 878  1461.11
 879  1318.863
 880  1238.087
 881  1116.163
 882  1058.556
 883  1217.352
 884  1370.956
 885  1418.866
 886  1404.943
 887  1419.505
 888  1368.255
 889  1264.804
 890  1191.641
 891  1202.32
 892  1141.271
 893  1049.411
 894  926.8697
 895  905.2797
 896  928.0046
 897  1118.241
 898  1332.691
 899  1490.432
 900  1410.887
 901  1345.971
 902  1252.536
 903  1290.591
 904  1193.11
 905  1304.867
 906  1237.397
 907  1318.947
 908  1268.535
 909  1270.211
 910  1336.286
 911  1366.75
 912  1372.023
 913  1312.943
 914  1241.408
 915  1171.201
 916  1089.671
 917  1162.982
 918  1185.938
 919  1334.242
 920  1330.393
 921  1399.842
 922  1469.554
 923  1597.759
 924  1676.207
 925  1646.236
 926  1578.171
 927  1590.207
 928  1531.846
 929  1454.403
 930  1414.99
 931  1381.91
 932  1443.382
 933  1374.157
 934  1414.052
 935  1375.171
 936  1250.942
 937  1234.704
 938  1341.246
 939  1450.855
 940  1451.007
 941  1478.156
 942  1620.56
 943  1648.379
 944  1582.791
 945  1582.989
 946  1599.394
 947  1518.699
 948  1529.323
 949  1409.991
 950  1337.519
 951  1180.597
 952  1283.932
 953  1324.001
 954  1238.618
 955  1240.132
 956  1301.637
 957  1392.757
 958  1392.946
 959  1506.06
 960  1667.049
 961  1636.259
 962  1585.931
 963  1524.85
 964  1458.605
 965  1399.557
 966  1341.403
 967  1386.053
 968  1321.166
 969  1231.306
 970  1286.066
 971  1238.48
 972  1306.729
 973  1323.794
 974  1481.865
 975  1539.019
 976  1458.147
 977  1374.084
 978  1292.601
 979  1362.186
 980  1471.814
 981  1534.724
 982  1431.204
 983  1187.691
 984  931.4479
 985  918.8351
 986  1039.911
 987  1203.005
 988  1285.326
 989  1317.826
 990  1355.294
 991  1290.753
 992  1326.862
 993  1330.076
 994  1244.399
 995  1195.341
 996  1155.292
 997  1126.639
 998  1021.818
 999  978.6425
1000  1014.615
1001  1112.276
1002  1117.139
1003  1183.677
1004  1184.521
1005  1201.8
1006  1160.029
1007  1163.117
1008  1177.978
1009  1264.709
1010  1245.348
1011  1226.802
1012  1053.35
1013  1077.314
1014  995.9605
1015  1003.617
1016  1037.985
1017  1204.247
1018  1249.625
1019  1306.52
1020  1391.182
1021  1506.427
1022  1380.23
1023  1264.379
