# Input file       =  1210580531.111079_cleaned.dat
# Candidate        =  PSR_0332+5434
# Telescope        =  AR
# Epoch_topo       =  58255.348959618968
# Epoch_bary       =  N/A
# T_sample         =  0.002
# Data Folded      =  7340032
# Data Avg         =  0.110562554019063
# Data StdDev      =  4.82197776965037 
# Profile Bins     =  512
# Profile Avg      =  1585.01666068216 
# Profile StdDev   =  577.350039701505 
# Reduced chi-sqr  =  0.895
# Prob(Noise)      <  0.957   (~0.0 sigma)
# P_topo (ms)      =  714.531296606466  +/- 0.000756
# P'_topo (s/s)    =  -0                +/- 3.99e-10
# P''_topo (s/s^2) =  0                 +/- 1.76e-13
# P_bary (ms)      =  N/A
# P'_bary (s/s)    =  N/A
# P''_bary (s/s^2) =  N/A
# P_orb (s)        =  N/A
# asin(i)/c (s)    =  N/A
# eccentricity     =  N/A
# w (rad)          =  N/A
# T_peri           =  N/A
######################################################
   0  1133.642
   1  1314.752
   2  1362.251
   3  1547.091
   4  1369.437
   5  1264.879
   6  1136.104
   7  984.9955
   8  918.041
   9  807.4195
  10  741.9503
  11  748.6584
  12  974.0564
  13  610.4844
  14  853.1152
  15  618.1263
  16  612.9742
  17  1104.892
  18  1646.014
  19  2061.568
  20  2219.686
  21  2617.7
  22  2661.363
  23  2502.719
  24  1945.99
  25  1221.481
  26  1138.841
  27  1056.17
  28  1057.896
  29  881.1511
  30  827.5587
  31  1160.236
  32  1250.958
  33  1316.467
  34  1112.561
  35  1060.645
  36  1270.303
  37  1617.65
  38  1495.635
  39  1726.082
  40  1604.086
  41  1822.883
  42  1811.321
  43  1643.696
  44  1506.118
  45  1031.004
  46  1169.22
  47  1528.427
  48  1494.929
  49  1769.987
  50  1630.254
  51  1531.682
  52  1781.691
  53  1767.482
  54  1465.462
  55  1435.816
  56  1599.495
  57  1610.863
  58  1429.561
  59  1391.129
  60  1567.667
  61  1436.719
  62  1359.671
  63  1202.73
  64  1533.356
  65  1280.93
  66  1600.601
  67  1829
  68  1770.572
  69  1854.702
  70  1821.337
  71  1934.435
  72  2247.451
  73  2441.389
  74  2322.925
  75  1892.713
  76  1993.531
  77  2067.171
  78  2033.778
  79  1902.202
  80  1852.192
  81  1889.478
  82  2125.502
  83  2127.013
  84  1914.327
  85  2025.96
  86  1854.546
  87  1740.309
  88  1872.144
  89  2302.215
  90  2236.605
  91  2018.355
  92  1820.411
  93  1594.029
  94  1808.375
  95  1757.324
  96  2037.158
  97  2065.483
  98  1977.245
  99  2036.417
 100  1994.829
 101  1748.3
 102  1834.272
 103  1882.844
 104  1950.052
 105  1941.567
 106  2047.557
 107  1975.15
 108  2355.045
 109  2462.715
 110  1654.16
 111  1903.198
 112  2021.391
 113  1915.771
 114  1852.284
 115  1841.742
 116  1970.652
 117  2215.276
 118  2435.892
 119  2492.921
 120  2333.538
 121  2255.503
 122  2222.897
 123  2436.584
 124  2679.909
 125  2391.455
 126  2440.303
 127  2674.017
 128  2693.158
 129  2393.036
 130  2276.931
 131  2435.823
 132  2385.463
 133  2426.303
 134  2407.917
 135  2015.926
 136  2117.248
 137  2045.718
 138  1895.106
 139  2011.929
 140  2388.25
 141  1996.205
 142  1685.372
 143  1574.773
 144  1636.797
 145  1670.319
 146  1684.94
 147  2045.041
 148  2048.52
 149  1809.69
 150  1710.944
 151  1792.22
 152  1686.702
 153  1662.785
 154  1849.972
 155  1860.885
 156  1608.514
 157  1625.087
 158  1666.069
 159  1550.984
 160  1665.859
 161  1570.616
 162  1342.631
 163  1758.645
 164  2044.867
 165  2047.121
 166  2316.136
 167  2011.778
 168  1637.104
 169  1698.825
 170  2010.121
 171  1888.162
 172  2041.644
 173  1729.288
 174  1632.959
 175  1476.885
 176  1803.886
 177  1781.835
 178  1567.891
 179  1715.054
 180  1679.698
 181  1738.121
 182  1662.021
 183  1704.772
 184  1706.097
 185  1840.056
 186  1752.203
 187  1542.136
 188  1441.394
 189  1492.439
 190  1661.51
 191  1754.116
 192  1468.291
 193  1651.561
 194  1644.609
 195  1404.761
 196  1384.532
 197  1538.324
 198  1565.5
 199  1513.515
 200  1789.578
 201  1896.679
 202  1725.733
 203  1909.986
 204  2129.647
 205  2006.848
 206  1780.765
 207  1789.666
 208  2039.052
 209  1783.496
 210  1834.26
 211  2114.097
 212  2297.633
 213  2104.342
 214  2212.836
 215  2207.086
 216  2237.101
 217  2077.367
 218  2081.671
 219  2265.864
 220  1998.014
 221  1968.199
 222  2124.019
 223  1667.72
 224  1752.39
 225  1852.269
 226  1658.872
 227  1635.631
 228  1428.081
 229  1602.801
 230  1823.892
 231  1648.236
 232  1347.742
 233  1224.713
 234  1353.361
 235  1393.432
 236  1617.692
 237  2252.247
 238  1835.433
 239  1659.472
 240  1844.605
 241  1619.579
 242  1797.025
 243  1642.099
 244  1938.945
 245  2122.631
 246  1946.928
 247  1976.908
 248  2004.255
 249  2089.295
 250  1802.804
 251  1860.766
 252  1876.679
 253  1766.62
 254  1804.309
 255  2031.098
 256  2034.809
 257  1518.642
 258  1878.258
 259  1985.334
 260  1604.654
 261  1845.838
 262  2259.254
 263  1863.277
 264  1954.564
 265  1888.238
 266  1566.851
 267  1424.803
 268  1754.455
 269  1697.019
 270  1745.811
 271  1632.195
 272  1332.875
 273  1165.464
 274  1252.389
 275  1558.861
 276  1847.083
 277  1606.871
 278  1696.504
 279  1650.369
 280  1493.459
 281  1335.798
 282  1692.459
 283  1619.353
 284  1358.159
 285  1455.793
 286  1400.945
 287  1467.121
 288  1227.668
 289  1344.35
 290  1328.041
 291  1658.056
 292  1584.998
 293  1511.308
 294  1346.408
 295  1033.469
 296  1680.072
 297  1856.99
 298  1801.391
 299  1279.558
 300  1313.371
 301  1591.945
 302  1452.089
 303  1365.523
 304  1558.749
 305  1867.095
 306  1820.769
 307  1527.514
 308  1480.071
 309  1544.412
 310  1684.83
 311  1855.004
 312  1697.597
 313  1385.801
 314  1438.884
 315  1372.329
 316  1765.652
 317  1528.616
 318  1510.093
 319  1351.905
 320  1014.673
 321  1187.512
 322  1154.087
 323  983.3248
 324  1091.703
 325  1266.747
 326  1463.774
 327  1129.113
 328  1247.239
 329  1529.223
 330  1525.646
 331  1581.077
 332  1542.592
 333  1436.106
 334  1311.775
 335  1351.718
 336  1521.67
 337  1256.919
 338  1548.935
 339  1457.558
 340  1501.943
 341  1788.152
 342  1656.612
 343  1385.736
 344  1631.073
 345  2111.989
 346  1975.62
 347  1820.769
 348  1812.821
 349  1297.816
 350  1348.443
 351  1498.188
 352  1177.732
 353  1318.302
 354  1147.018
 355  1168.01
 356  1095.285
 357  1369.917
 358  1211.67
 359  1299.035
 360  1395.364
 361  1448.585
 362  1441.556
 363  1317.08
 364  1718.999
 365  1441.772
 366  1107.016
 367  1208.301
 368  1698.229
 369  1634.115
 370  1195.05
 371  1139.685
 372  1626.617
 373  1462.793
 374  1579.561
 375  1784.048
 376  1945.476
 377  1231.653
 378  1404.674
 379  1788.516
 380  1753.546
 381  1635.733
 382  1829.185
 383  1941.959
 384  2096.583
 385  1774.647
 386  1458.413
 387  1514.116
 388  1371.776
 389  1668.624
 390  1551.546
 391  1767.388
 392  1629.533
 393  1764.424
 394  1728.277
 395  1733.299
 396  1708.407
 397  1660.271
 398  1388.859
 399  1276.194
 400  1383.129
 401  1255.021
 402  1128.441
 403  1446.689
 404  1557.775
 405  1046.335
 406  1036.096
 407  1019.49
 408  1226.989
 409  1421.004
 410  1194.928
 411  859.3625
 412  806.1183
 413  689.7637
 414  1003.838
 415  999.6245
 416  802.4535
 417  758.7342
 418  1210.502
 419  1202.578
 420  1461.342
 421  1661.305
 422  1402.894
 423  1266.821
 424  1191.961
 425  1514.548
 426  1451.408
 427  1233.579
 428  1213.88
 429  1122.725
 430  1393.026
 431  1397.593
 432  1297.032
 433  1804.556
 434  1778.342
 435  1408.751
 436  1153.238
 437  1394.65
 438  1348.974
 439  1446.962
 440  1155.19
 441  1474.623
 442  1218.593
 443  963.7258
 444  1454.433
 445  1271.829
 446  946.679
 447  697.4162
 448  972.6294
 449  1026.905
 450  945.1033
 451  473.9883
 452  467.6406
 453  700.4693
 454  904.249
 455  1119.207
 456  1230.234
 457  1428.419
 458  1765.839
 459  1318.939
 460  1345.137
 461  1381.779
 462  915.8717
 463  1071.486
 464  1149.261
 465  1417.772
 466  1268.171
 467  1497.432
 468  1417.588
 469  1381.092
 470  1424.607
 471  907.931
 472  1196.054
 473  1388.8
 474  1246.237
 475  1066.933
 476  1123.25
 477  1255.501
 478  1423.249
 479  1592.833
 480  1450.324
 481  1338.789
 482  1122.122
 483  1131.138
 484  1224.688
 485  1232.336
 486  1352.976
 487  1381.541
 488  1262.709
 489  1109.301
 490  1097.373
 491  912.127
 492  897.3967
 493  715.8699
 494  1305.188
 495  1307.798
 496  1286.526
 497  1198.226
 498  1002.429
 499  1108.682
 500  1462.958
 501  1544.829
 502  1218.477
 503  1296.911
 504  1528.778
 505  1762.275
 506  1462.867
 507  1447.829
 508  1333.639
 509  1664.491
 510  1686.096
 511  1438.328
