# Input file       =  1210063501.123266_cleaned.dat
# Candidate        =  PSR_0332+5434
# Telescope        =  AR
# Epoch_topo       =  58249.364816241505
# Epoch_bary       =  N/A
# T_sample         =  0.002
# Data Folded      =  7340032
# Data Avg         =  0.071519817789976
# Data StdDev      =  0.999983619174005
# Profile Bins     =  512
# Profile Avg      =  1025.07484511279 
# Profile StdDev   =  119.731075050731 
# Reduced chi-sqr  =  1.991
# Prob(Noise)      <  7.41e-36   (~12.4 sigma)
# P_topo (ms)      =  714.537104193112  +/- 0.000509
# P'_topo (s/s)    =  -0                +/- 2.68e-10
# P''_topo (s/s^2) =  0                 +/- 1.19e-13
# P_bary (ms)      =  N/A
# P'_bary (s/s)    =  N/A
# P''_bary (s/s^2) =  N/A
# P_orb (s)        =  N/A
# asin(i)/c (s)    =  N/A
# eccentricity     =  N/A
# w (rad)          =  N/A
# T_peri           =  N/A
######################################################
   0  1782.14
   1  1689.767
   2  1497.425
   3  1245.951
   4  1139.369
   5  1082.105
   6  1077.69
   7  1148.89
   8  1058.844
   9  1017.554
  10  1085.202
  11  1033.575
  12  1148.13
  13  1221.068
  14  1181.276
  15  1166.573
  16  1115.69
  17  1096.843
  18  1028.772
  19  1089.943
  20  1195.307
  21  1143.069
  22  1107.579
  23  1106.852
  24  1160.755
  25  1069.694
  26  1099.855
  27  1065.612
  28  1143.779
  29  1123.161
  30  1097.87
  31  1026.46
  32  978.5289
  33  1010.928
  34  1018.295
  35  1022.532
  36  1045.414
  37  1066.76
  38  1047.223
  39  1076.879
  40  1058.386
  41  1027.514
  42  1034.141
  43  1003.281
  44  1016.219
  45  1059.698
  46  1124.079
  47  1068
  48  1018.107
  49  1080.035
  50  1062.73
  51  978.0374
  52  1042.457
  53  1068.542
  54  1065.326
  55  991.9647
  56  894.0699
  57  870.4791
  58  1009.657
  59  1009.499
  60  904.5891
  61  1007.85
  62  1042.721
  63  1007.106
  64  994.8331
  65  1071.9
  66  1040.027
  67  1053.512
  68  1021.14
  69  1067.842
  70  1049.156
  71  987.5823
  72  1015.802
  73  1043.447
  74  1150.133
  75  1097.037
  76  1029.591
  77  1022.906
  78  993.8459
  79  1053.538
  80  982.822
  81  892.0322
  82  919.8784
  83  1040.545
  84  1026.652
  85  1035.55
  86  982.5388
  87  948.6107
  88  842.7551
  89  842.3815
  90  944.667
  91  978.3461
  92  929.0056
  93  926.3154
  94  973.1921
  95  974.1083
  96  1006.552
  97  965.067
  98  924.713
  99  1034.946
 100  970.5552
 101  867.9618
 102  855.3867
 103  1002.971
 104  936.0618
 105  999.5678
 106  960.6723
 107  985.6425
 108  977.3694
 109  959.7673
 110  944.9756
 111  930.3668
 112  843.5547
 113  863.2016
 114  815.2772
 115  845.9559
 116  814.3688
 117  806.9701
 118  844.9944
 119  917.849
 120  932.4161
 121  963.8265
 122  910.8795
 123  836.8404
 124  917.4745
 125  933.036
 126  846.5771
 127  967.6425
 128  965.9276
 129  909.7924
 130  825.713
 131  853.1706
 132  887.8115
 133  973.8615
 134  823.1879
 135  854.082
 136  984.955
 137  1074.631
 138  989.2869
 139  973.8345
 140  1010.305
 141  932.3794
 142  840.9376
 143  777.5922
 144  766.3649
 145  808.967
 146  971.6786
 147  959.7313
 148  947.6027
 149  971.3755
 150  974.5824
 151  1014.089
 152  1092.948
 153  991.6599
 154  889.0461
 155  914.3337
 156  977.2999
 157  1033.563
 158  1032.904
 159  1029.041
 160  1006.266
 161  904.588
 162  862.1403
 163  922.5179
 164  953.3351
 165  971.8675
 166  949.4778
 167  840.6427
 168  891.2443
 169  908.6142
 170  877.6601
 171  844.021
 172  834.6065
 173  830.3394
 174  827.0541
 175  827.5961
 176  836.4081
 177  898.7037
 178  870.06
 179  844.1151
 180  803.5625
 181  766.3994
 182  822.3248
 183  876.3101
 184  799.7
 185  779.8881
 186  817.8011
 187  791.4596
 188  864.4969
 189  930.929
 190  876.8755
 191  908.2144
 192  882.1281
 193  890.083
 194  929.8299
 195  903.2492
 196  964.1057
 197  1023.497
 198  982.6477
 199  955.4346
 200  955.8663
 201  1037.491
 202  1014.415
 203  955.4681
 204  978.8049
 205  944.634
 206  862.202
 207  868.5262
 208  874.3348
 209  889.6397
 210  904.7457
 211  951.0786
 212  945.0696
 213  895.6603
 214  865.8802
 215  933.1165
 216  926.4713
 217  932.2711
 218  844.4948
 219  897.8483
 220  932.3425
 221  888.4954
 222  897.8429
 223  930.0589
 224  932.7426
 225  906.7023
 226  965.071
 227  912.2822
 228  937.199
 229  935.9949
 230  978.3877
 231  956.8179
 232  1057.993
 233  1128.708
 234  1031.215
 235  1049.458
 236  1014.302
 237  1049.941
 238  1045.848
 239  1038.939
 240  1135.1
 241  989.7969
 242  1033.804
 243  1082.465
 244  988.9009
 245  989.248
 246  931.9656
 247  979.8029
 248  994.7031
 249  1025.192
 250  982.6564
 251  856.1088
 252  903.5046
 253  966.4505
 254  909.8323
 255  878.011
 256  903.7115
 257  928.851
 258  892.3572
 259  1035.716
 260  958.4221
 261  938.9078
 262  984.9434
 263  958.6343
 264  924.4463
 265  961.7153
 266  1015.918
 267  1050.107
 268  1057.699
 269  1007.572
 270  1015.527
 271  943.4228
 272  1053.903
 273  1036.963
 274  1072.401
 275  1029.58
 276  1072.459
 277  1128.265
 278  1044.053
 279  1054.881
 280  1043.515
 281  1054.411
 282  1065.56
 283  1048.216
 284  1027.401
 285  1010.036
 286  995.9684
 287  988.0916
 288  990.702
 289  1023.191
 290  989.0764
 291  1046.376
 292  1005.881
 293  932.153
 294  962.0769
 295  989.3898
 296  966.1565
 297  972.1067
 298  1024.968
 299  916.2073
 300  888.3523
 301  944.5594
 302  889.7807
 303  937.3345
 304  987.2165
 305  906.1765
 306  965.8223
 307  1087.869
 308  1071.738
 309  1050.349
 310  1089.943
 311  1082.82
 312  1112.351
 313  1086.015
 314  1139.525
 315  1096.71
 316  1061.131
 317  1014.348
 318  1061.172
 319  1114.208
 320  1109.275
 321  1122.028
 322  1158.29
 323  1092.767
 324  1113.743
 325  987.9783
 326  1009.974
 327  1035.485
 328  949.4764
 329  919.1144
 330  947.8073
 331  1027.429
 332  991.7031
 333  1031.732
 334  1001.665
 335  950.774
 336  929.7796
 337  952.0298
 338  958.8996
 339  982.4673
 340  1003.965
 341  1002.717
 342  1059.931
 343  1012.384
 344  1013.027
 345  964.9158
 346  877.2891
 347  870.2119
 348  893.0027
 349  935.353
 350  951.3879
 351  963.7781
 352  969.2497
 353  984.9574
 354  933.5894
 355  968.4388
 356  1003.597
 357  963.2981
 358  940.9124
 359  992.5213
 360  1064.943
 361  1086.362
 362  1036.827
 363  1114.162
 364  1207.312
 365  1161.087
 366  1064.841
 367  1103.926
 368  1073.355
 369  1072.737
 370  1119.103
 371  1100.4
 372  1062.002
 373  1096.078
 374  1195.081
 375  1124.303
 376  1032.26
 377  988.8563
 378  975.857
 379  1084.292
 380  1108.064
 381  1073.016
 382  1098.829
 383  1097.466
 384  1095.207
 385  958.7476
 386  969.5762
 387  1082.342
 388  1091.108
 389  1092.751
 390  1116
 391  1070.583
 392  1173.341
 393  1182.697
 394  1123.291
 395  1141.356
 396  1081.865
 397  1127.806
 398  1109.795
 399  1085.396
 400  1179.797
 401  1151.968
 402  1126.586
 403  1146.01
 404  1118.149
 405  1123.327
 406  1108.144
 407  1116.963
 408  1181.13
 409  1149.472
 410  1125.643
 411  1138.305
 412  1115.229
 413  1197.436
 414  1185.844
 415  1169.567
 416  1135.748
 417  1073.465
 418  1121.268
 419  1174.338
 420  1072.455
 421  1097.243
 422  1073.236
 423  1072.085
 424  1040.983
 425  1047.608
 426  1081.545
 427  1006.276
 428  998.6736
 429  1055.977
 430  1122.579
 431  1123.084
 432  1088.089
 433  1153.718
 434  1104.623
 435  1093.955
 436  1016.623
 437  1073.455
 438  1104.275
 439  1090.486
 440  1127.766
 441  1208.881
 442  1173.82
 443  1155.042
 444  1132.134
 445  1196.917
 446  1164.238
 447  1061.588
 448  1138.492
 449  1182.396
 450  1203.638
 451  1203.842
 452  1212.196
 453  1161.071
 454  1189.732
 455  1245.558
 456  1216.752
 457  1205.911
 458  1206.934
 459  1220.695
 460  1226.686
 461  1223.217
 462  1147.423
 463  1200.696
 464  1163.824
 465  1087.313
 466  1034.973
 467  1101.272
 468  1068.278
 469  1106.469
 470  1029.208
 471  1035.815
 472  999.3475
 473  1013.631
 474  1090.735
 475  1032.105
 476  976.4916
 477  976.5025
 478  938.4441
 479  923.0128
 480  1030.612
 481  1029.884
 482  975.166
 483  918.7858
 484  974.0486
 485  1115.504
 486  1075.289
 487  1040.142
 488  1033.249
 489  1076.25
 490  1139.989
 491  1156.443
 492  1174.852
 493  1155.302
 494  1117.521
 495  1157.73
 496  1151.343
 497  1128.212
 498  1128.095
 499  1132.559
 500  1161.219
 501  1122.781
 502  1157.38
 503  1127.419
 504  1150.419
 505  1161.551
 506  1206.488
 507  1246.921
 508  1262.24
 509  1462.08
 510  1670.276
 511  1819.114
