# Input file       =  1210652082.10873_cleaned.dat
# Candidate        =  PSR_0332+5434
# Telescope        =  AR
# Epoch_topo       =  58256.177096165855
# Epoch_bary       =  N/A
# T_sample         =  0.002
# Data Folded      =  7143424
# Data Avg         =  0.152262091146432
# Data StdDev      =  5.64104604159083 
# Profile Bins     =  1024
# Profile Avg      =  1062.1509826733  
# Profile StdDev   =  471.153997640679 
# Reduced chi-sqr  =  0.816
# Prob(Noise)      <  1   (~0.0 sigma)
# P_topo (ms)      =  714.530470463297  +/- 2.98e-05
# P'_topo (s/s)    =  -0                +/- 1.62e-11
# P''_topo (s/s^2) =  0                 +/- 7.33e-15
# P_bary (ms)      =  N/A
# P'_bary (s/s)    =  N/A
# P''_bary (s/s^2) =  N/A
# P_orb (s)        =  N/A
# asin(i)/c (s)    =  N/A
# eccentricity     =  N/A
# w (rad)          =  N/A
# T_peri           =  N/A
######################################################
   0  794.332
   1  838.6836
   2  1164.707
   3  1256.54
   4  1227.179
   5  1289.49
   6  1370.188
   7  1335.796
   8  1178.436
   9  1336.291
  10  1404.25
  11  1295.039
  12  1085.192
  13  992.3359
  14  842.0896
  15  679.3873
  16  787.4186
  17  790.9107
  18  769.3164
  19  683.6176
  20  1027.662
  21  1030.717
  22  1102.959
  23  1170.319
  24  1444.197
  25  1372.928
  26  1463.63
  27  1399.092
  28  1251.585
  29  1018.75
  30  971.644
  31  1060.869
  32  847.6754
  33  759.9236
  34  889.992
  35  1013.575
  36  840.7339
  37  929.2551
  38  1180.022
  39  1192.766
  40  1067.497
  41  1249.07
  42  1312.733
  43  1325.163
  44  1153.123
  45  1261.366
  46  1128.134
  47  881.5616
  48  818.8337
  49  982.5129
  50  927.932
  51  808.1239
  52  805.0097
  53  1051.346
  54  1097.007
  55  1287.194
  56  1449.426
  57  1398.915
  58  1140.509
  59  1122.372
  60  1035.109
  61  908.344
  62  804.2753
  63  975.1127
  64  786.463
  65  618.4849
  66  746.9039
  67  966.2486
  68  944.414
  69  792.8127
  70  917.7177
  71  988.1479
  72  925.8558
  73  906.1432
  74  1134.418
  75  1258.579
  76  1260.668
  77  1156.972
  78  1122.159
  79  1036.115
  80  1038.272
  81  1274.321
  82  1234.51
  83  1093.315
  84  927.4761
  85  959.4228
  86  880.3816
  87  809.1132
  88  1147.01
  89  1350.78
  90  1371.297
  91  1465.368
  92  1576.231
  93  1540.945
  94  1293.745
  95  1253.127
  96  1101.378
  97  836.4495
  98  878.1613
  99  1031.199
 100  1039.681
 101  794.4085
 102  810.4315
 103  854.9327
 104  669.7847
 105  600.9006
 106  951.0513
 107  1242.75
 108  1445.859
 109  1516.017
 110  1532.279
 111  1405.74
 112  1165.833
 113  1380.099
 114  1294.529
 115  1099.828
 116  858.7441
 117  855.3508
 118  894.7163
 119  653.8032
 120  817.2692
 121  953.2872
 122  1004.996
 123  1055.702
 124  1356.09
 125  1360.001
 126  1386.061
 127  1350.645
 128  1584.917
 129  1203.3
 130  984.4305
 131  1023.374
 132  1098.511
 133  1001.973
 134  938.0699
 135  972.7416
 136  837.6099
 137  620.9705
 138  789.0206
 139  1034.6
 140  1188.306
 141  1111.787
 142  1040.753
 143  1050.855
 144  995.7986
 145  998.7584
 146  1041.328
 147  1001.56
 148  1022.227
 149  1093.453
 150  1241.65
 151  1187.678
 152  962.7629
 153  1032.596
 154  1149.003
 155  1326.2
 156  1277.083
 157  1414.721
 158  1264.061
 159  1157.401
 160  1095.38
 161  1039.806
 162  1019.893
 163  1040.053
 164  1268.956
 165  946.1606
 166  763.5748
 167  670.5551
 168  797.1368
 169  825.4213
 170  876.4661
 171  1198.255
 172  1240.298
 173  1412.616
 174  1503.655
 175  1517.805
 176  1332.325
 177  1137.159
 178  1189.424
 179  1033.568
 180  850.8594
 181  692.9801
 182  782.4288
 183  783.6673
 184  642.4391
 185  663.245
 186  979.3274
 187  1189.571
 188  1343.24
 189  1354.29
 190  1278.121
 191  1350.166
 192  1516.297
 193  1509.73
 194  1208.035
 195  924.9161
 196  910.5578
 197  923.4425
 198  681.9661
 199  764.7972
 200  772.2538
 201  851.8913
 202  797.858
 203  1048.472
 204  1200.023
 205  1221.142
 206  1316.873
 207  1412.508
 208  1275.666
 209  1133.426
 210  1100.952
 211  1162.092
 212  1030.828
 213  1020.603
 214  1092.882
 215  1170.514
 216  1053.87
 217  919.9845
 218  781.0341
 219  710.6224
 220  747.1764
 221  947.9731
 222  1314.237
 223  1329.946
 224  1321.829
 225  1351.538
 226  1354.309
 227  1253.571
 228  1154.064
 229  1224.986
 230  1005.406
 231  929.9722
 232  1128.545
 233  1103.045
 234  865.2604
 235  640.146
 236  896.0881
 237  1100.178
 238  1201.605
 239  1402.099
 240  1523.638
 241  1361.774
 242  1165.431
 243  1233.468
 244  1207.697
 245  1148.487
 246  1067.484
 247  1106.685
 248  872.3408
 249  542.9033
 250  592.5244
 251  747.5978
 252  834.3248
 253  941.7792
 254  1296.983
 255  1616.928
 256  1581.523
 257  1622.308
 258  1588.069
 259  1488.811
 260  1235.048
 261  1238.15
 262  1213.235
 263  952.6521
 264  787.7106
 265  757.6946
 266  743.9395
 267  611.3265
 268  878.3937
 269  1219.176
 270  1176.811
 271  1213.351
 272  1341.022
 273  1463.854
 274  1310.531
 275  1239.045
 276  1297.301
 277  1193.321
 278  967.2109
 279  1085.549
 280  1157.257
 281  987.7615
 282  799.1248
 283  750.1688
 284  865.6137
 285  735.7632
 286  871.1318
 287  1064.385
 288  1169.426
 289  1212.26
 290  1375.007
 291  1444.43
 292  1354.547
 293  1305.198
 294  1355.571
 295  1165.255
 296  987.348
 297  1064.087
 298  929.344
 299  715.8714
 300  640.0448
 301  862.4158
 302  876.4692
 303  870.5302
 304  1088.174
 305  1301.704
 306  1225.102
 307  1146.956
 308  1193.588
 309  1225.914
 310  1107.872
 311  1134.897
 312  1217.305
 313  1083.739
 314  960.8804
 315  918.7424
 316  992.3474
 317  939.3904
 318  960.8719
 319  1205.326
 320  1231.507
 321  1211.629
 322  1230.227
 323  1188.212
 324  971.0018
 325  960.3311
 326  1181.922
 327  1195.506
 328  994.7216
 329  1024.703
 330  1090.552
 331  960.1223
 332  794.7832
 333  973.0262
 334  1166.944
 335  992.9299
 336  890.3829
 337  1057.174
 338  1098.473
 339  1114.363
 340  1129.413
 341  1218.587
 342  1126.409
 343  1041.895
 344  1123.796
 345  1090.755
 346  901.487
 347  753.6115
 348  830.5999
 349  895.6454
 350  1053.822
 351  1110.624
 352  1216.848
 353  1135.445
 354  1139.26
 355  1363.031
 356  1416.58
 357  1234.1
 358  1092.803
 359  1016.727
 360  878.676
 361  791.4632
 362  868.5754
 363  850.0287
 364  677.3186
 365  859.4918
 366  1019.597
 367  1040.221
 368  965.5785
 369  1047.523
 370  1195.187
 371  1186.062
 372  1295.862
 373  1419.32
 374  1241.039
 375  913.791
 376  719.626
 377  962.1245
 378  1023.182
 379  915.8015
 380  966.2408
 381  1165.679
 382  1176.786
 383  1085.968
 384  1034.029
 385  1129.805
 386  1105.209
 387  1325.567
 388  1458.629
 389  1305.622
 390  1104.383
 391  1018.07
 392  1126.511
 393  1050.69
 394  1084.467
 395  1182.733
 396  1058.166
 397  961.6033
 398  902.4522
 399  1034.907
 400  782.9594
 401  774.4969
 402  974.9072
 403  1255.911
 404  1235.311
 405  1419.38
 406  1550.096
 407  1478.583
 408  1349.013
 409  1284.496
 410  1248.347
 411  1019.415
 412  1012.955
 413  978.8557
 414  887.6476
 415  633.959
 416  710.3817
 417  908.7531
 418  969.0468
 419  976.074
 420  1089.412
 421  1404.029
 422  1498.328
 423  1630.197
 424  1437.899
 425  1145.048
 426  969.7419
 427  1154.789
 428  1119.007
 429  826.7923
 430  844.9199
 431  924.3837
 432  871.5004
 433  617.5302
 434  840.3753
 435  1125.92
 436  1256.214
 437  1280.149
 438  1410.285
 439  1538.867
 440  1330.657
 441  1293.278
 442  1082.652
 443  984.1281
 444  816.9439
 445  996.4689
 446  915.0328
 447  787.1299
 448  668.0577
 449  777.2839
 450  884.3029
 451  906.73
 452  1034.209
 453  1250.721
 454  1328.053
 455  1309.289
 456  1357.218
 457  1276.226
 458  1037.461
 459  940.2126
 460  926.0991
 461  949.0837
 462  870.1874
 463  986.8793
 464  944.5204
 465  699.3903
 466  744.4362
 467  952.0016
 468  1018.464
 469  897.8991
 470  1026.08
 471  1063.628
 472  983.0186
 473  1058.474
 474  1311.905
 475  1259.029
 476  1015.269
 477  955.8828
 478  1102.671
 479  943.6857
 480  846.1273
 481  911.7352
 482  1082.734
 483  878.4644
 484  771.1495
 485  827.7019
 486  1029.588
 487  1125.825
 488  1208.232
 489  1217.85
 490  1116.571
 491  1080.633
 492  1085.354
 493  1022.972
 494  890.0463
 495  1021.586
 496  1141.394
 497  1051.049
 498  834.8848
 499  879.4941
 500  860.312
 501  880.0707
 502  842.3486
 503  974.756
 504  926.1316
 505  804.5043
 506  874.3743
 507  1005.506
 508  1026.084
 509  1033.485
 510  1150.839
 511  1221.904
 512  1041.023
 513  960.4534
 514  924.075
 515  898.4197
 516  807.4022
 517  1014.97
 518  1228.631
 519  1431.363
 520  1368.28
 521  1381.457
 522  1152.469
 523  1039.7
 524  1072.041
 525  957.2094
 526  783.2371
 527  664.7954
 528  824.0018
 529  887.1797
 530  826.6003
 531  865.9546
 532  1079.732
 533  1007.766
 534  1131.476
 535  1303.665
 536  1375.241
 537  1304.437
 538  1096.555
 539  1089.882
 540  829.9663
 541  806.7454
 542  739.1113
 543  841.9901
 544  759.2361
 545  792.752
 546  780.7997
 547  819.4559
 548  804.7013
 549  896.2072
 550  1072.582
 551  1202.364
 552  1365.725
 553  1445.67
 554  1386.505
 555  1215.61
 556  1338.054
 557  1369.265
 558  1266.453
 559  906.1871
 560  872.9177
 561  942.7532
 562  817.9772
 563  755.7868
 564  706.1927
 565  759.52
 566  802.275
 567  979.6822
 568  1132.297
 569  1193.288
 570  1142.698
 571  1255.781
 572  1184.269
 573  1080.894
 574  984.0386
 575  1123.689
 576  1138.849
 577  962.8813
 578  749.0591
 579  718.5535
 580  734.8322
 581  666.834
 582  688.5288
 583  773.7761
 584  1026.909
 585  1264.25
 586  1642.084
 587  1716.468
 588  1636.67
 589  1659.205
 590  1536.484
 591  1407.952
 592  1291.875
 593  1504.023
 594  1461.048
 595  1400.582
 596  1547.826
 597  1695.226
 598  1614.411
 599  1670.262
 600  1915.42
 601  2135.401
 602  2035.255
 603  2080.954
 604  2069.343
 605  1863.372
 606  1511.185
 607  1499.137
 608  1426.225
 609  1268.322
 610  1005.327
 611  1055.522
 612  868.1879
 613  704.0967
 614  609.8132
 615  969.3358
 616  1087.032
 617  1307.576
 618  1444.666
 619  1627.02
 620  1542.047
 621  1500.249
 622  1474.192
 623  1220.855
 624  921.1121
 625  866.4496
 626  919.4857
 627  879.2468
 628  898.5236
 629  956.512
 630  912.6193
 631  768.2302
 632  958.9119
 633  1222.684
 634  1140.946
 635  1129.498
 636  1236.919
 637  1213.661
 638  1039.514
 639  894.3108
 640  1017.583
 641  921.1987
 642  795.8359
 643  916.7803
 644  1077.773
 645  1182.945
 646  1175.96
 647  1242.116
 648  1068.711
 649  891.6302
 650  830.2939
 651  1228.087
 652  1265.939
 653  1198.617
 654  1205.158
 655  1138.733
 656  1032.532
 657  991.2119
 658  1166.306
 659  972.9397
 660  775.9048
 661  824.3989
 662  897.3235
 663  746.2954
 664  791.9749
 665  1016.299
 666  1061.682
 667  1024.436
 668  1108.573
 669  1274.686
 670  1120.209
 671  1162.372
 672  1125.806
 673  969.183
 674  821.8571
 675  821.0218
 676  912.9451
 677  814.939
 678  733.8785
 679  946.7162
 680  1240.03
 681  1289.995
 682  1365.668
 683  1245.86
 684  1239.837
 685  1135.702
 686  1310.468
 687  1374.498
 688  1116.3
 689  997.3519
 690  987.6612
 691  885.4143
 692  715.4174
 693  685.2792
 694  906.5096
 695  754.0264
 696  690.6986
 697  735.0071
 698  828.3174
 699  782.4573
 700  930.0564
 701  1202.83
 702  1140.202
 703  1046.383
 704  1109.09
 705  1147.758
 706  905.411
 707  828.2763
 708  875.4243
 709  930.3806
 710  765.2184
 711  674.9155
 712  639.9874
 713  585.6822
 714  552.9523
 715  760.5026
 716  1139.158
 717  1256.797
 718  1165.369
 719  1200.192
 720  1148.504
 721  1133.641
 722  1042.818
 723  1057.588
 724  919.5964
 725  854.7307
 726  981.1151
 727  935.9022
 728  675.0037
 729  727.6741
 730  901.7278
 731  1006.121
 732  890.7933
 733  898.0169
 734  1112.048
 735  1055.524
 736  1102.057
 737  1195.842
 738  1258.66
 739  972.8417
 740  935.178
 741  1065.024
 742  1037.842
 743  779.1183
 744  795.8999
 745  945.4598
 746  911.3044
 747  886.3351
 748  1091.577
 749  1165.999
 750  1001.877
 751  1058.203
 752  1167.957
 753  1160.063
 754  1130.035
 755  1191.448
 756  1011.725
 757  687.2558
 758  756.237
 759  994.2954
 760  889.4749
 761  635.8525
 762  741.8359
 763  791.4161
 764  594.8225
 765  562.5031
 766  916.2261
 767  1178.343
 768  1158.093
 769  1332.791
 770  1422.27
 771  1277.669
 772  1059.218
 773  1069.049
 774  1100.888
 775  840.0702
 776  843.1558
 777  896.3105
 778  981.8338
 779  658.9295
 780  755.1468
 781  982.8242
 782  1066.983
 783  943.1924
 784  1098.655
 785  1294.993
 786  1309.533
 787  1196.78
 788  1184.799
 789  1064.015
 790  868.6017
 791  1067.695
 792  960.1279
 793  914.4472
 794  790.3828
 795  959.7601
 796  947.54
 797  718.5378
 798  851.6061
 799  1037.599
 800  1152.764
 801  1126.276
 802  1082.311
 803  1034.406
 804  802.0433
 805  824.7419
 806  1031.428
 807  1027.877
 808  904.4288
 809  967.7467
 810  1033.003
 811  1058.106
 812  1011.889
 813  1121.722
 814  1229.782
 815  1172.368
 816  1057.168
 817  1032.47
 818  991.9773
 819  1059.494
 820  1127.888
 821  936.5475
 822  769.5202
 823  608.9292
 824  703.8512
 825  620.5698
 826  713.9999
 827  906.1331
 828  975.2164
 829  771.7672
 830  699.7901
 831  1068.077
 832  1162.22
 833  1134.205
 834  1062.163
 835  1109.826
 836  938.3052
 837  804.2267
 838  912.2657
 839  932.0877
 840  910.5195
 841  949.4739
 842  1071.477
 843  860.5504
 844  650.5979
 845  675.0807
 846  913.1385
 847  793.5625
 848  750.5457
 849  837.4072
 850  1078.311
 851  1206.966
 852  1437.629
 853  1567.389
 854  1367.001
 855  1130.274
 856  972.9006
 857  882.8774
 858  596.1108
 859  718.1281
 860  778.8505
 861  734.2133
 862  576.8978
 863  679.8606
 864  869.0755
 865  921.7674
 866  897.6235
 867  948.77
 868  1111.413
 869  1115.378
 870  1189.757
 871  1183.57
 872  1153.834
 873  1135.602
 874  1126.982
 875  1026.079
 876  829.4562
 877  769.6084
 878  916.5566
 879  920.5941
 880  875.4915
 881  889.7368
 882  1074.631
 883  1027.829
 884  1000.392
 885  1190.194
 886  1243.375
 887  1155.484
 888  1080.504
 889  1042.062
 890  863.7666
 891  744.0507
 892  1011.269
 893  1098.347
 894  979.245
 895  879.4514
 896  1027.321
 897  948.4116
 898  1047.629
 899  1222.366
 900  1476.684
 901  1315.928
 902  1342.068
 903  1318.469
 904  1162.761
 905  815.6843
 906  563.3023
 907  715.4611
 908  746.2369
 909  714.7181
 910  756.0477
 911  969.7454
 912  882.4526
 913  940.4647
 914  1045.952
 915  1252.671
 916  1261.652
 917  1443.059
 918  1452.232
 919  1239.784
 920  1107.746
 921  945.0883
 922  852.9377
 923  610.7182
 924  727.5604
 925  797.0238
 926  665.2442
 927  595.2222
 928  875.6715
 929  1154.01
 930  1059.525
 931  1107.592
 932  1325.635
 933  1432.893
 934  1285.595
 935  1322.586
 936  1463.581
 937  1257.585
 938  1101.727
 939  1184.914
 940  1232.952
 941  1013.127
 942  803.5416
 943  652.1874
 944  684.845
 945  640.2225
 946  887.5561
 947  1118.043
 948  1206.491
 949  1257.094
 950  1298.427
 951  1300.287
 952  1318.141
 953  1405.83
 954  1347.365
 955  1078.426
 956  1075.744
 957  1477.069
 958  1430.586
 959  1158.067
 960  941.0134
 961  918.694
 962  831.0738
 963  739.965
 964  1011.957
 965  1111.633
 966  1080.294
 967  1064.536
 968  1175.825
 969  1245.639
 970  1077.68
 971  1063.62
 972  1116.375
 973  1094.347
 974  1115.878
 975  1102.184
 976  1163.823
 977  1000.972
 978  950.4317
 979  1063.983
 980  1090.121
 981  1153.307
 982  1334.725
 983  1404.186
 984  1340.885
 985  1172.865
 986  1259.839
 987  1210.966
 988  1175.708
 989  1318.295
 990  1422.658
 991  1207.476
 992  992.3409
 993  947.8018
 994  976.8144
 995  776.0909
 996  1055.108
 997  1348.696
 998  1288.24
 999  1143.343
1000  1118.297
1001  1121.2
1002  1037.352
1003  972.8078
1004  1215.353
1005  1243.26
1006  1188.014
1007  1119.073
1008  1135.108
1009  1073.82
1010  971.5143
1011  1131.429
1012  1205.129
1013  1255.884
1014  1314.248
1015  1566.461
1016  1551.613
1017  1258.337
1018  1240.022
1019  1317.391
1020  1259.499
1021  1051.86
1022  1112.177
1023  934.7139
