# Input file       =  1210078414.113711_cleaned.dat
# Candidate        =  PSR_0332+5434
# Telescope        =  AR
# Epoch_topo       =  58249.537420297580
# Epoch_bary       =  N/A
# T_sample         =  0.002
# Data Folded      =  7340032
# Data Avg         =  0.138484666336029
# Data StdDev      =  3.64140987963442 
# Profile Bins     =  1024
# Profile Avg      =  992.53390668918  
# Profile StdDev   =  308.296478821322 
# Reduced chi-sqr  =  1.184
# Prob(Noise)      <  3.97e-05   (~3.9 sigma)
# P_topo (ms)      =  714.537273833332  +/- 0.000374
# P'_topo (s/s)    =  -0                +/- 1.97e-10
# P''_topo (s/s^2) =  0                 +/- 8.71e-14
# P_bary (ms)      =  N/A
# P'_bary (s/s)    =  N/A
# P''_bary (s/s^2) =  N/A
# P_orb (s)        =  N/A
# asin(i)/c (s)    =  N/A
# eccentricity     =  N/A
# w (rad)          =  N/A
# T_peri           =  N/A
######################################################
   0  884.5882
   1  834.2686
   2  855.7892
   3  933.9913
   4  969.9433
   5  981.7369
   6  953.7151
   7  916.3165
   8  827.035
   9  708.4767
  10  728.8214
  11  771.7814
  12  810.0926
  13  872.6584
  14  945.1725
  15  954.648
  16  869.7172
  17  949.6865
  18  1008.923
  19  1178.099
  20  1217.602
  21  1221.205
  22  1096.68
  23  973.2681
  24  874.5067
  25  825.1235
  26  846.7503
  27  820.8012
  28  819.4636
  29  884.3777
  30  936.7298
  31  914.3276
  32  890.5187
  33  873.2562
  34  1038.357
  35  1045.551
  36  1084.594
  37  1058.854
  38  1064.009
  39  985.7073
  40  887.3652
  41  846.9587
  42  911.3898
  43  997.8821
  44  1047.045
  45  1045.197
  46  1039.267
  47  1069.513
  48  1019.301
  49  938.1227
  50  953.6151
  51  895.2748
  52  1027.868
  53  1014.546
  54  1009.394
  55  890.2687
  56  910.9086
  57  970.2101
  58  1010.958
  59  951.6274
  60  855.7375
  61  840.593
  62  874.5757
  63  1006.336
  64  1081.495
  65  1087.444
  66  1099.388
  67  1209.266
  68  1294.053
  69  1278.151
  70  1154.811
  71  1079.682
  72  1111.083
  73  1154.312
  74  1166.026
  75  1133.888
  76  990.319
  77  1003.669
  78  1162.621
  79  1336.565
  80  1264.727
  81  1209.291
  82  1242.303
  83  1249.32
  84  1172.947
  85  1184.789
  86  1214.782
  87  1160.302
  88  1110.914
  89  1218.143
  90  1247.783
  91  1219.977
  92  1129.404
  93  1144.085
  94  1120.376
  95  1025.843
  96  1107.751
  97  1157.071
  98  1188.171
  99  1188.955
 100  1193.944
 101  1175.459
 102  1135.215
 103  1147.098
 104  1174.51
 105  1079.107
 106  1005.7
 107  1022.391
 108  1005.621
 109  1010.541
 110  987.6174
 111  1024.639
 112  1012.083
 113  955.1052
 114  973.2831
 115  1022.401
 116  1096.678
 117  1105.685
 118  982.9232
 119  903.8776
 120  869.4763
 121  931.632
 122  944.312
 123  945.6201
 124  934.0916
 125  911.2064
 126  795.9844
 127  749.46
 128  744.425
 129  784.3873
 130  868.4531
 131  944.1352
 132  874.0322
 133  803.6819
 134  774.9095
 135  795.3846
 136  798.0504
 137  842.5733
 138  918.7623
 139  990.9619
 140  1004.691
 141  1038.892
 142  1014.668
 143  979.9774
 144  897.4995
 145  925.5383
 146  918.8457
 147  981.0947
 148  1041.711
 149  1111.541
 150  1161.909
 151  1112.93
 152  1053.662
 153  1082.001
 154  1103.477
 155  1155.826
 156  1118.08
 157  1238.155
 158  1275.288
 159  1225.084
 160  1060.87
 161  999.4341
 162  1040.254
 163  1089.617
 164  1059.202
 165  932.0167
 166  850.6585
 167  843.1334
 168  1062.178
 169  1145.85
 170  1246.766
 171  1170.416
 172  1055.48
 173  925.4573
 174  985.5608
 175  1116.285
 176  1188.917
 177  1126.508
 178  1086.791
 179  1075.331
 180  1119.446
 181  1054.756
 182  1106.02
 183  988.2618
 184  1086.356
 185  1076.872
 186  1130.471
 187  1005.657
 188  876.5612
 189  809.1444
 190  755.8601
 191  874.1724
 192  1048.241
 193  1209.372
 194  1262.72
 195  1153.049
 196  1096.396
 197  1006.909
 198  1146.428
 199  1187.052
 200  1130.731
 201  1030.455
 202  1147.796
 203  1218.137
 204  1187.807
 205  1010.733
 206  969.4782
 207  1024.317
 208  1103.481
 209  1032.974
 210  973.8109
 211  938.8976
 212  1091.305
 213  1164.038
 214  1226.094
 215  1161.688
 216  1165.874
 217  1258.918
 218  1405.758
 219  1334.607
 220  1093.009
 221  1026.895
 222  986.483
 223  902.8634
 224  696.8568
 225  592.4742
 226  676.7394
 227  808.0686
 228  852.8775
 229  801.0521
 230  790.358
 231  884.8022
 232  991.3376
 233  1091.192
 234  1021.182
 235  1008.731
 236  997.7712
 237  929.5746
 238  923.8248
 239  913.5058
 240  1008.307
 241  960.7664
 242  894.9167
 243  744.3108
 244  798.086
 245  877.9604
 246  984.6163
 247  936.697
 248  795.5173
 249  780.5278
 250  788.39
 251  893.7369
 252  760.5922
 253  698.5557
 254  700.5043
 255  704.1176
 256  723.8182
 257  686.0242
 258  674.4728
 259  622.3553
 260  688.6376
 261  736.3165
 262  733.0282
 263  698.5688
 264  776.139
 265  743.9873
 266  795.7684
 267  778.5684
 268  781.5202
 269  762.7802
 270  849.3257
 271  926.1876
 272  930.1028
 273  884.4683
 274  1059.763
 275  1195.424
 276  1146.707
 277  931.8799
 278  846.5204
 279  858.5966
 280  887.2406
 281  1042.474
 282  1122.958
 283  1095.682
 284  992.2975
 285  957.6395
 286  982.2837
 287  877.2864
 288  867.4339
 289  829.9111
 290  988.6921
 291  995.827
 292  1040.098
 293  1041.574
 294  1066.964
 295  1049.212
 296  1122.952
 297  1043.99
 298  1060.702
 299  992.6535
 300  1056.845
 301  1046.745
 302  1001.235
 303  1040.206
 304  1049.961
 305  1113.67
 306  1135.405
 307  1143.776
 308  1105.916
 309  1005.562
 310  979.9351
 311  938.2445
 312  891.3787
 313  798.3319
 314  766.3043
 315  880.0748
 316  1113.52
 317  1194.447
 318  1097.955
 319  956.0312
 320  955.6922
 321  1060.159
 322  1034.079
 323  987.0152
 324  851.9938
 325  902.8765
 326  1018.657
 327  1023.176
 328  977.5468
 329  959.2326
 330  1043.004
 331  1069.75
 332  1186.292
 333  1236.82
 334  1151.234
 335  1033.12
 336  985.2902
 337  966.6205
 338  906.9267
 339  915.0054
 340  931.4975
 341  967.2334
 342  1023.055
 343  1101.321
 344  1035.664
 345  883.964
 346  886.6367
 347  940.6907
 348  917.3929
 349  857.7623
 350  818.4528
 351  838.5139
 352  813.9265
 353  852.8195
 354  868.3282
 355  878.2299
 356  895.5002
 357  945.6926
 358  971.3679
 359  925.4967
 360  974.7758
 361  958.8085
 362  908.8353
 363  822.9232
 364  939.1402
 365  1122.911
 366  1158.917
 367  1093.437
 368  983.5187
 369  1036.023
 370  1137.94
 371  1179.759
 372  1111.919
 373  1078.005
 374  980.1084
 375  938.5387
 376  875.2462
 377  834.8289
 378  790.6311
 379  848.2114
 380  938.0323
 381  955.8904
 382  854.2125
 383  612.0709
 384  646.3849
 385  792.4116
 386  906.0839
 387  814.3638
 388  772.9575
 389  924.2888
 390  934.3386
 391  990.5073
 392  940.9091
 393  943.4694
 394  849.2461
 395  926.7549
 396  944.5417
 397  989.2675
 398  906.2141
 399  947.603
 400  908.0213
 401  858.1534
 402  802.6392
 403  855.0886
 404  956.7065
 405  963.5669
 406  943.3546
 407  903.0967
 408  867.1022
 409  858.228
 410  963.4206
 411  1058.36
 412  975.6002
 413  968.7189
 414  1093.423
 415  1189.052
 416  1091.071
 417  1006.661
 418  1020.694
 419  1027.479
 420  1017.387
 421  1001.052
 422  1017.906
 423  1051.646
 424  920.0397
 425  943.4863
 426  876.143
 427  992.2251
 428  848.7028
 429  1016.106
 430  1019.517
 431  1126.013
 432  1038.267
 433  1031.936
 434  1063.816
 435  993.769
 436  992.51
 437  945.97
 438  1114.099
 439  1158.815
 440  1101.051
 441  979.2285
 442  912.7885
 443  928.0299
 444  1036.036
 445  1036.62
 446  1007.263
 447  980.212
 448  927.844
 449  925.0305
 450  839.5071
 451  784.5615
 452  808.709
 453  868.89
 454  1035.173
 455  1028.527
 456  1080.173
 457  1087.698
 458  1057.438
 459  1051.111
 460  985.4655
 461  1012.314
 462  922.3453
 463  956.1489
 464  1145.34
 465  1212.927
 466  1067.618
 467  935.2248
 468  932.6068
 469  1070.944
 470  957.0627
 471  954.8625
 472  907.0313
 473  924.4843
 474  977.0917
 475  927.0992
 476  932.4026
 477  851.8013
 478  854.6049
 479  832.9163
 480  829.0383
 481  887.6448
 482  983.3846
 483  969.7176
 484  980.347
 485  855.2852
 486  806.6807
 487  772.2068
 488  801.6051
 489  918.9404
 490  922.3372
 491  899.6262
 492  802.4034
 493  794.8522
 494  887.0839
 495  1027.438
 496  1139.112
 497  1247.703
 498  1141.873
 499  1081.962
 500  1004.639
 501  1068.716
 502  1003.459
 503  947.2654
 504  909.5069
 505  896.1411
 506  832.5122
 507  798.9229
 508  767.5726
 509  839.2264
 510  950.7006
 511  909.0579
 512  913.7366
 513  984.7959
 514  1125.514
 515  1084.821
 516  1032.956
 517  893.1682
 518  849.4276
 519  744.2451
 520  823.4238
 521  822.4066
 522  904.6082
 523  923.7803
 524  968.1909
 525  918.0364
 526  869.0416
 527  839.3783
 528  839.0147
 529  805.3371
 530  836.7598
 531  826.9249
 532  920.2478
 533  846.9871
 534  866.2397
 535  892.2501
 536  1040.168
 537  1030.184
 538  985.8774
 539  936.7612
 540  923.3289
 541  780.3568
 542  781.7676
 543  806.2157
 544  896.1499
 545  905.2138
 546  806.6573
 547  774.5259
 548  837.4266
 549  835.5556
 550  782.7584
 551  720.507
 552  882.4011
 553  866.2235
 554  850.3475
 555  844.9018
 556  1055.498
 557  1264.342
 558  1351.573
 559  1291.665
 560  1147.861
 561  1050.585
 562  957.6078
 563  1041.107
 564  1143.333
 565  1259.54
 566  1138.393
 567  991.8411
 568  916.1245
 569  868.2392
 570  875.6934
 571  948.4606
 572  1033.876
 573  1032.943
 574  1024.016
 575  984.0477
 576  941.1072
 577  909.1856
 578  1020.17
 579  951.7259
 580  870.109
 581  850.5734
 582  977.0399
 583  971.1952
 584  931.0657
 585  966.9733
 586  1096.29
 587  1128.469
 588  1124.166
 589  1089.747
 590  1163.786
 591  1169.608
 592  1354.729
 593  1626.583
 594  1746.97
 595  1783.355
 596  1857.001
 597  2003.979
 598  2033.358
 599  2134.468
 600  2256.375
 601  2293.992
 602  2185.235
 603  1979.704
 604  1733.424
 605  1546.094
 606  1422.988
 607  1470.725
 608  1391.119
 609  1225.21
 610  996.5342
 611  911.1588
 612  937.3115
 613  1041.245
 614  1095.575
 615  1198.015
 616  1204.596
 617  1273.839
 618  1245.072
 619  1245.157
 620  1233.037
 621  1122.611
 622  1132.085
 623  1049.107
 624  1052.29
 625  1136.732
 626  1248.497
 627  1279.061
 628  1206.134
 629  1131.435
 630  1135.699
 631  1234.361
 632  1315.547
 633  1289.566
 634  1233.714
 635  1139.72
 636  1174.41
 637  1271.495
 638  1293.56
 639  1286.847
 640  1214.177
 641  1193.808
 642  1146.978
 643  1116.456
 644  1117.885
 645  1138.591
 646  1181.98
 647  1234.18
 648  1216.34
 649  1234.472
 650  1181.287
 651  1127.328
 652  932.4247
 653  824.5106
 654  915.5648
 655  1028.64
 656  1092.826
 657  1080.817
 658  1249.408
 659  1313.498
 660  1247.398
 661  1215.846
 662  1243.993
 663  1135.375
 664  1095.982
 665  1058.402
 666  1136.956
 667  1080.728
 668  1098.444
 669  1111.449
 670  1120.434
 671  1204.24
 672  1332.531
 673  1298.293
 674  1178.452
 675  1136.574
 676  1220.433
 677  1241.859
 678  1139.149
 679  1112.958
 680  1092.297
 681  1177.715
 682  1128.511
 683  1113.747
 684  1178.289
 685  1175.056
 686  1295.434
 687  1269.122
 688  1188.337
 689  1119.764
 690  1205.551
 691  1317.619
 692  1289.71
 693  1139.294
 694  1089.633
 695  1038.208
 696  1216.906
 697  1246.666
 698  1284.209
 699  1166.545
 700  1086.193
 701  1122.296
 702  1237.793
 703  1343.907
 704  1241.03
 705  1119.398
 706  964.7811
 707  1012.286
 708  944.6905
 709  961.2379
 710  972.5476
 711  1040.463
 712  1031.652
 713  973.7282
 714  982.5948
 715  994.4625
 716  917.8835
 717  912.3732
 718  880.5945
 719  948.1193
 720  938.8552
 721  955.0914
 722  999.9673
 723  1059.07
 724  970.9545
 725  962.649
 726  924.9537
 727  1010.152
 728  952.7684
 729  1021.531
 730  1015.383
 731  901.0702
 732  881.9855
 733  829.1614
 734  804.9441
 735  655.0431
 736  695.519
 737  733.0427
 738  744.9146
 739  837.5829
 740  936.6121
 741  1015.518
 742  1006.835
 743  941.8731
 744  895.7374
 745  937.7311
 746  892.943
 747  877.4168
 748  833.8072
 749  1013.61
 750  943.6985
 751  988.3869
 752  929.0192
 753  968.5278
 754  886.4523
 755  939.9615
 756  1042.259
 757  1023.369
 758  863.6214
 759  864.4424
 760  791.8735
 761  777.8509
 762  777.6849
 763  1000.956
 764  1059.318
 765  970.4816
 766  846.62
 767  772.2109
 768  760.2538
 769  761.9636
 770  813.449
 771  768.9167
 772  792.1641
 773  826.9523
 774  776.8746
 775  720.5038
 776  620.6617
 777  626.9048
 778  627.3475
 779  737.9127
 780  833.7509
 781  783.866
 782  829.175
 783  753.2068
 784  759.5642
 785  693.3822
 786  802.4689
 787  772.4015
 788  769.8837
 789  881.5616
 790  933.882
 791  796.5966
 792  639.5059
 793  614.0891
 794  737.7958
 795  857.2762
 796  861.0715
 797  964.6721
 798  1101.292
 799  1124.119
 800  924.746
 801  734.5949
 802  708.8649
 803  729.3714
 804  759.2386
 805  762.5701
 806  830.7043
 807  838.7465
 808  949.0217
 809  980.4756
 810  959.6507
 811  792.1553
 812  789.7369
 813  814.9678
 814  773.6817
 815  742.6473
 816  758.6917
 817  885.0793
 818  838.6183
 819  859.3375
 820  779.5877
 821  708.0643
 822  669.0556
 823  755.9299
 824  785.061
 825  808.665
 826  801.4585
 827  877.3098
 828  908.1358
 829  938.468
 830  900.63
 831  796.2425
 832  777.7176
 833  831.6047
 834  874.489
 835  948.3381
 836  1069.069
 837  1135.726
 838  1128.398
 839  1083.825
 840  1096.712
 841  1108.875
 842  1148.078
 843  1121.734
 844  1018.557
 845  876.434
 846  759.1339
 847  756.5096
 848  895.8439
 849  974.8604
 850  1052.344
 851  969.8258
 852  1009.107
 853  932.2575
 854  1002.141
 855  1017.769
 856  958.693
 857  870.9019
 858  804.3946
 859  914.6932
 860  954.7659
 861  975.1959
 862  1006.82
 863  950.2004
 864  940.4348
 865  958.0773
 866  1059.431
 867  1071.726
 868  1043.764
 869  1165.315
 870  1186.053
 871  1161.931
 872  1179.752
 873  1225.563
 874  1159.995
 875  1115.527
 876  1060.755
 877  1123.756
 878  1122.069
 879  1034.072
 880  1007.53
 881  889.7903
 882  900.2045
 883  779.9888
 884  785.0391
 885  846.8713
 886  936.9866
 887  897.8421
 888  933.9346
 889  987.5107
 890  1088.834
 891  991.9218
 892  953.3793
 893  1001.84
 894  1048.662
 895  1040.447
 896  927.9467
 897  906.1071
 898  956.8674
 899  917.3277
 900  972.254
 901  975.7631
 902  906.642
 903  952.8969
 904  988.9889
 905  1125.438
 906  1125.011
 907  1178.192
 908  1206.465
 909  1215.755
 910  1249.248
 911  1251.235
 912  1255.918
 913  1204.281
 914  1134.273
 915  1097.866
 916  1106.558
 917  1140.78
 918  1199.855
 919  1195.146
 920  1166.101
 921  1203.628
 922  1233.059
 923  1067.981
 924  890.2949
 925  969.7222
 926  1059.182
 927  1041.822
 928  903.2634
 929  946.6792
 930  957.6026
 931  973.6092
 932  916.5378
 933  1059.398
 934  1028.769
 935  970.9876
 936  863.6635
 937  921.4812
 938  961.553
 939  915.2757
 940  814.8937
 941  697.6097
 942  686.9101
 943  901.7548
 944  1099.421
 945  1191.239
 946  1071.308
 947  1080.802
 948  1174.853
 949  1194.332
 950  1169.074
 951  964.5218
 952  984.5682
 953  1006.736
 954  1061.427
 955  1084.587
 956  965.2422
 957  909.5547
 958  882.627
 959  964.3781
 960  1054.064
 961  1027.589
 962  1057.856
 963  1016.369
 964  943.6747
 965  953.4466
 966  916.7874
 967  908.5369
 968  925.8942
 969  988.793
 970  984.2318
 971  919.8381
 972  994.2803
 973  935.0908
 974  876.268
 975  800.8009
 976  835.8489
 977  891.8203
 978  920.8565
 979  988.5069
 980  1056.331
 981  1029.524
 982  971.2339
 983  855.9111
 984  828.5269
 985  729.4725
 986  639.8559
 987  778.9991
 988  995.2774
 989  1015.532
 990  995.8066
 991  866.8375
 992  855.0256
 993  788.6368
 994  866.9587
 995  878.3841
 996  886.1273
 997  882.8894
 998  928.3237
 999  880.2711
1000  852.9202
1001  800.0255
1002  800.7311
1003  628.2545
1004  587.0272
1005  557.4315
1006  704.1825
1007  742.819
1008  707.3027
1009  741.0366
1010  817.7319
1011  921.7172
1012  822.2428
1013  820.7819
1014  739.963
1015  836.2358
1016  753.7759
1017  787.8835
1018  669.7253
1019  756.7116
1020  848.3173
1021  867.2064
1022  895.9479
1023  921.8815
