# Input file       =  1210322039.121345_cleaned.dat
# Candidate        =  PSR_0332+5434
# Telescope        =  AR
# Epoch_topo       =  58252.357154182231
# Epoch_bary       =  N/A
# T_sample         =  0.002
# Data Folded      =  7340032
# Data Avg         =  0.107893688790292
# Data StdDev      =  4.7131964183068  
# Profile Bins     =  1024
# Profile Avg      =  773.342818422467 
# Profile StdDev   =  399.038259297285 
# Reduced chi-sqr  =  1.436
# Prob(Noise)      <  1.33e-18   (~8.7 sigma)
# P_topo (ms)      =  714.534217626712  +/- 0.000811
# P'_topo (s/s)    =  -0                +/- 4.28e-10
# P''_topo (s/s^2) =  0                 +/- 1.89e-13
# P_bary (ms)      =  N/A
# P'_bary (s/s)    =  N/A
# P''_bary (s/s^2) =  N/A
# P_orb (s)        =  N/A
# asin(i)/c (s)    =  N/A
# eccentricity     =  N/A
# w (rad)          =  N/A
# T_peri           =  N/A
######################################################
   0  861.5656
   1  847.696
   2  718.6145
   3  590.3989
   4  630.7816
   5  845.9006
   6  897.4649
   7  738.0407
   8  711.8175
   9  864.02
  10  898.0739
  11  800.944
  12  678.9307
  13  727.3773
  14  668.8882
  15  609.0684
  16  560.1622
  17  556.6054
  18  504.4756
  19  533.3503
  20  611.5508
  21  599.8421
  22  575.6221
  23  539.7374
  24  538.4156
  25  531.6866
  26  519.2478
  27  565.903
  28  573.0107
  29  542.8325
  30  560.5739
  31  566.7819
  32  689.473
  33  805.6196
  34  829.8879
  35  816.6436
  36  735.3663
  37  644.0065
  38  548.8021
  39  520.3395
  40  592.2915
  41  647.829
  42  680.527
  43  615.725
  44  646.7299
  45  679.0845
  46  676.2349
  47  519.8734
  48  516.5067
  49  607.4542
  50  715.4466
  51  744.9741
  52  832.662
  53  719.2489
  54  642.7013
  55  563.6085
  56  650.9322
  57  766.2656
  58  815.8187
  59  985.8474
  60  986.3257
  61  1026.95
  62  1018.342
  63  1011.962
  64  920.2787
  65  697.6108
  66  745.8773
  67  704.1981
  68  755.0079
  69  702.3596
  70  698.934
  71  610.3198
  72  553.2595
  73  517.6041
  74  665.9197
  75  771.2795
  76  839.0295
  77  738.1484
  78  628.5706
  79  568.3033
  80  486.1371
  81  451.2171
  82  498.7421
  83  574.201
  84  656.5204
  85  619.1867
  86  626.9095
  87  574.1036
  88  665.364
  89  631.6489
  90  586.8281
  91  553.2883
  92  560.0251
  93  620.4406
  94  667.6127
  95  715.1667
  96  740.222
  97  764.9368
  98  817.6772
  99  858.8258
 100  863.4164
 101  876.3959
 102  802.1215
 103  782.3072
 104  657.3842
 105  650.3243
 106  598.2905
 107  635.6656
 108  637.8416
 109  673.618
 110  721.9589
 111  698.36
 112  649.1337
 113  730.0657
 114  816.6136
 115  915.6699
 116  874.1047
 117  752.7718
 118  713.3829
 119  624.2551
 120  680.6841
 121  672.843
 122  809.5591
 123  782.7015
 124  624.1036
 125  670.7937
 126  771.0422
 127  941.6602
 128  912.0473
 129  887.6597
 130  856.786
 131  843.6738
 132  832.1328
 133  798.4642
 134  781.1388
 135  710.5092
 136  807.6137
 137  806.1536
 138  792.3962
 139  815.7723
 140  862.7307
 141  1004.82
 142  1035.038
 143  1009.955
 144  1046.727
 145  938.933
 146  1057.061
 147  973.078
 148  986.9348
 149  830.8837
 150  831.3516
 151  721.7365
 152  705.3823
 153  754.3486
 154  779.6924
 155  738.677
 156  780.0997
 157  785.4603
 158  890.8867
 159  899.8352
 160  914.6066
 161  897.8168
 162  890.1236
 163  856.433
 164  829.0414
 165  785.1125
 166  660.92
 167  456.2727
 168  425.1646
 169  515.0602
 170  535.5023
 171  560.6882
 172  589.3091
 173  734.2966
 174  716.8629
 175  733.433
 176  782.8354
 177  827.7432
 178  805.9421
 179  695.8796
 180  625.6011
 181  482.3764
 182  319.0027
 183  365.5313
 184  397.7628
 185  393.7449
 186  360.0836
 187  386.4986
 188  493.5737
 189  536.3621
 190  563.5004
 191  569.4863
 192  594.7954
 193  677.278
 194  843.685
 195  750.6962
 196  648.1305
 197  598.5752
 198  637.6956
 199  580.3692
 200  427.2823
 201  562.9818
 202  654.9052
 203  640.0392
 204  543.6136
 205  509.7866
 206  565.9709
 207  688.0312
 208  676.0191
 209  626.4943
 210  568.4798
 211  619.1548
 212  574.1837
 213  594.2556
 214  761.2098
 215  708.004
 216  474.2114
 217  249.7864
 218  287.9637
 219  370.277
 220  396.4673
 221  380.3128
 222  358.6212
 223  403.9855
 224  533.2585
 225  784.2016
 226  999.0684
 227  1051.971
 228  981.011
 229  715.6025
 230  627.6086
 231  539.8085
 232  569.541
 233  578.8419
 234  632.5204
 235  662.6311
 236  583.7234
 237  606.6044
 238  542.746
 239  503.3966
 240  429.067
 241  498.8446
 242  560.733
 243  713.176
 244  704.2414
 245  662.8189
 246  585.8796
 247  650.2509
 248  794.5598
 249  755.8141
 250  805.8372
 251  735.2041
 252  651.4801
 253  633.4775
 254  611.1777
 255  612.6251
 256  559.6451
 257  696.5483
 258  863.3373
 259  989.852
 260  957.4722
 261  997.3209
 262  911.4578
 263  839.6206
 264  681.1255
 265  619.6168
 266  568.3276
 267  523.0007
 268  444.3026
 269  414.1505
 270  418.2766
 271  461.7599
 272  579.5847
 273  767.6859
 274  828.5266
 275  783.2659
 276  703.753
 277  752.1825
 278  742.366
 279  667.1423
 280  571.7849
 281  632.6545
 282  567.7621
 283  508.6866
 284  446.458
 285  463.3382
 286  522.7984
 287  514.1233
 288  613.7407
 289  607.9238
 290  598.2267
 291  579.8986
 292  640.3913
 293  704.3267
 294  722.2574
 295  686.6771
 296  623.968
 297  701.1194
 298  775.9928
 299  724.911
 300  675.8262
 301  583.2426
 302  536.5428
 303  493.8017
 304  515.0376
 305  491.7112
 306  511.2645
 307  578.4599
 308  784.3694
 309  765.1338
 310  659.637
 311  703.3868
 312  864.012
 313  902.6479
 314  818.6152
 315  713.8945
 316  688.585
 317  595.5637
 318  677.606
 319  645.7769
 320  781.9775
 321  883.1143
 322  936.8303
 323  933.4865
 324  938.9013
 325  984.4202
 326  913.4606
 327  668.2798
 328  612.7454
 329  583.2268
 330  784.725
 331  732.5275
 332  748.827
 333  674.3665
 334  700.7286
 335  672.6307
 336  679.8098
 337  646.0985
 338  666.2017
 339  667.7343
 340  679.7759
 341  698.4384
 342  698.3743
 343  747.7164
 344  761.934
 345  741.1266
 346  587.7683
 347  586.3873
 348  718.205
 349  786.416
 350  657.9509
 351  555.7413
 352  467.2935
 353  452.1559
 354  446.2548
 355  473.6613
 356  537.3965
 357  525.4567
 358  480.0572
 359  465.5151
 360  485.5144
 361  482.1084
 362  527.4048
 363  558.7021
 364  537.0087
 365  414.018
 366  318.2614
 367  376.1115
 368  345.5441
 369  228.5889
 370  115.0615
 371  158.7575
 372  358.2427
 373  595.2103
 374  592.2053
 375  568.2706
 376  548.1461
 377  527.7058
 378  400.4681
 379  329.5999
 380  330.1111
 381  296.9951
 382  262.3328
 383  205.7894
 384  205.0493
 385  280.0186
 386  479.3102
 387  588.1913
 388  513.2657
 389  417.5735
 390  448.1649
 391  532.9612
 392  440.8054
 393  473.9001
 394  433.755
 395  471.5794
 396  473.8791
 397  608.6686
 398  602.5953
 399  502.0428
 400  407.5495
 401  389.2983
 402  370.0495
 403  319.9351
 404  319.737
 405  338.8183
 406  396.6208
 407  343.95
 408  328.839
 409  379.0781
 410  452.4853
 411  437.0516
 412  343.5753
 413  284.1125
 414  297.3858
 415  255.7964
 416  219.2153
 417  184.8884
 418  251.8817
 419  288.347
 420  348.9016
 421  335.3659
 422  348.8067
 423  368.3826
 424  444.9382
 425  489.4299
 426  425.232
 427  500.2333
 428  396.2567
 429  498.7334
 430  476.6091
 431  537.5827
 432  453.3794
 433  556.2513
 434  581.1947
 435  525.0776
 436  479.1322
 437  465.0693
 438  545.1469
 439  468.9384
 440  460.3038
 441  477.7203
 442  489.7303
 443  553.7396
 444  536.5486
 445  583.8634
 446  484.2198
 447  562.7443
 448  673.3344
 449  709.5988
 450  569.7643
 451  545.1386
 452  560.1147
 453  585.9083
 454  466.904
 455  410.7134
 456  430.1212
 457  447.0685
 458  484.3231
 459  495.353
 460  520.1793
 461  513.5526
 462  456.3261
 463  491.3466
 464  532.8027
 465  548.9047
 466  524.0381
 467  507.7437
 468  438.798
 469  510.0342
 470  541.6306
 471  581.6554
 472  505.1843
 473  495.5669
 474  450.3204
 475  517.0141
 476  530.0117
 477  488.9342
 478  320.3145
 479  397.137
 480  489.8971
 481  591.8672
 482  409.6153
 483  317.9633
 484  375.4662
 485  479.5401
 486  495.3756
 487  501.4105
 488  608.4745
 489  671.1978
 490  618.7154
 491  614.7403
 492  510.1321
 493  502.7891
 494  453.8737
 495  547.929
 496  542.3573
 497  621.1219
 498  603.5779
 499  614.1058
 500  750.5068
 501  758.0782
 502  608.7103
 503  597.4852
 504  634.1893
 505  629.2754
 506  638.2303
 507  687.4415
 508  704.2529
 509  629.0109
 510  565.27
 511  536.7272
 512  473.3046
 513  497.565
 514  514.2455
 515  504.427
 516  360.351
 517  339.9021
 518  373.6631
 519  381.8685
 520  362.4342
 521  416.0269
 522  552.3613
 523  586.9324
 524  558.0292
 525  559.4962
 526  664.4249
 527  731.0784
 528  743.4708
 529  756.7843
 530  722.9683
 531  541.6168
 532  561.5615
 533  599.2972
 534  797.2812
 535  723.205
 536  767.3321
 537  725.9156
 538  696.7592
 539  756.6693
 540  662.4861
 541  660.3763
 542  696.9551
 543  789.3215
 544  765.327
 545  669.2415
 546  674.0673
 547  727.7077
 548  739.2543
 549  706.4457
 550  647.2671
 551  758.4756
 552  878.4772
 553  841.2504
 554  811.3553
 555  785.3091
 556  950.4835
 557  947.8583
 558  867.2739
 559  701.2096
 560  569.84
 561  561.22
 562  553.9996
 563  551.654
 564  666.6523
 565  689.8477
 566  726.3008
 567  757.2551
 568  841.1085
 569  848.9933
 570  837.6215
 571  770.0344
 572  817.2352
 573  806.5089
 574  866.1477
 575  869.4854
 576  794.7199
 577  731.095
 578  764.9036
 579  865.1722
 580  916.2729
 581  977.8317
 582  1070.451
 583  1041.047
 584  978.819
 585  992.1998
 586  1050.507
 587  1076.435
 588  1101.831
 589  1100.125
 590  1102.965
 591  1031.571
 592  964.1718
 593  1065.3
 594  1346.916
 595  1659.334
 596  1918.278
 597  2117.656
 598  2198.373
 599  2181.576
 600  2143.888
 601  2104.807
 602  1963.803
 603  1708.271
 604  1541.267
 605  1429.473
 606  1361.185
 607  1209
 608  1052.053
 609  1004.442
 610  958.0667
 611  941.7036
 612  809.5222
 613  794.6027
 614  843.5229
 615  867.757
 616  786.2225
 617  847.3621
 618  976.5374
 619  1078.995
 620  1085.798
 621  1066.866
 622  1030.387
 623  1047.038
 624  987.5848
 625  1002.196
 626  1095.311
 627  1261.186
 628  1253.433
 629  1171.751
 630  1147.87
 631  1088.072
 632  1066.864
 633  1043.49
 634  1005.42
 635  919.8241
 636  812.4364
 637  768.3561
 638  794.9418
 639  878.7139
 640  948.9573
 641  930.149
 642  970.76
 643  824.4761
 644  816.8912
 645  740.9668
 646  722.2615
 647  813.2092
 648  922.4625
 649  899.3876
 650  916.6625
 651  876.1248
 652  809.7455
 653  838.5135
 654  980.1948
 655  1148.191
 656  1163.883
 657  1017.535
 658  1005.396
 659  1015.128
 660  1092.896
 661  1029.994
 662  969.1345
 663  1015.542
 664  954.6384
 665  1104.456
 666  1099.765
 667  1168.369
 668  1089.291
 669  1149.186
 670  1158.985
 671  1105.467
 672  1036.312
 673  984.9261
 674  952.1685
 675  946.8368
 676  859.8018
 677  891.3756
 678  812.3442
 679  803.1943
 680  862.774
 681  941.4841
 682  940.8783
 683  945.4495
 684  928.0264
 685  936.287
 686  980.9747
 687  955.6468
 688  808.7317
 689  616.2128
 690  705.191
 691  866.0757
 692  1013.337
 693  972.5798
 694  935.0234
 695  767.7675
 696  772.7513
 697  766.7252
 698  872.4869
 699  802.2483
 700  689.488
 701  652.8998
 702  676.9497
 703  646.097
 704  653.0233
 705  763.1572
 706  794.9577
 707  827.522
 708  817.7888
 709  781.261
 710  656.1375
 711  584.9603
 712  654.8568
 713  707.8022
 714  763.3681
 715  753.1677
 716  770.7856
 717  791.8629
 718  850.8543
 719  804.4974
 720  834.7626
 721  798.2665
 722  782.0599
 723  701.353
 724  779.1077
 725  773.8657
 726  723.877
 727  611.8347
 728  620.6819
 729  637.7032
 730  721.5982
 731  655.9982
 732  729.7426
 733  733.5583
 734  839.7803
 735  818.0411
 736  817.9351
 737  729.4622
 738  662.4506
 739  682.5156
 740  816.2274
 741  871.9928
 742  838.2893
 743  776.0018
 744  880.3356
 745  894.6721
 746  898.2253
 747  735.6476
 748  654.0816
 749  606.5168
 750  656.4709
 751  701.4192
 752  731.6237
 753  798.7119
 754  914.8571
 755  990.9487
 756  998.9033
 757  795.1585
 758  709.8301
 759  729.5621
 760  870.4513
 761  793.1201
 762  823.4169
 763  844.9414
 764  836.9653
 765  802.5652
 766  836.1268
 767  892.9754
 768  857.0983
 769  809.9675
 770  753.4628
 771  788.0793
 772  747.9578
 773  624.7507
 774  611.6065
 775  650.2971
 776  667.9284
 777  687.9144
 778  708.0905
 779  785.0412
 780  797.0071
 781  824.4055
 782  795.0557
 783  856.2651
 784  905.677
 785  1014.376
 786  1052.96
 787  936.9474
 788  862.0494
 789  736.0029
 790  706.7043
 791  575.2263
 792  714.9832
 793  859.1221
 794  1003.855
 795  938.0407
 796  843.6139
 797  779.571
 798  834.6837
 799  914.4992
 800  925.2032
 801  971.4352
 802  980.1436
 803  912.6337
 804  889.6619
 805  969.873
 806  1029.766
 807  1038.937
 808  964.4352
 809  1054.635
 810  1044.073
 811  1079.595
 812  1041.037
 813  1014.385
 814  963.2024
 815  927.3681
 816  961.9865
 817  921.3022
 818  937.3492
 819  994.4533
 820  1184.515
 821  1248.78
 822  1284.292
 823  1189.896
 824  1176.067
 825  1008.765
 826  1001.681
 827  1120.403
 828  1131.2
 829  1056.736
 830  1054.172
 831  1160.155
 832  1125.072
 833  1205.649
 834  1182.776
 835  1206.635
 836  1121.479
 837  1070.307
 838  1171.052
 839  1162.945
 840  1236.874
 841  1205.466
 842  1147.291
 843  1173.436
 844  1255.152
 845  1274.276
 846  1317.48
 847  1229.222
 848  1246.064
 849  1250.417
 850  1255.226
 851  1106.32
 852  1084.848
 853  1200.062
 854  1308.318
 855  1302.92
 856  1244.659
 857  1319.528
 858  1401.22
 859  1542.278
 860  1480.778
 861  1372.172
 862  1293.377
 863  1255.375
 864  1268.361
 865  1154.99
 866  1119.267
 867  1121.068
 868  1132.743
 869  1218.532
 870  1179.036
 871  1148.451
 872  1075.559
 873  1138.15
 874  1192.318
 875  1145.258
 876  1178.406
 877  1173.232
 878  1135.779
 879  1134.947
 880  1178.352
 881  1236.961
 882  1244.929
 883  1284.025
 884  1341.621
 885  1289.691
 886  1155.547
 887  957.7172
 888  901.1082
 889  949.3328
 890  986.3922
 891  981.2042
 892  1005.645
 893  1009.407
 894  1019.93
 895  1060.45
 896  998.2146
 897  1027.622
 898  958.7969
 899  984.1882
 900  904.1866
 901  971.1991
 902  1048.459
 903  1166.416
 904  1127.94
 905  1201.467
 906  1191.468
 907  1190.782
 908  1071.356
 909  1067.121
 910  1020.932
 911  1005.955
 912  927.1821
 913  961.3469
 914  1052.168
 915  1159.422
 916  1267.713
 917  1309.82
 918  1296.865
 919  1192.89
 920  1163.818
 921  1264.321
 922  1186.37
 923  1181.069
 924  1150.155
 925  1242.901
 926  1193.61
 927  1107.172
 928  1067.527
 929  1096.299
 930  1052.914
 931  1001.344
 932  1049.044
 933  1127.63
 934  1157.458
 935  1099.832
 936  1005.021
 937  938.7935
 938  780.6585
 939  811.6101
 940  925.6295
 941  972.0396
 942  1029.115
 943  1043.492
 944  958.4365
 945  883.3461
 946  932.996
 947  922.9562
 948  912.2565
 949  869.8804
 950  952.0406
 951  989.9999
 952  957.4757
 953  1010.283
 954  999.7227
 955  968.5259
 956  814.7031
 957  808.7238
 958  757.6104
 959  729.4562
 960  716.7391
 961  838.874
 962  1022.459
 963  1039.067
 964  1009.786
 965  903.883
 966  895.7762
 967  901.9739
 968  758.4009
 969  626.7198
 970  620.0091
 971  664.8335
 972  732.4317
 973  744.644
 974  825.5021
 975  818.3349
 976  789.3909
 977  770.1774
 978  663.5494
 979  709.3176
 980  695.335
 981  815.9818
 982  738.2421
 983  661.842
 984  708.9655
 985  666.0682
 986  659.5225
 987  579.8943
 988  588.0843
 989  575.0798
 990  545.7367
 991  718.8832
 992  872.7177
 993  818.9544
 994  701.9258
 995  742.1528
 996  779.6442
 997  765.3975
 998  679.7692
 999  759.103
1000  787.6157
1001  722.9705
1002  711.0238
1003  754.6099
1004  794.0513
1005  833.5535
1006  818.6885
1007  808.9621
1008  704.8182
1009  720.2006
1010  885.0204
1011  886.258
1012  879.1826
1013  844.8165
1014  847.1418
1015  688.9374
1016  720.8162
1017  813.9836
1018  897.7368
1019  864.006
1020  823.2965
1021  849.1555
1022  862.0612
1023  871.2267
