# Input file       =  1210336979.122326_cleaned.dat
# Candidate        =  PSR_0332+5434
# Telescope        =  AR
# Epoch_topo       =  58252.530070860252
# Epoch_bary       =  N/A
# T_sample         =  0.002
# Data Folded      =  7340032
# Data Avg         =  0.222315340742561
# Data StdDev      =  4.62842477288064 
# Profile Bins     =  1024
# Profile Avg      =  1593.46732681023 
# Profile StdDev   =  391.861149152409 
# Reduced chi-sqr  =  0.862
# Prob(Noise)      <  0.999   (~0.0 sigma)
# P_topo (ms)      =  714.534385195041  +/- 0.000426
# P'_topo (s/s)    =  -0                +/- 2.25e-10
# P''_topo (s/s^2) =  0                 +/- 9.91e-14
# P_bary (ms)      =  N/A
# P'_bary (s/s)    =  N/A
# P''_bary (s/s^2) =  N/A
# P_orb (s)        =  N/A
# asin(i)/c (s)    =  N/A
# eccentricity     =  N/A
# w (rad)          =  N/A
# T_peri           =  N/A
######################################################
   0  1604.906
   1  1689.317
   2  1730.506
   3  1620.889
   4  1465.594
   5  1355.885
   6  1371.262
   7  1301.541
   8  1402.046
   9  1434.441
  10  1490.865
  11  1409.201
  12  1350.864
  13  1329.42
  14  1363.422
  15  1454.117
  16  1443.058
  17  1435.188
  18  1414.375
  19  1323.132
  20  1464.493
  21  1494.419
  22  1604.661
  23  1517.646
  24  1554.049
  25  1571.051
  26  1532.867
  27  1589.054
  28  1559.597
  29  1662.15
  30  1669.352
  31  1626.489
  32  1544.361
  33  1335.942
  34  1435.24
  35  1502.222
  36  1556.769
  37  1349.745
  38  1402.375
  39  1357.102
  40  1437.663
  41  1340.289
  42  1310.755
  43  1320.914
  44  1348.793
  45  1456.879
  46  1438.955
  47  1427.387
  48  1284.221
  49  1346.903
  50  1402.322
  51  1474.779
  52  1415.887
  53  1274.904
  54  1310.246
  55  1251.814
  56  1268.594
  57  1258.948
  58  1316.845
  59  1421.215
  60  1503.941
  61  1612.24
  62  1741.845
  63  1613.28
  64  1611.211
  65  1522.618
  66  1533.004
  67  1436.385
  68  1451.809
  69  1476.115
  70  1466.261
  71  1413.296
  72  1495.876
  73  1586.867
  74  1562.495
  75  1548.876
  76  1553.712
  77  1532.686
  78  1534.077
  79  1561.683
  80  1706.254
  81  1677.731
  82  1722.286
  83  1769.773
  84  1688.073
  85  1622.471
  86  1539.611
  87  1620.16
  88  1623.063
  89  1724.047
  90  1719.463
  91  1704.297
  92  1653.277
  93  1746.956
  94  1878.327
  95  1934.288
  96  1748.209
  97  1606.329
  98  1566.438
  99  1557.19
 100  1548.566
 101  1675.751
 102  1727.534
 103  1814.88
 104  1631.957
 105  1576.596
 106  1435.343
 107  1518.38
 108  1641.67
 109  1706.495
 110  1695.583
 111  1680.584
 112  1648.563
 113  1785.858
 114  1732.962
 115  1841.984
 116  1806.865
 117  1812.25
 118  1722.636
 119  1780.849
 120  1752.52
 121  1676.517
 122  1718.038
 123  1766.256
 124  1729.319
 125  1663.29
 126  1650.947
 127  1789.824
 128  1858.999
 129  1771.878
 130  1782.054
 131  1711.33
 132  1765.852
 133  1747.934
 134  1781.642
 135  1766.738
 136  1770.685
 137  1765.182
 138  1710.245
 139  1568.917
 140  1556.908
 141  1532.036
 142  1678.89
 143  1648.127
 144  1571.714
 145  1613.182
 146  1690.012
 147  1675.469
 148  1593.391
 149  1630.628
 150  1686.93
 151  1653.575
 152  1604.573
 153  1497.472
 154  1495.431
 155  1547.069
 156  1656.317
 157  1561.797
 158  1563.955
 159  1492.078
 160  1574.085
 161  1682.412
 162  1628.45
 163  1478.052
 164  1462.662
 165  1459.647
 166  1507.643
 167  1545.76
 168  1700.392
 169  1777.312
 170  1698.534
 171  1643.539
 172  1702.338
 173  1711.55
 174  1683.229
 175  1651.581
 176  1663.719
 177  1721.761
 178  1767.231
 179  1836.52
 180  1853.223
 181  1803.059
 182  1726.532
 183  1701.211
 184  1737.487
 185  1724.899
 186  1649.994
 187  1498.186
 188  1491.439
 189  1623.938
 190  1766.87
 191  1761.562
 192  1723.023
 193  1602.01
 194  1468.081
 195  1475.218
 196  1532.13
 197  1734.323
 198  1812.418
 199  1785.138
 200  1716.357
 201  1585.401
 202  1544.81
 203  1545.722
 204  1540.549
 205  1539.111
 206  1422.609
 207  1450.325
 208  1544.446
 209  1674.554
 210  1745.457
 211  1677.955
 212  1582.998
 213  1602.503
 214  1710.478
 215  1735.227
 216  1733.974
 217  1704.491
 218  1710.729
 219  1697.505
 220  1712.392
 221  1640.469
 222  1632.496
 223  1656.758
 224  1782.152
 225  1783.01
 226  1886.318
 227  1757.343
 228  1798.508
 229  1736.941
 230  1619.599
 231  1434.421
 232  1341.742
 233  1430.229
 234  1481.766
 235  1476.489
 236  1584.167
 237  1604.694
 238  1593.287
 239  1503.263
 240  1423.223
 241  1493.99
 242  1585.646
 243  1757.492
 244  1742.836
 245  1618.906
 246  1559.48
 247  1568.68
 248  1549.867
 249  1579.124
 250  1544.055
 251  1488.905
 252  1465.73
 253  1422.418
 254  1388.349
 255  1421.139
 256  1428.094
 257  1445.749
 258  1425.619
 259  1403.72
 260  1383.121
 261  1352.539
 262  1377.283
 263  1367.966
 264  1368.132
 265  1336.389
 266  1363.332
 267  1343.509
 268  1412.91
 269  1336.508
 270  1302.81
 271  1243.099
 272  1282.717
 273  1429.731
 274  1545.852
 275  1644.736
 276  1743.102
 277  1734.332
 278  1620.67
 279  1518.779
 280  1535.929
 281  1599.023
 282  1575.208
 283  1589.324
 284  1655.801
 285  1559.313
 286  1417.392
 287  1400.039
 288  1505.522
 289  1537.847
 290  1587.784
 291  1608.635
 292  1718.952
 293  1776.299
 294  1865.011
 295  1843.639
 296  1631.398
 297  1413.044
 298  1341.117
 299  1447.177
 300  1496.724
 301  1534.457
 302  1487.715
 303  1558.573
 304  1612.058
 305  1540.019
 306  1446.181
 307  1371.088
 308  1447.233
 309  1458.684
 310  1439.946
 311  1339.743
 312  1402.963
 313  1484.138
 314  1524.896
 315  1538.855
 316  1560.194
 317  1701.692
 318  1685.36
 319  1641.714
 320  1566.905
 321  1547.935
 322  1608.035
 323  1649.111
 324  1649.77
 325  1684.326
 326  1784.202
 327  1732.477
 328  1609.279
 329  1615.542
 330  1744.081
 331  1775.015
 332  1624.103
 333  1411.602
 334  1386.149
 335  1497.641
 336  1505.804
 337  1469.654
 338  1532.605
 339  1579.03
 340  1562.992
 341  1513.179
 342  1511.436
 343  1404.38
 344  1338.966
 345  1439.968
 346  1513.235
 347  1517.307
 348  1370.99
 349  1253.033
 350  1268.285
 351  1341.904
 352  1370.19
 353  1380.046
 354  1374.869
 355  1369.728
 356  1356.844
 357  1342.418
 358  1367.614
 359  1392.288
 360  1389.966
 361  1403.646
 362  1318.746
 363  1247.779
 364  1169.954
 365  1201.238
 366  1206.584
 367  1230.597
 368  1312.215
 369  1373.022
 370  1440.94
 371  1424.988
 372  1392.978
 373  1326.729
 374  1305.741
 375  1423.572
 376  1453.776
 377  1317.461
 378  1292.031
 379  1303.462
 380  1231.458
 381  1209.555
 382  1229.295
 383  1213.317
 384  1135.947
 385  1121.009
 386  1085.28
 387  1134.49
 388  1109.487
 389  1177.823
 390  1368.499
 391  1371.82
 392  1309.5
 393  1182.586
 394  1107.825
 395  1171.383
 396  1244.436
 397  1310.911
 398  1309.591
 399  1214.439
 400  1207.683
 401  1251.175
 402  1271.788
 403  1301.995
 404  1286.624
 405  1399.004
 406  1418.616
 407  1344.29
 408  1247.11
 409  1309.131
 410  1338.046
 411  1356.114
 412  1303.238
 413  1278.216
 414  1366.785
 415  1404.365
 416  1567.518
 417  1629.345
 418  1672.378
 419  1654.013
 420  1570.72
 421  1611.646
 422  1598.372
 423  1598.667
 424  1515.885
 425  1473.278
 426  1383.319
 427  1325.371
 428  1301.886
 429  1386.37
 430  1401.933
 431  1483.719
 432  1563.705
 433  1443.058
 434  1376.656
 435  1301.547
 436  1419.137
 437  1442.527
 438  1528.552
 439  1682.604
 440  1809.367
 441  1723.794
 442  1660.616
 443  1688.348
 444  1758.706
 445  1753.285
 446  1791.289
 447  1785.042
 448  1867.451
 449  1884.204
 450  1939.674
 451  1820.304
 452  1716.87
 453  1652.698
 454  1666.069
 455  1716.919
 456  1741.211
 457  1723.319
 458  1729.461
 459  1736.618
 460  1751.08
 461  1655.68
 462  1579.036
 463  1659.416
 464  1789.208
 465  1798.548
 466  1647.656
 467  1564.835
 468  1594.278
 469  1616.634
 470  1770.391
 471  1752.638
 472  1779.485
 473  1663.888
 474  1607.626
 475  1505.359
 476  1591.852
 477  1510.495
 478  1429.93
 479  1496.334
 480  1589.286
 481  1518.461
 482  1366.325
 483  1442.834
 484  1529.671
 485  1603.07
 486  1608.976
 487  1641.115
 488  1676.028
 489  1779.088
 490  1726.018
 491  1659.385
 492  1631.265
 493  1577.636
 494  1507.063
 495  1426.805
 496  1420.002
 497  1472.62
 498  1579.469
 499  1579.577
 500  1551.199
 501  1550.885
 502  1568.757
 503  1596.852
 504  1532.688
 505  1516.9
 506  1580.059
 507  1610.847
 508  1696.593
 509  1655.728
 510  1560.872
 511  1478.656
 512  1571.812
 513  1677.91
 514  1567.59
 515  1560.726
 516  1631.529
 517  1677.36
 518  1645.066
 519  1530.123
 520  1491.042
 521  1484.316
 522  1506.458
 523  1601.693
 524  1567.962
 525  1545.87
 526  1395.245
 527  1455.322
 528  1396.509
 529  1412.091
 530  1271.289
 531  1380.803
 532  1359.041
 533  1409.309
 534  1411.585
 535  1614.051
 536  1597.683
 537  1671.552
 538  1575.753
 539  1577.801
 540  1460.219
 541  1515.146
 542  1568.395
 543  1532.693
 544  1509.099
 545  1626.398
 546  1715.116
 547  1680.357
 548  1662.558
 549  1520.86
 550  1464.333
 551  1496.095
 552  1704.127
 553  1766.796
 554  1665.047
 555  1676.104
 556  1720.904
 557  1712.102
 558  1582.316
 559  1549.687
 560  1530.068
 561  1515.935
 562  1466.618
 563  1475.348
 564  1553.522
 565  1636.043
 566  1565.121
 567  1452.93
 568  1382.776
 569  1469.369
 570  1509.189
 571  1383.309
 572  1296.168
 573  1299.352
 574  1414.355
 575  1389.325
 576  1437.514
 577  1420.141
 578  1590.479
 579  1666.012
 580  1693.798
 581  1640.284
 582  1703.643
 583  1812.725
 584  1878.626
 585  1847.222
 586  1782.922
 587  1729.281
 588  1753.971
 589  1901.78
 590  2037.839
 591  2032.315
 592  1947.147
 593  2008.398
 594  2410.123
 595  2546.507
 596  2687.665
 597  2680.457
 598  2796.226
 599  2716.09
 600  2660.452
 601  2673.737
 602  2625.211
 603  2495.153
 604  2348.021
 605  2221.093
 606  2008.455
 607  1805.745
 608  1690.026
 609  1687.072
 610  1550.005
 611  1503.878
 612  1644.388
 613  1614.593
 614  1532.077
 615  1512.311
 616  1557.079
 617  1543.348
 618  1552.287
 619  1566.146
 620  1558.222
 621  1673.386
 622  1767.311
 623  1680.468
 624  1459.786
 625  1555.568
 626  1607.431
 627  1517.22
 628  1343.752
 629  1285.694
 630  1357.281
 631  1403.078
 632  1603.604
 633  1772.562
 634  1742.663
 635  1701.054
 636  1497.448
 637  1552.427
 638  1529.039
 639  1619.21
 640  1550.797
 641  1481.823
 642  1385.937
 643  1434.935
 644  1523.022
 645  1539.311
 646  1498.445
 647  1552.517
 648  1562.285
 649  1482.032
 650  1314.414
 651  1289.568
 652  1286.236
 653  1427.586
 654  1423.118
 655  1427.714
 656  1409.624
 657  1423.21
 658  1460.847
 659  1585.295
 660  1631.427
 661  1641.583
 662  1558.566
 663  1500.66
 664  1617.035
 665  1603.963
 666  1507.318
 667  1504.991
 668  1382.128
 669  1377.296
 670  1346.801
 671  1323.845
 672  1318.424
 673  1336.531
 674  1366.014
 675  1504.401
 676  1553.574
 677  1542.462
 678  1431.641
 679  1325.516
 680  1339.457
 681  1424.64
 682  1424.152
 683  1372.543
 684  1287.28
 685  1213.637
 686  1190.4
 687  1336.697
 688  1452.713
 689  1594.813
 690  1516.501
 691  1559.908
 692  1469.698
 693  1468.162
 694  1513.233
 695  1387.763
 696  1392.883
 697  1443.664
 698  1471.401
 699  1488.387
 700  1672.069
 701  1763.317
 702  1601.738
 703  1336.226
 704  1250.124
 705  1372.649
 706  1502.451
 707  1568.76
 708  1584.959
 709  1529.45
 710  1366.332
 711  1324.009
 712  1377.757
 713  1474.584
 714  1488.305
 715  1547.469
 716  1556.486
 717  1461.939
 718  1430.651
 719  1460.022
 720  1504.695
 721  1556.344
 722  1702.742
 723  1796.259
 724  1702.961
 725  1641.447
 726  1659.448
 727  1768.878
 728  1791.385
 729  1961.77
 730  2010.475
 731  1912.543
 732  1637.525
 733  1689.95
 734  1698.002
 735  1798.41
 736  1723.06
 737  1706.964
 738  1636.881
 739  1630.032
 740  1608.717
 741  1541.54
 742  1511.91
 743  1488.828
 744  1399.353
 745  1399.011
 746  1358.69
 747  1400.805
 748  1475.65
 749  1457.28
 750  1530.897
 751  1553.853
 752  1478.135
 753  1517.818
 754  1594.932
 755  1729.63
 756  1727.448
 757  1729.156
 758  1811.584
 759  1707.042
 760  1709.859
 761  1625.193
 762  1706.649
 763  1706.092
 764  1730.674
 765  1655.704
 766  1631.508
 767  1597.112
 768  1568.814
 769  1451.854
 770  1403.602
 771  1548.396
 772  1633.335
 773  1648.694
 774  1628.233
 775  1675.1
 776  1627.342
 777  1573.422
 778  1510.576
 779  1525.752
 780  1574.25
 781  1710.244
 782  1751.35
 783  1754.932
 784  1644.657
 785  1659.725
 786  1526.929
 787  1528.097
 788  1523.368
 789  1701.074
 790  1753.213
 791  1670.175
 792  1672.071
 793  1794.814
 794  1714.926
 795  1773.653
 796  1694.076
 797  1707.507
 798  1693.488
 799  1755.541
 800  1815.124
 801  1870.182
 802  1976.289
 803  1990.452
 804  1930.816
 805  1924.824
 806  1946.074
 807  1921.736
 808  1834.78
 809  1721.985
 810  1698.376
 811  1720.01
 812  1772.151
 813  1812.905
 814  1863.811
 815  1953.123
 816  1973.032
 817  1884.385
 818  1774.686
 819  1752.927
 820  1847.94
 821  1817.283
 822  1784.82
 823  1850.659
 824  1819.222
 825  1855.355
 826  1889.903
 827  1925.821
 828  1934.179
 829  1925.21
 830  2033.106
 831  2015.11
 832  2027.644
 833  1962.188
 834  1793.895
 835  1752.892
 836  1661.382
 837  1769.535
 838  1637.379
 839  1632.965
 840  1603.75
 841  1700.809
 842  1765.266
 843  1807.315
 844  1773.389
 845  1737.177
 846  1764.674
 847  1771.11
 848  1593.396
 849  1593.492
 850  1619.89
 851  1725.317
 852  1745.549
 853  1667.869
 854  1642.282
 855  1572.551
 856  1630.204
 857  1619.168
 858  1625.805
 859  1671.247
 860  1820.211
 861  1880.709
 862  1859.234
 863  1775.421
 864  1707.291
 865  1713.401
 866  1809.617
 867  1828.021
 868  1773.819
 869  1662.115
 870  1606.911
 871  1723.739
 872  1699.674
 873  1662.109
 874  1650.687
 875  1631.412
 876  1716.588
 877  1811.734
 878  1924.066
 879  1942.734
 880  1846.975
 881  1821.576
 882  1759.521
 883  1786.723
 884  1739.751
 885  1596.866
 886  1660.055
 887  1729.032
 888  1930.099
 889  1894.532
 890  1857.874
 891  1695.223
 892  1659.586
 893  1719.073
 894  1673.849
 895  1746.618
 896  1656.648
 897  1631.515
 898  1604.578
 899  1587.616
 900  1581.263
 901  1650.654
 902  1665.183
 903  1616.961
 904  1529.977
 905  1576.636
 906  1590.408
 907  1497.192
 908  1520.445
 909  1652.682
 910  1759.664
 911  1626.53
 912  1605.98
 913  1489.202
 914  1529.395
 915  1425.881
 916  1531.892
 917  1551.123
 918  1590.677
 919  1493.214
 920  1552.592
 921  1590.845
 922  1523.152
 923  1501.256
 924  1587.959
 925  1692.702
 926  1664.176
 927  1591.844
 928  1591.795
 929  1603.978
 930  1539.03
 931  1451.799
 932  1406.453
 933  1490.756
 934  1523.409
 935  1604.018
 936  1509.15
 937  1565.67
 938  1508.034
 939  1411.585
 940  1341.574
 941  1333.565
 942  1450.673
 943  1462.289
 944  1590.323
 945  1642.622
 946  1528.452
 947  1404.876
 948  1372.134
 949  1490.977
 950  1455.809
 951  1494.208
 952  1504.491
 953  1544.584
 954  1483.072
 955  1399.511
 956  1471.918
 957  1541.575
 958  1580.497
 959  1582.527
 960  1622.036
 961  1617.577
 962  1625.167
 963  1701.206
 964  1753.191
 965  1658.971
 966  1595.112
 967  1663.825
 968  1843.854
 969  2015.054
 970  2018.196
 971  1960.317
 972  1881.155
 973  1869.94
 974  1914.806
 975  1711.703
 976  1603.232
 977  1646.26
 978  1735.297
 979  1650.876
 980  1575.883
 981  1520.255
 982  1657.464
 983  1710.771
 984  1713.321
 985  1588.787
 986  1523.392
 987  1640.652
 988  1697.58
 989  1721.254
 990  1605.018
 991  1538.383
 992  1604.639
 993  1733.289
 994  1741.28
 995  1686.983
 996  1626.288
 997  1810.502
 998  1756.962
 999  1715.866
1000  1473.564
1001  1399.374
1002  1522.166
1003  1552.814
1004  1667.918
1005  1759.876
1006  1757.797
1007  1661.389
1008  1634.825
1009  1733.023
1010  1827.787
1011  1992.498
1012  1953.567
1013  1950.41
1014  1763.251
1015  1820.276
1016  1929.512
1017  2010.975
1018  1857.945
1019  1769.44
1020  1784.057
1021  1756.596
1022  1615.35
1023  1543.583
