# Input file       =  1210752853.118745_cleaned.dat
# Candidate        =  PSR_0332+5434
# Telescope        =  AR
# Epoch_topo       =  58257.343427300293
# Epoch_bary       =  N/A
# T_sample         =  0.002
# Data Folded      =  7340032
# Data Avg         =  0.0867516374439994
# Data StdDev      =  4.74857827857762 
# Profile Bins     =  512
# Profile Avg      =  1243.50704641331 
# Profile StdDev   =  568.561695766855 
# Reduced chi-sqr  =  1.247
# Prob(Noise)      <  0.000116   (~3.7 sigma)
# P_topo (ms)      =  714.529338781591  +/- 0.00043
# P'_topo (s/s)    =  -0                +/- 2.27e-10
# P''_topo (s/s^2) =  0                 +/- 1e-13
# P_bary (ms)      =  N/A
# P'_bary (s/s)    =  N/A
# P''_bary (s/s^2) =  N/A
# P_orb (s)        =  N/A
# asin(i)/c (s)    =  N/A
# eccentricity     =  N/A
# w (rad)          =  N/A
# T_peri           =  N/A
######################################################
   0  1245.342
   1  1093.822
   2  889.6099
   3  989.0272
   4  913.0952
   5  1133.922
   6  1004.458
   7  1239.527
   8  1208.559
   9  999.6832
  10  987.5159
  11  1384.803
  12  1390.446
  13  1656.926
  14  1350.622
  15  1255.239
  16  1399
  17  1522.824
  18  1583.605
  19  1355.271
  20  1562.089
  21  1474.399
  22  1225.656
  23  1438.142
  24  1452.935
  25  1287.401
  26  1214.873
  27  900.5873
  28  955.8126
  29  1107.08
  30  781.6586
  31  894.4099
  32  1253.288
  33  874.7023
  34  630.2363
  35  860.4075
  36  865.0146
  37  890.7897
  38  1046.972
  39  1084.184
  40  917.6393
  41  550.7701
  42  821.8888
  43  977.6404
  44  1079.216
  45  380.6269
  46  211.2761
  47  464.7798
  48  556.992
  49  622.0227
  50  761.8379
  51  945.5546
  52  961.4665
  53  1249.768
  54  1263.373
  55  1274.509
  56  1130.294
  57  1333.534
  58  1562.805
  59  1698.592
  60  1536.586
  61  980.7125
  62  827.0978
  63  1206.71
  64  1624.547
  65  1292.21
  66  1172.53
  67  1387.202
  68  1185.555
  69  788.8666
  70  1035.585
  71  1156.215
  72  1425.679
  73  997.4623
  74  957.598
  75  1108.86
  76  971.757
  77  702.1536
  78  783.2845
  79  1076.04
  80  1572.923
  81  1648.411
  82  1453.621
  83  1467.294
  84  1262.99
  85  1049.62
  86  1141.678
  87  1460.436
  88  1428.202
  89  1550.588
  90  1460.938
  91  1499.945
  92  1665.96
  93  1853.834
  94  1608.634
  95  1830.419
  96  1922.695
  97  1826.251
  98  1557.579
  99  1618.12
 100  1819.78
 101  1991.398
 102  2079.413
 103  1852.702
 104  2068.891
 105  2082.241
 106  1980.78
 107  1777.974
 108  1527.072
 109  2164.34
 110  2289.325
 111  2176.251
 112  2106.172
 113  1921.372
 114  1586.376
 115  1477.829
 116  1543.576
 117  1312.703
 118  1273.583
 119  1580.7
 120  1704.36
 121  1276.711
 122  899.9909
 123  1263.947
 124  1140.521
 125  954.6491
 126  1142.08
 127  674.8699
 128  601.8741
 129  938.8859
 130  1208.355
 131  1291.352
 132  1386.219
 133  1318.114
 134  1010.728
 135  1257.721
 136  774.0062
 137  798.6531
 138  720.0524
 139  1018.851
 140  925.8626
 141  739.1302
 142  1090.753
 143  924.9144
 144  963.181
 145  977.8512
 146  904.9505
 147  903.5422
 148  1212.796
 149  1328.134
 150  1258.545
 151  1109.295
 152  723.4722
 153  514.2386
 154  634.2829
 155  627.5842
 156  885.2672
 157  998.8727
 158  476.7037
 159  537.1441
 160  749.9814
 161  798.353
 162  862.3677
 163  956.7892
 164  839.057
 165  849.4942
 166  985.8912
 167  645.4423
 168  633.845
 169  910.2933
 170  726.166
 171  585.2945
 172  1014.239
 173  878.7326
 174  898.0578
 175  1439.77
 176  1548.292
 177  1518.48
 178  1167.181
 179  1183.613
 180  1131.489
 181  1455.566
 182  1881.044
 183  1806.498
 184  1712.326
 185  1759.552
 186  1628.39
 187  1725.557
 188  1427.225
 189  1902.327
 190  1922.9
 191  1836.189
 192  1594.454
 193  1551.566
 194  2076.753
 195  2024.3
 196  2184.63
 197  2006.111
 198  1354.305
 199  1415.271
 200  1618.869
 201  1492.249
 202  1805.27
 203  1738.154
 204  1646.797
 205  1616.811
 206  1561.83
 207  1760.497
 208  1397.2
 209  1880.073
 210  1555.341
 211  1628.602
 212  1934.457
 213  1765.474
 214  1739.787
 215  2213.67
 216  2193.464
 217  1916.213
 218  1704.121
 219  1867.823
 220  2241.454
 221  2093.712
 222  2029.298
 223  1724.755
 224  2409.255
 225  2183.921
 226  1880.014
 227  1873.58
 228  2226.07
 229  1969.288
 230  1446.117
 231  1579.382
 232  1791.492
 233  1784.403
 234  1844.2
 235  1911.912
 236  1860.582
 237  1750.808
 238  1366.739
 239  1627.518
 240  1765.967
 241  1396.121
 242  1309.166
 243  1738.319
 244  1567.923
 245  1427.309
 246  1381.363
 247  1245.364
 248  1244.237
 249  1269.681
 250  977.7888
 251  984.7264
 252  869.5668
 253  893.0156
 254  1193.499
 255  1101.165
 256  1107.279
 257  1127.753
 258  1303.888
 259  1088.085
 260  785.0817
 261  1144.971
 262  1095.811
 263  1224.933
 264  1306.44
 265  1366.944
 266  1161.15
 267  866.5727
 268  1013.959
 269  1017.062
 270  1141.376
 271  1177.831
 272  1371.93
 273  1255.56
 274  908.1838
 275  673.597
 276  966.1775
 277  1057.378
 278  1348.852
 279  1408.208
 280  1675.187
 281  1521.835
 282  1688.164
 283  1363.184
 284  768.3671
 285  959.11
 286  1062.855
 287  927.3146
 288  785.9009
 289  734.4835
 290  649.632
 291  1231.24
 292  1289.841
 293  1105.226
 294  829.474
 295  886.6242
 296  1631.33
 297  2080.934
 298  2506.738
 299  2875.675
 300  3007.542
 301  2482.349
 302  2296.763
 303  1951.946
 304  1165.926
 305  1093.013
 306  1128.178
 307  906.8223
 308  981.6086
 309  1286.073
 310  1717.138
 311  1801.985
 312  1754.147
 313  1970.693
 314  1828.606
 315  1863.071
 316  2041.307
 317  2139.158
 318  2037.736
 319  2069.49
 320  1830.949
 321  1702.396
 322  1698.948
 323  1754.527
 324  1624.169
 325  1733.241
 326  1615.416
 327  1654.745
 328  1944.653
 329  1782.978
 330  1383.045
 331  1422.572
 332  1385.618
 333  1009.603
 334  999.0323
 335  1373.255
 336  1412.628
 337  1382.915
 338  1529.543
 339  1301.083
 340  1156.716
 341  1348.391
 342  1340.45
 343  1180.535
 344  1196.05
 345  1266.366
 346  1466.973
 347  1475.557
 348  1422.082
 349  1150.954
 350  1119.923
 351  1191.175
 352  1059.276
 353  1317.445
 354  1909.989
 355  1724.005
 356  1474.674
 357  1638.345
 358  1708.321
 359  1444.092
 360  1530.413
 361  1520.717
 362  1252.716
 363  1042.798
 364  1018.559
 365  1447.582
 366  1052.507
 367  725.7585
 368  661.1488
 369  901.7645
 370  892.4842
 371  663.5267
 372  1148.676
 373  1218.801
 374  842.3447
 375  834.3255
 376  969.9965
 377  462.204
 378  112.9017
 379  316.9193
 380  449.9118
 381  454.6679
 382  -28.92222
 383  251.783
 384  229.0623
 385  12.40837
 386  230.3559
 387  233.5644
 388  560.0374
 389  477.2558
 390  281.5973
 391  344.3732
 392  519.5322
 393  448.4816
 394  214.7655
 395  568.5416
 396  568.2343
 397  522.0498
 398  700.0284
 399  591.5876
 400  591.1795
 401  784.0681
 402  928.7664
 403  1066.354
 404  1131.693
 405  924.8876
 406  1007.456
 407  802.291
 408  917.1465
 409  886.3651
 410  1049.225
 411  980.4374
 412  745.9068
 413  730.0616
 414  953.1874
 415  883.7557
 416  1184.029
 417  1041.978
 418  491.4374
 419  245.5152
 420  372.3047
 421  752.1487
 422  861.3401
 423  900.929
 424  1010.351
 425  797.9339
 426  645.0794
 427  790.1656
 428  1183.35
 429  1176.907
 430  916.4165
 431  800.0878
 432  1182.517
 433  1275.21
 434  1355.881
 435  1231.752
 436  1206.665
 437  1076.359
 438  1166.96
 439  1400.993
 440  1487.817
 441  1206.538
 442  1479.253
 443  1303.568
 444  1546.653
 445  1583.549
 446  1825.163
 447  1714.61
 448  1513.894
 449  1505.774
 450  1586.902
 451  1189.15
 452  1062.752
 453  1216.03
 454  1053.51
 455  1297.713
 456  1491.938
 457  1410.218
 458  1306.166
 459  1022.101
 460  980.962
 461  987.4293
 462  1176.831
 463  1322.376
 464  1413.091
 465  1236.713
 466  1080.301
 467  917.2045
 468  1097.551
 469  727.6842
 470  846.4407
 471  956.6141
 472  1325.477
 473  1221.332
 474  1019.31
 475  1109.806
 476  1156.306
 477  926.218
 478  1081.698
 479  1222.255
 480  1480.84
 481  1353.548
 482  916.7759
 483  768.6105
 484  982.7089
 485  1123.03
 486  1265.124
 487  1095.724
 488  1558.22
 489  1486.508
 490  1353.242
 491  1372.328
 492  1440.777
 493  1354.812
 494  1428.395
 495  1670.55
 496  1473.271
 497  1164.951
 498  1390.281
 499  1587.472
 500  1152.695
 501  636.0084
 502  575.2527
 503  659.4519
 504  825.0944
 505  915.4164
 506  564.2968
 507  491.922
 508  757.3638
 509  640.1416
 510  802.4523
 511  1356.108
