# Input file       =  1210393607.115757_cleaned.dat
# Candidate        =  PSR_0332+5434
# Telescope        =  AR
# Epoch_topo       =  58253.185487450894
# Epoch_bary       =  N/A
# T_sample         =  0.002
# Data Folded      =  7143424
# Data Avg         =  0.0463877807222968
# Data StdDev      =  1.00007124463274 
# Profile Bins     =  512
# Profile Avg      =  647.190866783721 
# Profile StdDev   =  118.126999797039 
# Reduced chi-sqr  =  1.554
# Prob(Noise)      <  1.19e-14   (~7.6 sigma)
# P_topo (ms)      =  714.533396528239  +/- 0.000299
# P'_topo (s/s)    =  -0                +/- 1.62e-10
# P''_topo (s/s^2) =  0                 +/- 7.36e-14
# P_bary (ms)      =  N/A
# P'_bary (s/s)    =  N/A
# P''_bary (s/s^2) =  N/A
# P_orb (s)        =  N/A
# asin(i)/c (s)    =  N/A
# eccentricity     =  N/A
# w (rad)          =  N/A
# T_peri           =  N/A
######################################################
   0  1418.1
   1  1433.156
   2  1148.57
   3  918.3151
   4  809.6339
   5  738.9155
   6  679.9371
   7  693.3144
   8  677.8366
   9  628.0095
  10  692.2509
  11  642.8759
  12  694.8552
  13  775.8431
  14  600.0316
  15  579.756
  16  587.6038
  17  701.5435
  18  629.1175
  19  647.0249
  20  563.12
  21  634.7227
  22  687.7014
  23  775.7068
  24  629.0163
  25  565.6473
  26  579.4609
  27  603.5225
  28  558.5126
  29  707.5081
  30  760.8579
  31  731.0265
  32  656.0906
  33  578.9087
  34  670.5804
  35  646.6747
  36  660.5057
  37  576.3658
  38  657.7499
  39  734.7078
  40  614.936
  41  609.0491
  42  673.7517
  43  659.4019
  44  729.4895
  45  729.0253
  46  567.2333
  47  553.6528
  48  575.8555
  49  535.1695
  50  572.7381
  51  656.2523
  52  719.8564
  53  685.1146
  54  562.6851
  55  622.4719
  56  620.7556
  57  670.092
  58  600.342
  59  606.2518
  60  613.3829
  61  680.3648
  62  651.4223
  63  646.5557
  64  688.5179
  65  659.5165
  66  684.6105
  67  693.4324
  68  771.5919
  69  691.5869
  70  604.3804
  71  706.5223
  72  606.0671
  73  535.9083
  74  610.1238
  75  676.3965
  76  600.2621
  77  680.5579
  78  666.006
  79  584.7731
  80  585.0577
  81  620.4901
  82  667.8812
  83  773.7843
  84  758.0522
  85  611.6214
  86  633.559
  87  693.5041
  88  770.4022
  89  546.3146
  90  454.9706
  91  594.3944
  92  699.2323
  93  660.5188
  94  620.9758
  95  661.4891
  96  641.1536
  97  514.3121
  98  660.1406
  99  655.9886
 100  622.3255
 101  716.972
 102  745.6923
 103  633.1426
 104  656.4139
 105  705.9906
 106  707.9323
 107  677.7729
 108  734.8431
 109  678.4366
 110  706.0411
 111  740.3177
 112  679.1624
 113  720.446
 114  751.0051
 115  695.1877
 116  623.6989
 117  668.9838
 118  682.0623
 119  794.2054
 120  752.3523
 121  670.0927
 122  584.4516
 123  554.5934
 124  553.0999
 125  548.0618
 126  519.5729
 127  534.3264
 128  654.3179
 129  648.934
 130  633.2373
 131  789.1301
 132  739.0374
 133  714.6388
 134  649.2642
 135  562.4176
 136  683.7882
 137  646.2263
 138  674.0392
 139  678.3705
 140  689.7558
 141  631.3348
 142  551.5596
 143  601.8916
 144  617.611
 145  514.2689
 146  691.8149
 147  736.0603
 148  715.9564
 149  722.1799
 150  638.0973
 151  753.3201
 152  692.0289
 153  596.8494
 154  578.2011
 155  616.1247
 156  601.6859
 157  540.1266
 158  624.0746
 159  605.7014
 160  655.8286
 161  602.1414
 162  613.0791
 163  626.866
 164  735.9749
 165  745.8932
 166  706.0042
 167  747.5296
 168  537.2871
 169  521.5622
 170  637.5278
 171  626.6128
 172  594.8356
 173  481.4089
 174  583.6099
 175  592.2371
 176  722.3447
 177  662.8387
 178  591.8264
 179  498.5428
 180  632.1829
 181  681.238
 182  602.3748
 183  730.5352
 184  698.7683
 185  611.2817
 186  528.4147
 187  499.0448
 188  450.6922
 189  615.8456
 190  650.1969
 191  609.3693
 192  622.6058
 193  654.558
 194  763.0714
 195  731.0592
 196  683.6085
 197  692.6678
 198  651.7899
 199  641.6565
 200  664.2551
 201  714.7079
 202  766.5939
 203  617.0824
 204  665.0009
 205  712.64
 206  714.9739
 207  739.6921
 208  731.8348
 209  582.8094
 210  540.5344
 211  597.2816
 212  629.6163
 213  700.7712
 214  725.2676
 215  647.9762
 216  556.5646
 217  599.439
 218  649.4785
 219  693.5479
 220  611.3231
 221  632.7814
 222  629.2892
 223  622.7035
 224  582.8217
 225  563.66
 226  587.5165
 227  616.3815
 228  512.7999
 229  557.0663
 230  609.0938
 231  692.2484
 232  750.4781
 233  654.4249
 234  596.7739
 235  494.3282
 236  548.0302
 237  595.7919
 238  579.8698
 239  628.0573
 240  612.1907
 241  571.3112
 242  506.8736
 243  579.5631
 244  614.9869
 245  644.813
 246  590.1295
 247  600.5052
 248  661.186
 249  546.8712
 250  590.9758
 251  648.054
 252  670.6737
 253  657.907
 254  679.8346
 255  644.8284
 256  538.862
 257  590.8654
 258  638.7648
 259  682.0327
 260  673.7585
 261  588.6074
 262  596.3207
 263  617.4
 264  590.8868
 265  584.4404
 266  617.6902
 267  632.886
 268  674.6715
 269  665.9568
 270  415.5289
 271  474.2452
 272  527.791
 273  533.3799
 274  524.0034
 275  585.426
 276  592.0512
 277  561.7679
 278  670.4703
 279  580.4565
 280  512.739
 281  616.2051
 282  625.6951
 283  556.6851
 284  677.1916
 285  661.3867
 286  603.9139
 287  645.28
 288  557.7578
 289  694.77
 290  621.4508
 291  547.6881
 292  590.832
 293  562.9946
 294  547.0733
 295  663.065
 296  695.4047
 297  622.4641
 298  620.2524
 299  584.1108
 300  524.5016
 301  470.8721
 302  583.3881
 303  647.8569
 304  683.7557
 305  583.6962
 306  630.0084
 307  602.84
 308  551.3982
 309  476.502
 310  590.3481
 311  494.67
 312  462.8291
 313  442.3532
 314  561.7173
 315  539.7535
 316  563.1532
 317  564.6287
 318  563.1074
 319  653.7736
 320  637.2723
 321  609.123
 322  637.9826
 323  583.6859
 324  694.178
 325  651.7509
 326  625.367
 327  567.1154
 328  540.2098
 329  626.672
 330  753.8182
 331  753.6423
 332  593.5016
 333  626.0062
 334  617.5397
 335  492.1594
 336  489.6831
 337  615.3401
 338  632.8571
 339  545.9998
 340  667.0991
 341  586.0251
 342  547.1671
 343  491.087
 344  622.2427
 345  677.8076
 346  538.8055
 347  484.924
 348  585.8774
 349  727.3773
 350  740.7288
 351  685.8751
 352  688.0966
 353  597.4484
 354  574.4008
 355  747.6561
 356  774.0931
 357  775.2411
 358  700.7158
 359  573.5175
 360  665.4835
 361  718.5118
 362  616.7215
 363  567.8193
 364  689.1464
 365  714.1751
 366  755.9699
 367  756.8787
 368  715.0787
 369  657.4076
 370  629.6505
 371  725.597
 372  707.6279
 373  610.458
 374  618.0942
 375  671.5169
 376  660.3283
 377  720.0304
 378  812.6298
 379  774.4572
 380  745.5648
 381  650.265
 382  706.3484
 383  628.7948
 384  670.3259
 385  620.9167
 386  596.1752
 387  623.3634
 388  723.2567
 389  559.8671
 390  655.7421
 391  713.7297
 392  704.1172
 393  756.4243
 394  595.6093
 395  674.9003
 396  763.8792
 397  685.7045
 398  581.3536
 399  563.1215
 400  602.9933
 401  665.075
 402  715.5778
 403  770.9461
 404  752.8271
 405  740.7943
 406  691.6535
 407  703.7778
 408  629.9158
 409  628.5649
 410  618.3478
 411  713.253
 412  729.1858
 413  631.8187
 414  733.4042
 415  767.6102
 416  709.6371
 417  696.9434
 418  716.3196
 419  767.4835
 420  828.045
 421  646.8235
 422  601.4777
 423  722.2048
 424  685.9158
 425  816.7808
 426  755.1804
 427  675.4652
 428  563.4285
 429  579.125
 430  589.9203
 431  597.9376
 432  747.801
 433  782.2886
 434  722.4738
 435  753.4373
 436  720.7278
 437  541.7248
 438  586.7737
 439  761.2114
 440  678.1605
 441  684.5356
 442  655.8864
 443  565.1793
 444  660.6347
 445  678.7495
 446  704.1035
 447  761.4225
 448  712.5486
 449  724.3275
 450  700.8244
 451  574.2823
 452  589.4272
 453  585.8262
 454  734.8805
 455  631.7797
 456  511.5065
 457  640.3093
 458  670.075
 459  711.543
 460  717.4395
 461  737.4081
 462  622.9984
 463  615.751
 464  608.9175
 465  551.479
 466  526.7692
 467  588.9749
 468  609.6562
 469  504.0283
 470  538.3604
 471  563.8673
 472  553.1673
 473  522.7719
 474  572.8092
 475  550.4706
 476  639.4483
 477  503.897
 478  559.8044
 479  617.5488
 480  563.3051
 481  622.7562
 482  630.4207
 483  675.0059
 484  494.1541
 485  389.3794
 486  585.8863
 487  573.3164
 488  612.7438
 489  498.2484
 490  518.8348
 491  489.1992
 492  637.8734
 493  632.805
 494  576.1658
 495  654.7447
 496  680.9165
 497  648.2857
 498  657.304
 499  639.4034
 500  610.3747
 501  624.5499
 502  783.1965
 503  682.4656
 504  658.6554
 505  639.8149
 506  704.4307
 507  830.4257
 508  1022.054
 509  1237.251
 510  1269.303
 511  1393.128
