# Input file       =  1210164609.112019_cleaned.dat
# Candidate        =  PSR_0332+5434
# Telescope        =  AR
# Epoch_topo       =  58250.535047592813
# Epoch_bary       =  N/A
# T_sample         =  0.002
# Data Folded      =  7340032
# Data Avg         =  0.10226569007604 
# Data StdDev      =  3.37438018090946 
# Profile Bins     =  1024
# Profile Avg      =  732.986903075829 
# Profile StdDev   =  285.688665205491 
# Reduced chi-sqr  =  1.283
# Prob(Noise)      <  1.96e-09   (~5.9 sigma)
# P_topo (ms)      =  714.536315634415  +/- 0.000409
# P'_topo (s/s)    =  -0                +/- 2.16e-10
# P''_topo (s/s^2) =  0                 +/- 9.53e-14
# P_bary (ms)      =  N/A
# P'_bary (s/s)    =  N/A
# P''_bary (s/s^2) =  N/A
# P_orb (s)        =  N/A
# asin(i)/c (s)    =  N/A
# eccentricity     =  N/A
# w (rad)          =  N/A
# T_peri           =  N/A
######################################################
   0  700.7114
   1  681.6992
   2  762.0896
   3  847.8658
   4  823.3924
   5  861.0167
   6  742.6384
   7  603.6985
   8  542.0479
   9  486.3314
  10  547.9013
  11  495.5687
  12  548.0027
  13  399.7261
  14  433.4491
  15  614.9412
  16  790.9735
  17  902.8178
  18  917.8645
  19  944.1338
  20  857.5048
  21  715.0504
  22  702.5349
  23  747.1859
  24  685.5026
  25  685.8541
  26  495.2816
  27  533.7371
  28  493.7598
  29  591.7437
  30  665.7686
  31  746.3898
  32  818.6981
  33  705.0675
  34  754.5669
  35  737.3478
  36  765.001
  37  605.4794
  38  564.8614
  39  584.8546
  40  663.106
  41  629.7545
  42  569.5676
  43  534.9339
  44  553.5091
  45  607.2343
  46  572.2414
  47  631.038
  48  633.7404
  49  762.5312
  50  704.0453
  51  667.9653
  52  546.9395
  53  511.533
  54  502.8635
  55  502.0649
  56  473.4307
  57  553.5091
  58  527.0621
  59  648.4022
  60  680.0857
  61  685.0068
  62  643.0193
  63  587.1296
  64  703.507
  65  751.9639
  66  650.671
  67  547.4857
  68  496.8608
  69  470.6605
  70  553.8265
  71  472.7331
  72  488.9125
  73  393.4939
  74  355.1653
  75  432.7725
  76  515.1938
  77  635.0916
  78  721.2388
  79  727.0955
  80  709.6818
  81  696.3682
  82  709.7371
  83  848.1157
  84  885.6894
  85  819.9088
  86  663.5914
  87  680.4479
  88  692.9285
  89  679.114
  90  701.312
  91  743.8394
  92  756.0919
  93  610.1446
  94  603.35
  95  701.0786
  96  810.3885
  97  755.8889
  98  643.969
  99  685.1213
 100  796.1851
 101  750.0125
 102  682.8842
 103  561.1084
 104  592.5239
 105  628.1092
 106  547.8557
 107  526.0376
 108  539.5237
 109  587.7299
 110  575.0367
 111  651.7936
 112  736.4008
 113  613.254
 114  467.4801
 115  492.2133
 116  554.1545
 117  668.5658
 118  588.6391
 119  611.8011
 120  563.3826
 121  677.1704
 122  740.5498
 123  793.4061
 124  803.8439
 125  777.8092
 126  691.231
 127  544.1984
 128  463.852
 129  421.3763
 130  384.3567
 131  405.7985
 132  468.5925
 133  535.2491
 134  525.0959
 135  475.3501
 136  543.5746
 137  652.902
 138  684.153
 139  739.1479
 140  700.5365
 141  811.6476
 142  830.0772
 143  933.4255
 144  778.2469
 145  693.0226
 146  597.4594
 147  598.1921
 148  562.4919
 149  554.4395
 150  509.5566
 151  641.1627
 152  757.221
 153  782.2123
 154  695.4779
 155  661.5056
 156  763.5726
 157  823.7814
 158  701.1496
 159  689.8659
 160  651.7154
 161  743.3823
 162  662.4486
 163  648.7943
 164  663.1687
 165  676.2056
 166  666.0638
 167  626.3634
 168  612.1773
 169  720.2387
 170  773.991
 171  827.1406
 172  761.5827
 173  665.8076
 174  592.5356
 175  612.0862
 176  647.1682
 177  653.4022
 178  732.0099
 179  771.8048
 180  772.6367
 181  693.0805
 182  766.246
 183  785.3367
 184  822.4792
 185  755.3029
 186  765.824
 187  717.2524
 188  697.3436
 189  692.5853
 190  769.3638
 191  746.1441
 192  754.717
 193  716.9637
 194  716.5261
 195  718.2529
 196  689.9999
 197  634.0252
 198  586.8623
 199  648.3697
 200  685.54
 201  661.7775
 202  631.5968
 203  664.7727
 204  745.3251
 205  761.7534
 206  751.8155
 207  781.5181
 208  815.173
 209  848.3835
 210  816.5562
 211  800.4089
 212  736.7047
 213  737.682
 214  675.5186
 215  731.0109
 216  770.3832
 217  850.6234
 218  885.2665
 219  860.6249
 220  707.0679
 221  618.9291
 222  645.7754
 223  669.4016
 224  657.8105
 225  614.0962
 226  733.679
 227  747.9127
 228  672.2834
 229  520.9275
 230  511.6405
 231  662.2658
 232  721.539
 233  695.5415
 234  685.0413
 235  721.099
 236  658.9343
 237  652.6183
 238  662.0134
 239  598.8629
 240  492.5956
 241  447.4352
 242  645.1762
 243  723.165
 244  693.3066
 245  557.106
 246  532.3946
 247  537.1625
 248  554.0751
 249  628.1427
 250  810.7352
 251  914.9696
 252  746.5786
 253  664.1052
 254  724.1187
 255  801.1832
 256  770.3005
 257  736.8076
 258  757.7165
 259  680.6262
 260  663.1778
 261  634.8178
 262  741.2366
 263  774.7942
 264  765.5791
 265  788.3391
 266  855.5008
 267  867.3378
 268  947.4928
 269  959.882
 270  983.7404
 271  948.3279
 272  838.4034
 273  679.3107
 274  608.4611
 275  630.3267
 276  669.1756
 277  760.9458
 278  906.5033
 279  1039.532
 280  1152.324
 281  1110.14
 282  978.3223
 283  843.3011
 284  857.8593
 285  805.1283
 286  678.0319
 287  660.6605
 288  645.9229
 289  607.801
 290  656.2505
 291  784.8638
 292  903.9493
 293  683.7549
 294  497.9177
 295  470.9525
 296  580.5896
 297  592.6949
 298  640.9238
 299  541.808
 300  420.2038
 301  352.7303
 302  463.9643
 303  479.7434
 304  570.9204
 305  520.1847
 306  478.1046
 307  401.0093
 308  460.846
 309  515.2109
 310  506.5389
 311  353.0534
 312  328.149
 313  410.5479
 314  496.2789
 315  448.2127
 316  469.258
 317  538.6715
 318  621.1605
 319  577.2251
 320  468.224
 321  392.6268
 322  377.9039
 323  515.2537
 324  596.0619
 325  608.5803
 326  479.3151
 327  562.2559
 328  783.5851
 329  737.4581
 330  565.4152
 331  452.9253
 332  466.6969
 333  583.1775
 334  606.4145
 335  667.5889
 336  582.622
 337  484.6687
 338  428.7133
 339  518.1386
 340  538.1385
 341  692.1302
 342  691.2797
 343  764.5069
 344  737.5313
 345  769.5633
 346  727.3222
 347  685.367
 348  646.6533
 349  724.6208
 350  719.3148
 351  677.6444
 352  619.0184
 353  416.5167
 354  389.6536
 355  483.798
 356  674.9069
 357  742.0422
 358  636.9683
 359  645.0349
 360  648.1808
 361  630.613
 362  505.4988
 363  400.196
 364  417.3178
 365  453.9588
 366  628.0197
 367  690.6644
 368  748.2609
 369  690.8214
 370  731.1564
 371  757.6992
 372  731.5586
 373  658.5186
 374  644.6166
 375  752.8456
 376  724.9929
 377  679.6406
 378  602.793
 379  646.1909
 380  643.3823
 381  648.2931
 382  671.6862
 383  694.9608
 384  672.8018
 385  745.4744
 386  756.1642
 387  832.2239
 388  764.0206
 389  773.0727
 390  684.5282
 391  667.1993
 392  748.0455
 393  756.5261
 394  699.3006
 395  628.6594
 396  715.3403
 397  785.8627
 398  829.7766
 399  873.4654
 400  828.8926
 401  775.2736
 402  741.7393
 403  822.6356
 404  763.6301
 405  690.4111
 406  623.4125
 407  628.3914
 408  649.063
 409  630.2726
 410  630.7862
 411  644.1165
 412  681.5249
 413  687.1954
 414  805.3561
 415  890.7191
 416  883.0033
 417  758.8516
 418  801.5662
 419  853.4053
 420  876.5201
 421  787.2742
 422  833.0761
 423  910.2794
 424  1036.722
 425  972.4991
 426  903.569
 427  721.0089
 428  728.7028
 429  717.268
 430  793.1437
 431  719.4592
 432  686.7029
 433  621.9493
 434  784.5612
 435  791.5466
 436  845.2583
 437  819.2984
 438  867.531
 439  868.2921
 440  968.0576
 441  920.7798
 442  861.6205
 443  868.1876
 444  919.5151
 445  826.689
 446  707.7626
 447  629.0309
 448  787.257
 449  765.1832
 450  771.7182
 451  771.0161
 452  803.8619
 453  892.054
 454  869.9561
 455  814.2726
 456  790.5272
 457  853.9438
 458  992.9371
 459  910.7142
 460  797.9484
 461  713.429
 462  665.9003
 463  716.3813
 464  716.9627
 465  705.752
 466  766.539
 467  758.2646
 468  817.5336
 469  860.0078
 470  1021.488
 471  1044.8
 472  998.1741
 473  975.7719
 474  865.4375
 475  804.7192
 476  666.1537
 477  706.424
 478  567.5255
 479  674.5107
 480  693.8717
 481  740.4635
 482  640.7025
 483  620.7103
 484  636.1429
 485  674.5702
 486  741.848
 487  826.1305
 488  920.3306
 489  913.6141
 490  898.1844
 491  805.7186
 492  852.884
 493  849.0821
 494  914.5264
 495  945.1332
 496  935.512
 497  777.3173
 498  650.8083
 499  705.4719
 500  766.6046
 501  854.8891
 502  878.1151
 503  863.2545
 504  742.6224
 505  704.9922
 506  670.8984
 507  793.2
 508  838.8153
 509  952.4149
 510  828.5715
 511  846.5825
 512  728.6948
 513  787.7834
 514  750.7513
 515  780.8773
 516  672.1056
 517  677.6942
 518  708.6372
 519  744.6768
 520  795.5764
 521  901.2551
 522  941.4635
 523  1035.079
 524  1018.674
 525  1012.395
 526  909.027
 527  837.6234
 528  805.4891
 529  843.4544
 530  837.3533
 531  775.5336
 532  726.5656
 533  692.2761
 534  814.0583
 535  853.21
 536  907.1603
 537  809.3797
 538  857.5673
 539  909.3207
 540  897.1479
 541  838.6364
 542  864.5999
 543  817.8478
 544  810.2399
 545  779.8556
 546  748.1416
 547  675.8597
 548  561.0479
 549  641.4464
 550  705.477
 551  755.2842
 552  726.2166
 553  756.8176
 554  785.4767
 555  782.3325
 556  749.6649
 557  825.2463
 558  910.9169
 559  959.0376
 560  954.5778
 561  902.4507
 562  895.5834
 563  823.1053
 564  748.1562
 565  702.8622
 566  719.6002
 567  714.6492
 568  774.5635
 569  723.455
 570  601.4503
 571  585.8116
 572  609.0663
 573  656.1124
 574  608.9264
 575  614.6873
 576  583.4772
 577  684.371
 578  743.9387
 579  747.405
 580  686.9353
 581  723.8477
 582  714.5209
 583  651.4137
 584  609.444
 585  581.4271
 586  627.3839
 587  674.7559
 588  644.3555
 589  805.2476
 590  1002.619
 591  1229.355
 592  1236.628
 593  1209.949
 594  1258.128
 595  1419.38
 596  1625.53
 597  1832.723
 598  1898.101
 599  1835.113
 600  1702.15
 601  1730.659
 602  1762.206
 603  1728.717
 604  1603.568
 605  1401.29
 606  1191.841
 607  1055.348
 608  1040.134
 609  978.4453
 610  854.3745
 611  802.8339
 612  740.7899
 613  618.2928
 614  628.4988
 615  669.6454
 616  773.2189
 617  782.6345
 618  724.9078
 619  694.3644
 620  555.0235
 621  575.1576
 622  593.8564
 623  751.2611
 624  791.5255
 625  772.6361
 626  761.647
 627  718.8493
 628  681.2444
 629  654.2032
 630  588.3556
 631  579.9194
 632  622.5398
 633  653.0681
 634  601.6814
 635  512.1844
 636  602.6198
 637  710.8792
 638  761.199
 639  685.0543
 640  668.8938
 641  668.907
 642  694.3466
 643  615.3143
 644  662.8359
 645  598.3486
 646  499.6472
 647  431.7582
 648  486.6802
 649  568.7104
 650  590.162
 651  653.3617
 652  600.5581
 653  460.317
 654  393.3263
 655  506.41
 656  659.2145
 657  681.8998
 658  635.8488
 659  529.642
 660  564.2988
 661  550.1479
 662  583.8515
 663  458.3055
 664  510.1971
 665  520.7113
 666  659.934
 667  726.8477
 668  730.6448
 669  673.4661
 670  712.3021
 671  667.1535
 672  675.0098
 673  681.9749
 674  785.863
 675  812.4221
 676  785.6675
 677  720.5875
 678  620.8602
 679  582.7811
 680  647.5927
 681  703.485
 682  694.0436
 683  589.8492
 684  580.86
 685  591.7196
 686  708.7023
 687  859.7983
 688  953.9484
 689  822.1994
 690  739.3065
 691  703.6597
 692  652.4011
 693  657.9594
 694  605.5175
 695  676.6899
 696  594.9501
 697  637.8008
 698  724.3099
 699  728.7975
 700  748.6638
 701  756.9845
 702  754.1932
 703  753.8201
 704  675.1497
 705  729.7123
 706  709.5647
 707  710.3566
 708  849.3594
 709  907.6608
 710  886.7706
 711  822.4899
 712  759.6465
 713  782.3929
 714  622.8588
 715  579.4297
 716  444.6357
 717  448.0476
 718  510.8163
 719  657.5541
 720  785.0141
 721  674.7865
 722  557.4185
 723  428.7397
 724  530.016
 725  688.0394
 726  703.0974
 727  678.1683
 728  625.4151
 729  638.9524
 730  467.6553
 731  469.6623
 732  395.5421
 733  485.7881
 734  522.8763
 735  684.822
 736  829.8447
 737  986.061
 738  847.6471
 739  741.6179
 740  555.7863
 741  629.6373
 742  708.7041
 743  735.884
 744  727.9414
 745  840.6528
 746  868.0748
 747  921.9583
 748  796.1479
 749  725.2189
 750  738.2283
 751  790.0505
 752  904.1539
 753  871.0944
 754  937.1321
 755  913.7799
 756  942.4802
 757  917.9205
 758  905.9193
 759  922.3458
 760  882.4205
 761  833.7853
 762  886.7435
 763  919.923
 764  889.3955
 765  843.1977
 766  907.3208
 767  930.7795
 768  921.1136
 769  862.932
 770  893.354
 771  858.2272
 772  889.5627
 773  916.437
 774  867.7078
 775  815.781
 776  871.1102
 777  862.9133
 778  820.1638
 779  799.3272
 780  945.907
 781  1026.014
 782  967.8941
 783  837.1696
 784  824.374
 785  907.7861
 786  1001.42
 787  1007.426
 788  988.3215
 789  990.8397
 790  1041.331
 791  1050.381
 792  1111.391
 793  1019.451
 794  990.5272
 795  845.8097
 796  828.0383
 797  824.3341
 798  802.4656
 799  734.5959
 800  782.9626
 801  850.0394
 802  980.8411
 803  972.7132
 804  935.9922
 805  901.2755
 806  971.4966
 807  1066.236
 808  1066.029
 809  943.0825
 810  968.5184
 811  979.0148
 812  964.2849
 813  952.9333
 814  927.6125
 815  968.4899
 816  1012.772
 817  1075.645
 818  1094.458
 819  985.3481
 820  891.7966
 821  862.0146
 822  955.9326
 823  990.0408
 824  996.3134
 825  950.4128
 826  952.5497
 827  989.1534
 828  991.473
 829  912.6371
 830  813.1789
 831  878.3326
 832  932.522
 833  920.337
 834  790.7163
 835  775.852
 836  779.3033
 837  904.2557
 838  1036.383
 839  1035.568
 840  1097.281
 841  1030.893
 842  981.298
 843  916.449
 844  840.7818
 845  829.0289
 846  720.6979
 847  830.0469
 848  800.6229
 849  789.1796
 850  731.1948
 851  741.5313
 852  809.9109
 853  853.995
 854  972.0778
 855  875.4686
 856  800.3627
 857  636.5128
 858  615.8911
 859  669.3162
 860  728.3629
 861  702.6564
 862  622.6185
 863  683.7875
 864  730.9396
 865  785.4962
 866  772.7864
 867  741.1974
 868  735.7644
 869  703.7038
 870  694.9533
 871  721.3444
 872  652.92
 873  588.306
 874  518.0359
 875  618.3514
 876  649.6649
 877  516.7542
 878  541.4267
 879  548.9677
 880  813.7793
 881  776.8166
 882  692.9455
 883  519.694
 884  550.485
 885  597.0096
 886  645.6034
 887  652.535
 888  681.6158
 889  678.3712
 890  748.8811
 891  693.3154
 892  693.9143
 893  498.4583
 894  484.2179
 895  606.7894
 896  715.4149
 897  689.4423
 898  614.715
 899  682.8984
 900  626.0562
 901  580.8469
 902  520.6702
 903  573.8054
 904  591.1595
 905  736.1893
 906  801.887
 907  702.405
 908  615.8124
 909  616.5803
 910  655.2082
 911  585.5446
 912  481.6104
 913  495.5317
 914  488.9229
 915  527.5032
 916  508.3065
 917  596.3448
 918  607.7869
 919  612.7173
 920  552.2187
 921  514.6995
 922  561.0333
 923  559.6767
 924  652.768
 925  752.8008
 926  790.9084
 927  716.9398
 928  584.0226
 929  595.8229
 930  647.4146
 931  615.4979
 932  489.6681
 933  423.3829
 934  469.8624
 935  527.243
 936  530.9097
 937  580.476
 938  709.9512
 939  858.3423
 940  873.1066
 941  839.9582
 942  795.3682
 943  775.6709
 944  850.6997
 945  935.6035
 946  1037.899
 947  1101.679
 948  1023.711
 949  787.7739
 950  646.4958
 951  619.1189
 952  662.1497
 953  667.1378
 954  741.0114
 955  771.5068
 956  797.9266
 957  835.856
 958  918.9733
 959  1007.505
 960  962.8336
 961  823.832
 962  813.6826
 963  880.8853
 964  944.4901
 965  992.1682
 966  1049.042
 967  1003.944
 968  852.9879
 969  800.9319
 970  739.1685
 971  755.814
 972  657.6055
 973  647.6389
 974  722.3615
 975  790.4697
 976  790.2082
 977  754.6198
 978  735.3719
 979  780.7155
 980  793.6876
 981  763.8024
 982  604.1594
 983  547.8716
 984  561.8579
 985  695.0768
 986  846.1672
 987  828.3713
 988  795.1315
 989  677.652
 990  629.3111
 991  639.9063
 992  758.6644
 993  801.7261
 994  726.4561
 995  670.356
 996  687.2346
 997  668.3734
 998  636.5377
 999  726.5677
1000  797.4625
1001  807.1983
1002  791.6342
1003  754.7068
1004  699.6506
1005  702.2099
1006  780.1483
1007  877.6367
1008  801.83
1009  705.3359
1010  628.2698
1011  759.6146
1012  735.1904
1013  755.7765
1014  683.2419
1015  741.5842
1016  801.7219
1017  923.3103
1018  972.7158
1019  882.2343
1020  662.604
1021  589.0782
1022  687.3477
1023  779.6263
