# Input file       =  1210063501.123266_cleaned.dat
# Candidate        =  PSR_0332+5434
# Telescope        =  AR
# Epoch_topo       =  58249.364816241505
# Epoch_bary       =  N/A
# T_sample         =  0.002
# Data Folded      =  7340032
# Data Avg         =  0.274844938577319
# Data StdDev      =  4.0339360244247  
# Profile Bins     =  1024
# Profile Avg      =  1969.51814144811 
# Profile StdDev   =  341.529328811915 
# Reduced chi-sqr  =  1.507
# Prob(Noise)      <  9.73e-24   (~10.0 sigma)
# P_topo (ms)      =  714.537105016677  +/- 0.000648
# P'_topo (s/s)    =  -0                +/- 3.42e-10
# P''_topo (s/s^2) =  0                 +/- 1.51e-13
# P_bary (ms)      =  N/A
# P'_bary (s/s)    =  N/A
# P''_bary (s/s^2) =  N/A
# P_orb (s)        =  N/A
# asin(i)/c (s)    =  N/A
# eccentricity     =  N/A
# w (rad)          =  N/A
# T_peri           =  N/A
######################################################
   0  1948.402
   1  1867.062
   2  1784.713
   3  1685.698
   4  1661.55
   5  1612.052
   6  1742.229
   7  1748.433
   8  1749.308
   9  1733.37
  10  1814.023
  11  1773.326
  12  1630.212
  13  1589.495
  14  1634.532
  15  1773.458
  16  1812.813
  17  1849.097
  18  1755.929
  19  1722.877
  20  1704.657
  21  1753.671
  22  1747.529
  23  1797.25
  24  1810.491
  25  1767.19
  26  1634.399
  27  1729.776
  28  1785.713
  29  1849.339
  30  1716.67
  31  1758.778
  32  1811.201
  33  1821.323
  34  1743.235
  35  1762.599
  36  1865.208
  37  1864.099
  38  1818.402
  39  1790.272
  40  1821.477
  41  2047.307
  42  2174.246
  43  2168.792
  44  2056.82
  45  1974.287
  46  1978.672
  47  1988.326
  48  1979.366
  49  1870.771
  50  1853.264
  51  2011.261
  52  2041.593
  53  1987.808
  54  1909.021
  55  1994.014
  56  2132.6
  57  2140.847
  58  2027.486
  59  1866.295
  60  1843.377
  61  1954.29
  62  2141.81
  63  2031.824
  64  1903.768
  65  1877.528
  66  1919.986
  67  1877.06
  68  1795.812
  69  1742.177
  70  1784.952
  71  1899.094
  72  1934.027
  73  1892.209
  74  1869.151
  75  1976.752
  76  2023.964
  77  1847.939
  78  1713.67
  79  1605.496
  80  1726.338
  81  1768.126
  82  1828.999
  83  1837.779
  84  1792.699
  85  1770.749
  86  1676.24
  87  1735.666
  88  1671.954
  89  1711.827
  90  1812.554
  91  1837.3
  92  1732.588
  93  1719.901
  94  1892.089
  95  2024.455
  96  1972.939
  97  1869.502
  98  1842.827
  99  1859.632
 100  1867.11
 101  1892.945
 102  1930.381
 103  1848.288
 104  1791.962
 105  1777.471
 106  1875.585
 107  1894.257
 108  1927.977
 109  2029.495
 110  2039.9
 111  2051.356
 112  2027.71
 113  2064.014
 114  2019.121
 115  1952.368
 116  1962.766
 117  1968.698
 118  1824.663
 119  1755.367
 120  1831.777
 121  2051.303
 122  2055.021
 123  1992.892
 124  2003.01
 125  2055.114
 126  1988.009
 127  1980.986
 128  1985.427
 129  2055.402
 130  2118.13
 131  2130.959
 132  2081.53
 133  1969.836
 134  1959.517
 135  2022.959
 136  2081.137
 137  2017.731
 138  2008.308
 139  2012.996
 140  2053.558
 141  2084.512
 142  2037.594
 143  2035.589
 144  1988.504
 145  1979.165
 146  1965.388
 147  1955.619
 148  1958.022
 149  1909.373
 150  1919.501
 151  1891.697
 152  1885.548
 153  1900.812
 154  1957.04
 155  1987.67
 156  1967.067
 157  1870.785
 158  1909.659
 159  2017.88
 160  2052.55
 161  1940.431
 162  1804.009
 163  1854.553
 164  1901.504
 165  1876.451
 166  1908.498
 167  1920.504
 168  1938.255
 169  1859.464
 170  1838.443
 171  1854.965
 172  1902.208
 173  1932.198
 174  1878.066
 175  1748.184
 176  1666.066
 177  1684.088
 178  1741.356
 179  1777.021
 180  1706.117
 181  1660.948
 182  1660.749
 183  1825.26
 184  1920.954
 185  1901.811
 186  1770.483
 187  1709.444
 188  1734.141
 189  1829.031
 190  2087.78
 191  2085.812
 192  2137.609
 193  1982.056
 194  2087.022
 195  1984.214
 196  2029.459
 197  2088.363
 198  2134.283
 199  2091.667
 200  2124.474
 201  2164.227
 202  2152.485
 203  2095.655
 204  2138.304
 205  2213.979
 206  2173.374
 207  2073.653
 208  2052.926
 209  2073.705
 210  2021.164
 211  1971.611
 212  1989.789
 213  2049.751
 214  2141.216
 215  2148.096
 216  2194.777
 217  2144.72
 218  2111.755
 219  2173.161
 220  2242.783
 221  2195.989
 222  2127.514
 223  2097.602
 224  2139.28
 225  2182.488
 226  2105.032
 227  1909.176
 228  1866.603
 229  1996.667
 230  2105.727
 231  2000.117
 232  1890.571
 233  1863.099
 234  1841.37
 235  1792.043
 236  1710.946
 237  1898.679
 238  2020.477
 239  2073.448
 240  1888.366
 241  1926.55
 242  2006.688
 243  2059.81
 244  2060.9
 245  2001.819
 246  2000.544
 247  1885.204
 248  1845.092
 249  1872.323
 250  1862.377
 251  1867.472
 252  1831.584
 253  1854.322
 254  1848.969
 255  1938.123
 256  1927.559
 257  1981.334
 258  1946.404
 259  2002.037
 260  2082.752
 261  2170.966
 262  2162.828
 263  2007.783
 264  1995.072
 265  2002.407
 266  2021.687
 267  1898.675
 268  1781.461
 269  1718.963
 270  1675.556
 271  1699.938
 272  1732.013
 273  1731.762
 274  1827.367
 275  1846.576
 276  1910.547
 277  1884.019
 278  1864.935
 279  1898.191
 280  1873.996
 281  1890.764
 282  1908.487
 283  1890.425
 284  1861.816
 285  1811.953
 286  1813.998
 287  1928.916
 288  1957.464
 289  1945.026
 290  1851.977
 291  1837.531
 292  1776.624
 293  1823.437
 294  1867.685
 295  1938.423
 296  1933.317
 297  2103.311
 298  2128.591
 299  2169.256
 300  2014.377
 301  2056.115
 302  2096.394
 303  2110.183
 304  2279.257
 305  2277.877
 306  2351.699
 307  2193.647
 308  2157.158
 309  2100.352
 310  2144.099
 311  2126.943
 312  2079.124
 313  2037.141
 314  2066.411
 315  2042.517
 316  2145.388
 317  2186.313
 318  2219.527
 319  2115.311
 320  2074.809
 321  2033.22
 322  2038.788
 323  2150.333
 324  2268.132
 325  2369.779
 326  2276.358
 327  2192.711
 328  2074.131
 329  2044.25
 330  2018.608
 331  1963.427
 332  1874.321
 333  1906.28
 334  1943.746
 335  2102.458
 336  2101.211
 337  2100.733
 338  2039.488
 339  2017.131
 340  2055.38
 341  2058.704
 342  2134.206
 343  2116.857
 344  2202.995
 345  2139.662
 346  2028.579
 347  1795.801
 348  1731.771
 349  1865.971
 350  1965.723
 351  2076.405
 352  2046.647
 353  2086.905
 354  2062.661
 355  2069.704
 356  2151.081
 357  2143.513
 358  2091.039
 359  2003.179
 360  2135.941
 361  2275.853
 362  2303.606
 363  2321.374
 364  2239.551
 365  2208.659
 366  2226.964
 367  2243.913
 368  2211.585
 369  2049.591
 370  2114.743
 371  2150.451
 372  2192.459
 373  2119.575
 374  2096.719
 375  2057.602
 376  2144.897
 377  2229.228
 378  2261.984
 379  2191.455
 380  2166.384
 381  2162.218
 382  2234.205
 383  2170.751
 384  2170.388
 385  2135.422
 386  2178.259
 387  2181.241
 388  2160.35
 389  2161.168
 390  2115.291
 391  2211.548
 392  2178.919
 393  2332.64
 394  2306.578
 395  2264.413
 396  2123.193
 397  2180.219
 398  2267.911
 399  2186.334
 400  2127.554
 401  2147.168
 402  2286.351
 403  2337.709
 404  2350.738
 405  2285.437
 406  2327.337
 407  2252.538
 408  2238.191
 409  2202.818
 410  2220.188
 411  2087.029
 412  2114.897
 413  2195.752
 414  2304.667
 415  2248.235
 416  2138.936
 417  2053.945
 418  2110.957
 419  2153.524
 420  2137.745
 421  2102.532
 422  2100.619
 423  2119.482
 424  2089.723
 425  2014.299
 426  1999.104
 427  2018.715
 428  2151.333
 429  2050.996
 430  1968.385
 431  1922.504
 432  1999.834
 433  1921.315
 434  1932.688
 435  2021.079
 436  2141.827
 437  2172.293
 438  2189.576
 439  2147.362
 440  2087.787
 441  2061.949
 442  2170.322
 443  2217.53
 444  2093.22
 445  2112.747
 446  2092.517
 447  2110.249
 448  1956.359
 449  1965.129
 450  1994.581
 451  2141.256
 452  2128.017
 453  2166.338
 454  2163.032
 455  2073.919
 456  2090.696
 457  2176.539
 458  2341.352
 459  2334.377
 460  2275.854
 461  2237.879
 462  2215.632
 463  2240.859
 464  2267
 465  2215.107
 466  2253.26
 467  2301.596
 468  2355.428
 469  2221.111
 470  2085.931
 471  2036.522
 472  2144.242
 473  2185.31
 474  2206.865
 475  2249.492
 476  2306.449
 477  2304.767
 478  2313.729
 479  2317.835
 480  2364.184
 481  2355.013
 482  2324.728
 483  2261.441
 484  2228.656
 485  2299.991
 486  2377.756
 487  2405.817
 488  2385.46
 489  2351.841
 490  2367.305
 491  2352.457
 492  2320.51
 493  2321.303
 494  2332.895
 495  2349.858
 496  2341.289
 497  2338.184
 498  2360.305
 499  2328.463
 500  2228.36
 501  2170.83
 502  2269.169
 503  2270.539
 504  2282.692
 505  2178.313
 506  2157.438
 507  2070.879
 508  1915.497
 509  1991.993
 510  2035.399
 511  2127.848
 512  2029.561
 513  1964.243
 514  2097.41
 515  2104.771
 516  2077.396
 517  1934.912
 518  1895.609
 519  1991.378
 520  1964.192
 521  1954.109
 522  1899.029
 523  1941.731
 524  1990.673
 525  2034.931
 526  2061.618
 527  1993.368
 528  1922.478
 529  1913.863
 530  1905.647
 531  1882.385
 532  1918.628
 533  1820.489
 534  1770.497
 535  1743.65
 536  1903.226
 537  1972.152
 538  1969.104
 539  1887.954
 540  1850.065
 541  1883.347
 542  1853.694
 543  1726.709
 544  1707.94
 545  1848.555
 546  2027.946
 547  2164.677
 548  2156.081
 549  2058.753
 550  1920.43
 551  2000.234
 552  2030.069
 553  1975.419
 554  1954.09
 555  2053.512
 556  2136.737
 557  2113.142
 558  2094.017
 559  2196.096
 560  2233.983
 561  2241.358
 562  2207.76
 563  2141.747
 564  2093.344
 565  2133.407
 566  2187.661
 567  2223.859
 568  2211.287
 569  2226.827
 570  2181.582
 571  2128.795
 572  2088.425
 573  2101.025
 574  2105.521
 575  2128.81
 576  2212.717
 577  2171.499
 578  2066.144
 579  2091.957
 580  2149.76
 581  2159.612
 582  2112.226
 583  2148.436
 584  2143.437
 585  2127.112
 586  2139.638
 587  2194.619
 588  2232.277
 589  2300.904
 590  2322.577
 591  2397.07
 592  2295.359
 593  2383.275
 594  2476.374
 595  2727.865
 596  2943.867
 597  3153.958
 598  3318.547
 599  3406.796
 600  3347.487
 601  3280.278
 602  3142.278
 603  3124.706
 604  2976.725
 605  2788.821
 606  2526.097
 607  2366.847
 608  2188.727
 609  2144.3
 610  2058.122
 611  2003.599
 612  1965.318
 613  2036.384
 614  2082.772
 615  2157.464
 616  2159.036
 617  2003.6
 618  1844.039
 619  1914.95
 620  2000.008
 621  2050.761
 622  1918.493
 623  1909.782
 624  1977.426
 625  2130.817
 626  2287.918
 627  2246.81
 628  2262.481
 629  2224.729
 630  2310.874
 631  2154.299
 632  2152.758
 633  2007.392
 634  2125.697
 635  2018.574
 636  1979.091
 637  1895.397
 638  1954.111
 639  2070.425
 640  2229.831
 641  2261.882
 642  2243.346
 643  2141.414
 644  2144.361
 645  2087.133
 646  2061.809
 647  2097.534
 648  2162.323
 649  2188.137
 650  2145.034
 651  2023.209
 652  2091.432
 653  2092.242
 654  2099.495
 655  1964.837
 656  2059.88
 657  2184.294
 658  2256.416
 659  2155.141
 660  2150.508
 661  2136.27
 662  2192.438
 663  1970.135
 664  1894.63
 665  1833.203
 666  1901.647
 667  1954.478
 668  2005.55
 669  2027.998
 670  2017.912
 671  1989.641
 672  1928.632
 673  1998.048
 674  2053.754
 675  2079.284
 676  2013.5
 677  2075.85
 678  2111.479
 679  2119.175
 680  2120.018
 681  2091.185
 682  2142.266
 683  2027.699
 684  2028.262
 685  2039.624
 686  2032.88
 687  2007.737
 688  2062.55
 689  2062.178
 690  2068.824
 691  2119.777
 692  2186.408
 693  2205.505
 694  2179.648
 695  2083.739
 696  2039.112
 697  2061.599
 698  2100.501
 699  2173.052
 700  2175.988
 701  2070.984
 702  1901.07
 703  1831.041
 704  1913.326
 705  1985.678
 706  2068.326
 707  2090.582
 708  2055.925
 709  2060.583
 710  1990.593
 711  1975.786
 712  1823.741
 713  1820.412
 714  1724.106
 715  1753.848
 716  1827.265
 717  1988.241
 718  2043.548
 719  1909.092
 720  1776.331
 721  1730.113
 722  1805.099
 723  1989.401
 724  2039.503
 725  2017.145
 726  1953.099
 727  2003.413
 728  1988.619
 729  1953.278
 730  1984.548
 731  2089.503
 732  2093.405
 733  1995.574
 734  1951.594
 735  2009.261
 736  2011.907
 737  1924.344
 738  1945.341
 739  2041.396
 740  2139.765
 741  2053.909
 742  1978.109
 743  1961.136
 744  1956.634
 745  1962.083
 746  1951.989
 747  1971.2
 748  2098.172
 749  2161.319
 750  2228.245
 751  2079.854
 752  2040.61
 753  1956.424
 754  1972.738
 755  1971.478
 756  1871.038
 757  1917.894
 758  1955.769
 759  2022.841
 760  1996.999
 761  1883.645
 762  1853.266
 763  1732.309
 764  1704.804
 765  1795.653
 766  1952.411
 767  2044.378
 768  2036.927
 769  1982.652
 770  1990.116
 771  1936.46
 772  1862.68
 773  1872.056
 774  1822.835
 775  1834.381
 776  1752.899
 777  1609.644
 778  1595.875
 779  1661.734
 780  1877.218
 781  1857.45
 782  1917.284
 783  1889.833
 784  1918.442
 785  1798.407
 786  1817.139
 787  1799.229
 788  1871.505
 789  1906.457
 790  1899.235
 791  1847.639
 792  1888.16
 793  1948.853
 794  1955.338
 795  1898.819
 796  1762.251
 797  1789.63
 798  1947.509
 799  1985.652
 800  1933.696
 801  1815.911
 802  1716.988
 803  1663.742
 804  1527.846
 805  1641.126
 806  1824.648
 807  1937.258
 808  1869.396
 809  1742.822
 810  1857.527
 811  1909.795
 812  1875.825
 813  1796.991
 814  1822.084
 815  1827.012
 816  1792.517
 817  1778.814
 818  1814.656
 819  1784.718
 820  1754.222
 821  1789.468
 822  1840.829
 823  1740.785
 824  1590.006
 825  1560.918
 826  1581.291
 827  1591.047
 828  1556.327
 829  1518.105
 830  1565.937
 831  1646.721
 832  1641.976
 833  1601.258
 834  1514.084
 835  1588.805
 836  1569.025
 837  1640.504
 838  1659.906
 839  1790.931
 840  1883.628
 841  1788.491
 842  1780.533
 843  1868.301
 844  1934.615
 845  1796.506
 846  1605.593
 847  1635.006
 848  1759.254
 849  1791.396
 850  1788.302
 851  1776.075
 852  1697.417
 853  1598.486
 854  1719.824
 855  1869.439
 856  1987.388
 857  1840.043
 858  1802.792
 859  1814.821
 860  1658.727
 861  1578.624
 862  1545.773
 863  1692.276
 864  1721.718
 865  1733.897
 866  1867.015
 867  1896.145
 868  1760.632
 869  1533.305
 870  1492.347
 871  1693.002
 872  1851.046
 873  1925.288
 874  2003.161
 875  2091.159
 876  2042.436
 877  1835.171
 878  1844.112
 879  1882.464
 880  2001.091
 881  1974.055
 882  1886.52
 883  1804.044
 884  1748.249
 885  1633.532
 886  1495.973
 887  1455.219
 888  1474.276
 889  1439.408
 890  1398.981
 891  1534.022
 892  1674.519
 893  1866.13
 894  1836.331
 895  1796.037
 896  1718.412
 897  1800.624
 898  1799.558
 899  1810.894
 900  1750.552
 901  1814.233
 902  1872.935
 903  1931.758
 904  1937.905
 905  1996.104
 906  1930.488
 907  1813.723
 908  1682.283
 909  1648.862
 910  1681.531
 911  1722.519
 912  1808.263
 913  1864.951
 914  1898.651
 915  1922.531
 916  1932.946
 917  1962.465
 918  1953.359
 919  1968.397
 920  1897.092
 921  1860.261
 922  1738.549
 923  1698.059
 924  1626.534
 925  1616.729
 926  1650.962
 927  1759.311
 928  1842.224
 929  1787.396
 930  1787.15
 931  1875.378
 932  1968.793
 933  1835.55
 934  1656.559
 935  1625.015
 936  1701.511
 937  1721.336
 938  1688.728
 939  1750.78
 940  1685.532
 941  1675.553
 942  1557.872
 943  1664.613
 944  1596.583
 945  1615.936
 946  1583.719
 947  1587.912
 948  1553.305
 949  1594.376
 950  1546.438
 951  1590.101
 952  1548.798
 953  1589.786
 954  1622.289
 955  1689.022
 956  1702.514
 957  1644.46
 958  1599.321
 959  1578.967
 960  1633.428
 961  1567.384
 962  1477.456
 963  1472.277
 964  1517.263
 965  1562.31
 966  1661.697
 967  1658.11
 968  1607.812
 969  1461.695
 970  1426.733
 971  1444.516
 972  1490.186
 973  1551.631
 974  1456.663
 975  1486.855
 976  1524.563
 977  1636.766
 978  1692.843
 979  1766.329
 980  1729.051
 981  1678.301
 982  1694.946
 983  1764.133
 984  1703.468
 985  1658.433
 986  1694.738
 987  1680.741
 988  1750.21
 989  1835.464
 990  1767.17
 991  1783.206
 992  1791.765
 993  1862.266
 994  1876.378
 995  1940.882
 996  1983.487
 997  1906.92
 998  1911.52
 999  1836.846
1000  1830.911
1001  1828.401
1002  1908.229
1003  2011.195
1004  1993.221
1005  1922.386
1006  1869.254
1007  1870.24
1008  1925.651
1009  1923.869
1010  1936.468
1011  1886.696
1012  1762.229
1013  1715.035
1014  1653.204
1015  1706.724
1016  1698.48
1017  1727.123
1018  1718.136
1019  1766.7
1020  1724.067
1021  1781.851
1022  1805.372
1023  1924.612
