# Input file       =  1210235853.118703_cleaned.dat
# Candidate        =  PSR_0332+5434
# Telescope        =  AR
# Epoch_topo       =  58251.359631003506
# Epoch_bary       =  N/A
# T_sample         =  0.002
# Data Folded      =  7340032
# Data Avg         =  -0.0443260948473635
# Data StdDev      =  1.00018033812217 
# Profile Bins     =  512
# Profile Avg      =  -635.769064025844
# Profile StdDev   =  119.754628807708 
# Reduced chi-sqr  =  0.889
# Prob(Noise)      <  0.966   (~0.0 sigma)
# P_topo (ms)      =  714.535183815307  +/- 0.000529
# P'_topo (s/s)    =  -0                +/- 2.79e-10
# P''_topo (s/s^2) =  0                 +/- 1.23e-13
# P_bary (ms)      =  N/A
# P'_bary (s/s)    =  N/A
# P''_bary (s/s^2) =  N/A
# P_orb (s)        =  N/A
# asin(i)/c (s)    =  N/A
# eccentricity     =  N/A
# w (rad)          =  N/A
# T_peri           =  N/A
######################################################
   0  -174.5223
   1  -268.5037
   2  -351.8684
   3  -579.0876
   4  -699.9506
   5  -646.033
   6  -563.6038
   7  -689.3193
   8  -708.1972
   9  -710.7003
  10  -721.076
  11  -699.6562
  12  -634.8347
  13  -599.5276
  14  -648.3741
  15  -688.6614
  16  -632.1354
  17  -621.9739
  18  -606.2263
  19  -628.9417
  20  -640.044
  21  -607.2981
  22  -546.1419
  23  -495.5167
  24  -552.4708
  25  -554.9594
  26  -561.1837
  27  -590.8337
  28  -643.2577
  29  -631.8764
  30  -588.2467
  31  -525.1136
  32  -620.6057
  33  -621.2762
  34  -588.127
  35  -506.4284
  36  -552.2109
  37  -549.484
  38  -550.8171
  39  -547.3873
  40  -506.0606
  41  -594.6451
  42  -580.0849
  43  -504.6006
  44  -556.1832
  45  -539.7233
  46  -641.3195
  47  -655.4528
  48  -607.7258
  49  -677.1251
  50  -663.748
  51  -645.4131
  52  -590.4926
  53  -638.7049
  54  -660.911
  55  -678.4044
  56  -689.8075
  57  -715.5715
  58  -617.4189
  59  -554.9936
  60  -543.2889
  61  -595.0979
  62  -560.4272
  63  -505.1353
  64  -597.8672
  65  -689.5312
  66  -704.6105
  67  -568.8154
  68  -626.4716
  69  -704.553
  70  -623.7145
  71  -613.4844
  72  -661.5386
  73  -641.6254
  74  -617.4874
  75  -596.8805
  76  -629.0326
  77  -650.3851
  78  -679.3216
  79  -621.5887
  80  -636.7385
  81  -708.7733
  82  -725.3391
  83  -681.1452
  84  -640.9659
  85  -595.4241
  86  -654.923
  87  -708.7515
  88  -714.8678
  89  -732.9542
  90  -714.1307
  91  -732.7866
  92  -713.9186
  93  -700.1766
  94  -686.5104
  95  -692.7561
  96  -774.3021
  97  -736.2091
  98  -771.305
  99  -743.0296
 100  -642.369
 101  -681.2925
 102  -722.6169
 103  -704.3535
 104  -655.1382
 105  -583.5153
 106  -636.8096
 107  -730.08
 108  -780.8752
 109  -693.057
 110  -703.2348
 111  -673.9809
 112  -670.295
 113  -688.2371
 114  -575.1146
 115  -564.0533
 116  -600.9238
 117  -607.2939
 118  -607.6731
 119  -602.5378
 120  -679.6086
 121  -589.5234
 122  -543.3445
 123  -587.1957
 124  -580.9301
 125  -538.1276
 126  -542.9092
 127  -562.2323
 128  -585.9731
 129  -595.2218
 130  -614.674
 131  -532.9947
 132  -532.145
 133  -644.173
 134  -585.8811
 135  -568.0193
 136  -664.1538
 137  -641.5667
 138  -629.8003
 139  -623.1657
 140  -573.4982
 141  -576.3659
 142  -593.5843
 143  -571.5635
 144  -546.2221
 145  -551.9551
 146  -485.351
 147  -464.4112
 148  -486.9957
 149  -515.0513
 150  -495.173
 151  -489.8063
 152  -554.7388
 153  -596.7329
 154  -487.1892
 155  -531.9658
 156  -570.6277
 157  -505.7988
 158  -567.2933
 159  -576.2411
 160  -595.6436
 161  -574.899
 162  -471.8661
 163  -517.7023
 164  -496.2916
 165  -462.1841
 166  -500.8312
 167  -469.896
 168  -506.4314
 169  -520.1835
 170  -458.6052
 171  -555.251
 172  -552.2014
 173  -558.5131
 174  -499.9487
 175  -518.6344
 176  -615.1343
 177  -558.5402
 178  -537.0289
 179  -552.7658
 180  -629.8839
 181  -526.3301
 182  -580.5327
 183  -661.287
 184  -663.8566
 185  -650.2083
 186  -650.6359
 187  -679.9165
 188  -615.8896
 189  -648.931
 190  -625.4655
 191  -609.8861
 192  -680.4515
 193  -657.8589
 194  -616.8428
 195  -579.3445
 196  -639.3041
 197  -695.7972
 198  -640.8113
 199  -670.0798
 200  -672.3003
 201  -646.6409
 202  -603.4432
 203  -681.3515
 204  -704.8623
 205  -745.9967
 206  -692.3412
 207  -603.8774
 208  -584.4459
 209  -626.6293
 210  -691.5963
 211  -691.1597
 212  -655.9734
 213  -716.7732
 214  -732.1848
 215  -735.7024
 216  -702.5679
 217  -765.0275
 218  -779.1011
 219  -799.4255
 220  -804.8028
 221  -756.8649
 222  -737.0856
 223  -640.8999
 224  -755.4354
 225  -761.3202
 226  -748.5164
 227  -747.2145
 228  -731.8913
 229  -717.8487
 230  -728.6955
 231  -734.9923
 232  -716.5853
 233  -750.4119
 234  -681.5856
 235  -722.3144
 236  -761.5099
 237  -709.176
 238  -703.7395
 239  -725.3427
 240  -739.4921
 241  -778.3799
 242  -761.0643
 243  -660.2844
 244  -632.2046
 245  -684.8254
 246  -677.5363
 247  -697.5839
 248  -734.4578
 249  -722.818
 250  -701.7436
 251  -709.8216
 252  -661.5383
 253  -715.7593
 254  -744.7878
 255  -652.345
 256  -633.1349
 257  -662.2092
 258  -709.0791
 259  -720.7252
 260  -668.9398
 261  -622.7454
 262  -561.2248
 263  -662.8475
 264  -698.1539
 265  -630.2953
 266  -636.3868
 267  -630.7528
 268  -588.5536
 269  -600.1902
 270  -657.4946
 271  -608.4091
 272  -641.1528
 273  -631.0563
 274  -648.4048
 275  -628.6509
 276  -567.2363
 277  -556.4258
 278  -566.6002
 279  -561.3051
 280  -543.9523
 281  -555.7279
 282  -557.1191
 283  -604.5259
 284  -663.8201
 285  -641.178
 286  -570.6267
 287  -544.0703
 288  -551.4975
 289  -551.4891
 290  -535.947
 291  -561.6312
 292  -567.9661
 293  -626.387
 294  -596.0264
 295  -620.6664
 296  -678.5014
 297  -685.1255
 298  -663.923
 299  -632.9877
 300  -693.9731
 301  -655.2339
 302  -647.5515
 303  -606.3648
 304  -665.8812
 305  -629.2721
 306  -657.0482
 307  -717.1234
 308  -685.9086
 309  -627.7587
 310  -617.9155
 311  -515.1761
 312  -652.221
 313  -715.6861
 314  -709.899
 315  -708.5763
 316  -626.8211
 317  -667.3843
 318  -662.4332
 319  -663.0679
 320  -629.1369
 321  -687.8026
 322  -679.5165
 323  -607.7965
 324  -565.6285
 325  -539.6204
 326  -620.0293
 327  -681.332
 328  -643.2515
 329  -566.8764
 330  -591.7839
 331  -590.4037
 332  -607.8359
 333  -578.588
 334  -540.4265
 335  -560.8638
 336  -586.8661
 337  -649.0311
 338  -653.1944
 339  -586.0401
 340  -614.2443
 341  -657.5261
 342  -678.3132
 343  -675.124
 344  -622.7441
 345  -680.8976
 346  -683.2573
 347  -650.824
 348  -694.2861
 349  -735.3625
 350  -705.6713
 351  -682.1386
 352  -721.7343
 353  -723.2702
 354  -648.6387
 355  -614.5379
 356  -607.5812
 357  -621.626
 358  -597.1562
 359  -634.7571
 360  -616.225
 361  -579.4625
 362  -624.2053
 363  -673.489
 364  -691.7687
 365  -664.8649
 366  -720.6649
 367  -608.7651
 368  -600.6507
 369  -628.2878
 370  -609.2684
 371  -547.6512
 372  -613.465
 373  -614.6136
 374  -596.4386
 375  -628.0314
 376  -670.4221
 377  -659.5583
 378  -637.6597
 379  -603.5347
 380  -609.7215
 381  -660.0104
 382  -686.8475
 383  -671.9889
 384  -679.3084
 385  -632.1818
 386  -747.635
 387  -762.072
 388  -732.5208
 389  -734.509
 390  -657.2403
 391  -643.904
 392  -684.8772
 393  -705.7629
 394  -715.6924
 395  -687.7891
 396  -718.6324
 397  -666.3898
 398  -677.4331
 399  -742.2689
 400  -802.0732
 401  -663.8318
 402  -629.4776
 403  -653.2117
 404  -616.0424
 405  -585.2641
 406  -679.146
 407  -659.332
 408  -622.5602
 409  -566.482
 410  -525.7642
 411  -489.3039
 412  -514.6197
 413  -541.2383
 414  -502.4257
 415  -468.7687
 416  -450.6099
 417  -549.1215
 418  -534.7136
 419  -548.8328
 420  -563.1721
 421  -605.0881
 422  -626.3304
 423  -619.0896
 424  -536.6569
 425  -624.4334
 426  -711.4745
 427  -690.9915
 428  -792.0231
 429  -736.8792
 430  -663.3618
 431  -658.2032
 432  -665.2826
 433  -737.5071
 434  -732.2934
 435  -743.3021
 436  -692.0011
 437  -607.1573
 438  -625.1511
 439  -736.5479
 440  -735.6368
 441  -700.0356
 442  -707.2259
 443  -715.8907
 444  -669.2572
 445  -741.6732
 446  -763.8011
 447  -703.7553
 448  -736.173
 449  -699.3067
 450  -656.8624
 451  -692.5442
 452  -648.9844
 453  -615.0226
 454  -617.4402
 455  -670.0804
 456  -639.348
 457  -629.9601
 458  -605.2679
 459  -657.4392
 460  -657.0166
 461  -620.94
 462  -627.6354
 463  -660.2153
 464  -691.2483
 465  -673.794
 466  -649.3525
 467  -683.3065
 468  -623.8836
 469  -640.7202
 470  -753.5285
 471  -754.9664
 472  -721.2296
 473  -599.9233
 474  -660.9842
 475  -703.8405
 476  -717.1818
 477  -758.8994
 478  -784.5836
 479  -740.3384
 480  -726.5776
 481  -733.5829
 482  -743.3211
 483  -690.7767
 484  -662.2385
 485  -726.2127
 486  -669.099
 487  -668.3948
 488  -721.1271
 489  -700.6595
 490  -687.4189
 491  -657.4539
 492  -670.2109
 493  -694.5257
 494  -694.1104
 495  -668.2258
 496  -696.9786
 497  -674.3448
 498  -647.1791
 499  -682.3026
 500  -717.9504
 501  -698.1064
 502  -651.7272
 503  -731.9496
 504  -684.5145
 505  -683.2568
 506  -615.3684
 507  -531.7193
 508  -407.1299
 509  -416.058
 510  -276.7023
 511  -138.9923
