# Input file       =  1210408190.122714_cleaned.dat
# Candidate        =  PSR_0332+5434
# Telescope        =  AR
# Epoch_topo       =  58253.354272253637
# Epoch_bary       =  N/A
# T_sample         =  0.002
# Data Folded      =  7340032
# Data Avg         =  0.135533390949214
# Data StdDev      =  4.54440841776603 
# Profile Bins     =  1024
# Profile Avg      =  971.318838256949 
# Profile StdDev   =  384.747984938158 
# Reduced chi-sqr  =  0.863
# Prob(Noise)      <  0.999   (~0.0 sigma)
# P_topo (ms)      =  714.533246923957  +/- 0.000565
# P'_topo (s/s)    =  -0                +/- 2.98e-10
# P''_topo (s/s^2) =  0                 +/- 1.32e-13
# P_bary (ms)      =  N/A
# P'_bary (s/s)    =  N/A
# P''_bary (s/s^2) =  N/A
# P_orb (s)        =  N/A
# asin(i)/c (s)    =  N/A
# eccentricity     =  N/A
# w (rad)          =  N/A
# T_peri           =  N/A
######################################################
   0  841.162
   1  874.1957
   2  871.3036
   3  963.2013
   4  931.6722
   5  908.1357
   6  817.5137
   7  909.9552
   8  983.6573
   9  964.7422
  10  881.9302
  11  758.8109
  12  677.5488
  13  823.3916
  14  872.5472
  15  910.1613
  16  766.6044
  17  810.8004
  18  849.5248
  19  849.1025
  20  870.2257
  21  854.7358
  22  831.7309
  23  764.2886
  24  703.7449
  25  864.3763
  26  910.3264
  27  946.1148
  28  983.1345
  29  993.1851
  30  902.7802
  31  814.1064
  32  889.7039
  33  851.7335
  34  835.9348
  35  832.9083
  36  811.981
  37  818.7303
  38  846.0921
  39  826.757
  40  783.72
  41  803.498
  42  839.9837
  43  869.2549
  44  934.1108
  45  881.0129
  46  844.5845
  47  791.2518
  48  880.6049
  49  896.6912
  50  872.4117
  51  714.3368
  52  676.5451
  53  733.9001
  54  853.6319
  55  906.5496
  56  908.9418
  57  831.1292
  58  807.8058
  59  768.7291
  60  834.923
  61  747.3178
  62  828.9874
  63  821.0325
  64  908.469
  65  801.6794
  66  618.0721
  67  537.9257
  68  582.9578
  69  716.8073
  70  766.6352
  71  811.5316
  72  948.5972
  73  984.7948
  74  1000.634
  75  898.7491
  76  935.7365
  77  968.2113
  78  1002.21
  79  849.6302
  80  850.8657
  81  746.1494
  82  701.9796
  83  624.7885
  84  731.8226
  85  917.6176
  86  1079.973
  87  1033.947
  88  994.9933
  89  888.7448
  90  875.8799
  91  874.9813
  92  857.4095
  93  854.5945
  94  818.2397
  95  843.3564
  96  784.5196
  97  749.4548
  98  758.9202
  99  820.7673
 100  801.4155
 101  729.6161
 102  740.5691
 103  852.7114
 104  877.5547
 105  913.5552
 106  817.4844
 107  778.0071
 108  718.8076
 109  810.0317
 110  810.9164
 111  794.3307
 112  725.1259
 113  793.004
 114  865.1617
 115  975.5378
 116  938.9268
 117  835.1879
 118  816.3753
 119  808.687
 120  935.4183
 121  885.5198
 122  936.9514
 123  825.566
 124  719.7627
 125  630.5081
 126  658.0769
 127  698.2208
 128  637.6239
 129  518.7654
 130  545.9222
 131  652.7291
 132  811.6802
 133  903.5217
 134  938.3038
 135  872.0876
 136  902.4284
 137  886.0787
 138  899.3676
 139  839.7021
 140  879.251
 141  942.9888
 142  981.7003
 143  981.1863
 144  892.7061
 145  917.2954
 146  900.1908
 147  1093.258
 148  1124.373
 149  1089.264
 150  1085.495
 151  1024.012
 152  946.5768
 153  846.4295
 154  815.6187
 155  868.8814
 156  871.7358
 157  849.9633
 158  818.8975
 159  761.3259
 160  745.524
 161  701.1129
 162  808.9698
 163  877.8468
 164  913.7551
 165  795.3381
 166  667.8489
 167  636.7419
 168  680.8444
 169  855.5715
 170  852.5401
 171  783.2103
 172  753.7562
 173  757.0051
 174  776.6277
 175  712.3132
 176  869.4245
 177  977.1373
 178  985.3132
 179  928.0938
 180  1003.14
 181  902.0753
 182  767.4893
 183  670.2529
 184  705.5515
 185  654.0309
 186  680.2717
 187  698.0989
 188  745.4131
 189  782.1163
 190  830.8406
 191  769.5217
 192  673.3715
 193  629.5714
 194  779.2902
 195  877.7438
 196  981.5071
 197  1081.84
 198  1070.937
 199  985.8896
 200  842.3451
 201  808.6601
 202  804.1287
 203  919.7349
 204  989.0581
 205  936.6934
 206  907.7438
 207  841.7172
 208  945.5342
 209  993.5739
 210  1092.841
 211  1049.376
 212  1016.002
 213  1042.394
 214  938.1456
 215  899.8737
 216  809.7901
 217  847.0093
 218  844.7017
 219  905.4072
 220  839.8077
 221  838.8148
 222  799.3428
 223  990.275
 224  1122.382
 225  1133.918
 226  985.1486
 227  921.9681
 228  983.4092
 229  963.2852
 230  907.0428
 231  866.0208
 232  885.4852
 233  952.202
 234  984.8101
 235  1172.549
 236  1219.219
 237  1144.526
 238  950.5229
 239  984.1094
 240  981.186
 241  946.9877
 242  1009.392
 243  1057.249
 244  1091.504
 245  1036.876
 246  1139.336
 247  1116.858
 248  1066.548
 249  982.4793
 250  945.1624
 251  920.9285
 252  879.0726
 253  924.577
 254  953.4878
 255  919.7194
 256  942.5273
 257  903.0857
 258  1013.466
 259  1079.615
 260  1141.57
 261  1092.229
 262  930.0212
 263  880.446
 264  859.1702
 265  925.3712
 266  989.7833
 267  1017.623
 268  985.8365
 269  861.3257
 270  929.9982
 271  1018.254
 272  1081.478
 273  1030.347
 274  951.8708
 275  924.663
 276  1070.498
 277  1186.9
 278  1270.468
 279  1228.503
 280  1282.855
 281  1341.748
 282  1350.961
 283  1336.083
 284  1286.846
 285  1398.066
 286  1322.953
 287  1194.514
 288  1090.296
 289  1077.46
 290  1145.693
 291  1189.052
 292  1174.096
 293  1160.176
 294  1171.428
 295  1179.127
 296  1164.115
 297  1103.731
 298  1132.704
 299  1152.365
 300  1263.446
 301  1325.422
 302  1240.336
 303  1223.11
 304  1141.789
 305  1089.192
 306  982.1307
 307  957.1207
 308  965.1418
 309  868.1648
 310  883.1591
 311  939.4865
 312  1036.093
 313  1062.768
 314  1071.036
 315  1034.165
 316  836.0737
 317  725.9617
 318  775.8195
 319  972.8517
 320  1010.495
 321  1018.388
 322  1024.162
 323  1005.3
 324  1049.007
 325  1114.678
 326  1087.304
 327  887.6372
 328  851.7628
 329  927.734
 330  1107.61
 331  1126.274
 332  1071.462
 333  1049.006
 334  1026.767
 335  1113.749
 336  1181.032
 337  1122.312
 338  966.7161
 339  928.6241
 340  992.751
 341  1091.149
 342  1045.398
 343  945.2018
 344  878.9227
 345  871.814
 346  833.9057
 347  782.0661
 348  812.6737
 349  890.9971
 350  907.6896
 351  801.1973
 352  853.6776
 353  892.2115
 354  915.7512
 355  883.5401
 356  930.0566
 357  955.3605
 358  1121.566
 359  1124.77
 360  1093.652
 361  1008.1
 362  931.1389
 363  956.8428
 364  1008.624
 365  1084.175
 366  1137.013
 367  1155.642
 368  1142.893
 369  1068.381
 370  1088.409
 371  1055.869
 372  1144.755
 373  1027.575
 374  1038.353
 375  1096.678
 376  1120.497
 377  1010.351
 378  845.6935
 379  827.8995
 380  784.9363
 381  785.3635
 382  802.9694
 383  909.2515
 384  1058.765
 385  1287.597
 386  1293.279
 387  1144.804
 388  977.805
 389  997.824
 390  1028.709
 391  846.0214
 392  737.9987
 393  803.3469
 394  931.5885
 395  859.4153
 396  770.2828
 397  815.6532
 398  912.8221
 399  878.3417
 400  846.3732
 401  763.2106
 402  777.6565
 403  802.9616
 404  807.9781
 405  808.3719
 406  802.0793
 407  840.7505
 408  923.4161
 409  885.8411
 410  877.6659
 411  863.8139
 412  964.7341
 413  940.1984
 414  990.614
 415  974.2016
 416  1016.944
 417  893.6295
 418  834.4579
 419  891.7173
 420  872.0399
 421  760.3878
 422  639.7413
 423  728.5284
 424  736.6668
 425  668.2373
 426  612.6111
 427  660.4308
 428  640.6865
 429  614.5708
 430  674.4293
 431  763.8327
 432  754.8359
 433  712.8192
 434  733.467
 435  666.3013
 436  524.0255
 437  491.2689
 438  581.6685
 439  707.3711
 440  656.5018
 441  684.0624
 442  647.7339
 443  713.0678
 444  656.2039
 445  603.3903
 446  703.4487
 447  799.9789
 448  817.0902
 449  803.1053
 450  874.3732
 451  897.0064
 452  959.465
 453  969.9321
 454  1002.474
 455  965.304
 456  1048.479
 457  1056.597
 458  1027.528
 459  945.1689
 460  786.792
 461  765.575
 462  864.6635
 463  929.8162
 464  1011.718
 465  1109.593
 466  1112.282
 467  1116.782
 468  1019.329
 469  914.6406
 470  935.2829
 471  780.2661
 472  822.3299
 473  789.3674
 474  904.2476
 475  820.0687
 476  789.0959
 477  789.8751
 478  830.4278
 479  876.1618
 480  1016.809
 481  1140.067
 482  1113.633
 483  1005.288
 484  940.9469
 485  1064.053
 486  1102.236
 487  1110.74
 488  1000.466
 489  852.1618
 490  850.9888
 491  862.3546
 492  1034.195
 493  981.1796
 494  999.5321
 495  985.6354
 496  1091.727
 497  1041.525
 498  1000.432
 499  1106.918
 500  1180.715
 501  1020.322
 502  857.3929
 503  871.6286
 504  841.8221
 505  789.6204
 506  681.6866
 507  732.8741
 508  859.6933
 509  946.4884
 510  907.8691
 511  981.8575
 512  994.0741
 513  981.3491
 514  892.391
 515  907.5879
 516  944.0099
 517  1076.225
 518  1060.121
 519  1034.978
 520  949.3154
 521  1043.68
 522  1096.68
 523  1089.718
 524  1029.957
 525  980.5795
 526  1047.569
 527  1115.421
 528  1034.987
 529  866.9042
 530  854.508
 531  824.8848
 532  940.1976
 533  1033.953
 534  1138.363
 535  1198.689
 536  1150.851
 537  1144.008
 538  1104.746
 539  1074.49
 540  1135.102
 541  1204.745
 542  1116.604
 543  1041.74
 544  952.9428
 545  912.0628
 546  959.941
 547  1037.483
 548  1162.429
 549  1151.881
 550  1110.322
 551  1113.065
 552  1077.999
 553  1036.278
 554  993.3798
 555  1008.6
 556  985.8374
 557  959.1738
 558  854.3197
 559  891.2383
 560  1036.144
 561  1196.539
 562  1200.649
 563  1075.058
 564  1139.776
 565  1294.274
 566  1329.02
 567  1332.8
 568  1308.915
 569  1256.782
 570  1145.973
 571  1156.899
 572  1082.915
 573  1117.891
 574  1138.733
 575  1222.962
 576  1218.073
 577  1136.252
 578  1048.387
 579  986.8008
 580  1043.487
 581  1194.532
 582  1200.499
 583  1117.609
 584  1030.237
 585  1039.089
 586  1178.177
 587  1280.774
 588  1266.409
 589  1237.25
 590  1295.502
 591  1480.516
 592  1520.512
 593  1498.576
 594  1454.75
 595  1705.323
 596  1980.976
 597  2210.116
 598  2278.021
 599  2205.272
 600  2297.63
 601  2257.172
 602  2128.87
 603  2022.898
 604  1939.967
 605  1831.757
 606  1575.264
 607  1467.457
 608  1379.023
 609  1287.933
 610  1263.809
 611  1215.162
 612  1109.061
 613  1102.717
 614  1185.559
 615  1329.348
 616  1268.096
 617  1287.787
 618  1327.653
 619  1315.456
 620  1362.394
 621  1400.728
 622  1348.09
 623  1270.085
 624  1222.054
 625  1334.542
 626  1306.406
 627  1413.27
 628  1526.915
 629  1487.071
 630  1305.052
 631  1207.12
 632  1064.815
 633  1058.088
 634  998.119
 635  1036.379
 636  1059.413
 637  1048.451
 638  1105.878
 639  1042.132
 640  1056.813
 641  1085.008
 642  1069.826
 643  1019.987
 644  973.3378
 645  955.2007
 646  1049.136
 647  992.3066
 648  933.9861
 649  845.5986
 650  850.4518
 651  923.5834
 652  932.4636
 653  947.9817
 654  942.3076
 655  1012.528
 656  1055.557
 657  984.8992
 658  978.6378
 659  917.8484
 660  992.7045
 661  1088.17
 662  1019.973
 663  968.5297
 664  933.3054
 665  1087.169
 666  1149.25
 667  1192.331
 668  1053.041
 669  928.6485
 670  964.5905
 671  1018.78
 672  1075.113
 673  1077.445
 674  1021.071
 675  918.871
 676  942.0076
 677  1038.527
 678  1068.293
 679  1085.779
 680  1086.837
 681  950.0198
 682  793.3727
 683  646.1273
 684  799.8937
 685  937.5439
 686  1083.014
 687  1046.404
 688  1116.101
 689  1120.587
 690  1072.232
 691  1057.078
 692  1121.587
 693  1185.522
 694  1140.733
 695  956.8547
 696  817.6678
 697  772.2632
 698  773.459
 699  840.7086
 700  935.2106
 701  1037.16
 702  1030.632
 703  1028.143
 704  984.7478
 705  969.445
 706  1013.641
 707  1028.561
 708  1168.566
 709  1191.259
 710  1212.055
 711  1095.746
 712  1129.45
 713  1143.851
 714  1175.488
 715  1181.201
 716  1132.595
 717  1077.624
 718  953.3094
 719  1066.049
 720  1084.457
 721  1066.117
 722  929.7567
 723  911.3872
 724  942.7372
 725  881.199
 726  747.1519
 727  675.6932
 728  739.6203
 729  832.9559
 730  901.0417
 731  828.4461
 732  779.0151
 733  815.7733
 734  758.981
 735  718.5107
 736  729.3104
 737  925.2453
 738  1059.22
 739  1172.854
 740  1173.371
 741  1196.187
 742  991.242
 743  863.2417
 744  914.5461
 745  1037.006
 746  1081.113
 747  1147.088
 748  1178.514
 749  1159.414
 750  1005.138
 751  991.8512
 752  1113.879
 753  1196.667
 754  1187.672
 755  1169.917
 756  1209.515
 757  1186.963
 758  1144.424
 759  1091.965
 760  1111.484
 761  941.465
 762  819.2236
 763  824.5917
 764  868.1628
 765  938.9761
 766  1029.628
 767  1040.051
 768  959.5705
 769  922.5613
 770  909.5811
 771  938.8953
 772  924.7761
 773  942.4928
 774  935.1936
 775  878.9094
 776  924.5466
 777  977.7892
 778  913.774
 779  849.9431
 780  827.08
 781  948.3609
 782  1015.503
 783  1027.813
 784  942.1843
 785  752.5522
 786  760.1956
 787  728.3933
 788  844.3345
 789  772.1609
 790  845.5929
 791  979.6282
 792  1035.503
 793  1037.165
 794  1067.552
 795  1127.856
 796  1088.099
 797  980.7829
 798  937.2458
 799  1041.804
 800  1024.022
 801  1023.401
 802  897.417
 803  944.2604
 804  953.4728
 805  917.3295
 806  1010.099
 807  1024.609
 808  1029.404
 809  987.3608
 810  955.1647
 811  949.0512
 812  948.7141
 813  1006.393
 814  1003.917
 815  927.1909
 816  895.1544
 817  1044.423
 818  1168.44
 819  1164.979
 820  971.5073
 821  841.2198
 822  839.5758
 823  893.2364
 824  943.5632
 825  961.5588
 826  995.7088
 827  1048.228
 828  1064.938
 829  1066.418
 830  1023.741
 831  976.1786
 832  969.1714
 833  941.9597
 834  917.8364
 835  788.7811
 836  862.4005
 837  880.522
 838  926.7582
 839  919.4074
 840  955.3118
 841  951.7054
 842  934.7437
 843  841.0024
 844  798.1891
 845  743.1812
 846  691.7008
 847  652.8399
 848  680.6935
 849  673.1132
 850  685.0452
 851  747.5718
 852  866.8641
 853  851.3354
 854  730.0715
 855  726.861
 856  792.8569
 857  853.7902
 858  882.226
 859  890.6175
 860  990.994
 861  960.8395
 862  995.2897
 863  933.6349
 864  867.2665
 865  820.68
 866  798.171
 867  934.4208
 868  928.8843
 869  992.2589
 870  959.9965
 871  1030.836
 872  1043.664
 873  1070.837
 874  1019.977
 875  958.007
 876  836.311
 877  756.8539
 878  799.6885
 879  928.8793
 880  1068.586
 881  1173.461
 882  1215.184
 883  1057.738
 884  1044.689
 885  971.6826
 886  1018.559
 887  922.3256
 888  959.1091
 889  1012.549
 890  972.7756
 891  859.1226
 892  728.1087
 893  809.9671
 894  900.7368
 895  1096.509
 896  1175.491
 897  1075.917
 898  951.1388
 899  895.137
 900  975.8674
 901  986.5106
 902  952.7678
 903  892.3304
 904  895.6849
 905  920.9117
 906  1048.868
 907  1086.667
 908  1053.593
 909  909.4869
 910  824.5427
 911  857.169
 912  851.387
 913  827.8496
 914  884.5884
 915  957.0266
 916  979.0813
 917  935.4888
 918  954.8673
 919  1013.362
 920  1087.041
 921  1086.861
 922  1023.713
 923  926.6094
 924  954.9327
 925  980.9342
 926  1001.814
 927  918.0111
 928  973.9045
 929  1108.762
 930  1252.723
 931  1180.84
 932  1072.42
 933  957.5215
 934  999.9255
 935  921.3689
 936  776.4717
 937  713.1417
 938  671.6729
 939  786.5222
 940  784.0514
 941  739.1689
 942  716.9299
 943  864.9337
 944  1016.832
 945  1031.631
 946  996.2968
 947  954.4303
 948  920.0802
 949  906.7787
 950  897.8432
 951  1006.634
 952  1083.601
 953  1136.701
 954  1018.935
 955  840.772
 956  886.8834
 957  1003.751
 958  1142.05
 959  1159.916
 960  1162.036
 961  1224.368
 962  1127.117
 963  1092.203
 964  1025.458
 965  934.59
 966  900.3274
 967  913.3268
 968  939.7045
 969  1033.616
 970  1083.329
 971  1049
 972  1018.756
 973  1028.1
 974  1206.965
 975  1208.92
 976  1099.388
 977  1007.433
 978  933.3309
 979  896.5895
 980  855.7679
 981  907.8051
 982  1010.165
 983  1130.008
 984  1130.569
 985  1190.341
 986  1157.431
 987  1029.013
 988  897.0985
 989  894.4064
 990  1076.53
 991  1073.968
 992  1017.414
 993  1065.197
 994  1205.375
 995  1143.376
 996  1148.06
 997  1174.582
 998  1079.159
 999  1008.792
1000  898.0774
1001  997.4307
1002  864.5921
1003  835.6234
1004  807.1622
1005  858.8754
1006  856.9667
1007  903.6075
1008  955.9302
1009  936.688
1010  960.4332
1011  924.914
1012  899.2996
1013  843.9837
1014  838.8439
1015  846.7115
1016  840.3062
1017  930.2099
1018  981.7988
1019  912.5198
1020  771.3118
1021  677.2771
1022  726.7497
1023  797.0695
