# Input file       =  1210595454.117564_cleaned.dat
# Candidate        =  PSR_0332+5434
# Telescope        =  AR
# Epoch_topo       =  58255.521679601436
# Epoch_bary       =  N/A
# T_sample         =  0.002
# Data Folded      =  7340032
# Data Avg         =  0.279093918173333
# Data StdDev      =  5.46745835108926 
# Profile Bins     =  256
# Profile Avg      =  8002.19533923289 
# Profile StdDev   =  925.794246437468 
# Reduced chi-sqr  =  1.249
# Prob(Noise)      <  0.00423   (~2.6 sigma)
# P_topo (ms)      =  714.531462539412  +/- 0.000214
# P'_topo (s/s)    =  -0                +/- 1.13e-10
# P''_topo (s/s^2) =  0                 +/- 4.98e-14
# P_bary (ms)      =  N/A
# P'_bary (s/s)    =  N/A
# P''_bary (s/s^2) =  N/A
# P_orb (s)        =  N/A
# asin(i)/c (s)    =  N/A
# eccentricity     =  N/A
# w (rad)          =  N/A
# T_peri           =  N/A
######################################################
   0  7085.328
   1  7555.762
   2  8306.275
   3  8308.432
   4  8797.994
   5  8578.699
   6  8409.586
   7  8497.835
   8  8359.637
   9  7896.943
  10  8700.009
  11  9931.025
  12  9961.157
  13  9203.762
  14  8479.579
  15  9675.503
  16  9549.815
  17  9170.754
  18  9370.845
  19  9016.73
  20  9037.993
  21  7468.035
  22  7547.174
  23  8195.124
  24  8875
  25  8661.818
  26  8721.114
  27  9418.713
  28  9914.669
  29  9590.433
  30  8702.106
  31  9366.913
  32  9697.611
  33  8924.655
  34  8115.306
  35  7679.184
  36  9382.517
  37  8766.757
  38  7877.4
  39  7078.996
  40  6899.159
  41  7400.702
  42  7140.061
  43  7407.903
  44  7631.999
  45  6779.815
  46  7189.429
  47  8386.466
  48  9309.997
  49  8538.423
  50  7643.999
  51  8368.238
  52  7924.787
  53  7626.246
  54  7171.758
  55  7492.067
  56  7626.815
  57  8400.427
  58  6920.429
  59  6331.186
  60  7617.023
  61  6971.667
  62  6835.834
  63  7046.182
  64  7353.274
  65  7510.398
  66  6993.633
  67  7559.263
  68  8004.238
  69  8002.532
  70  8247.977
  71  8076.409
  72  7828.104
  73  8088.248
  74  8292.046
  75  7323.053
  76  7660.59
  77  8588.519
  78  8912.647
  79  7693.951
  80  6651.849
  81  6952.899
  82  7327.034
  83  7182.5
  84  7164.244
  85  7901.522
  86  7561.366
  87  8071.26
  88  7758.026
  89  8025.94
  90  8576.874
  91  8946.61
  92  8450.69
  93  9187.455
  94  9598.907
  95  8832.083
  96  8706.633
  97  9417.604
  98  8547.693
  99  7220.664
 100  7981.678
 101  8569.342
 102  8129.491
 103  8078.958
 104  7532.514
 105  7027.754
 106  7201.934
 107  7988.547
 108  7876.082
 109  8034.729
 110  7398.182
 111  7927.785
 112  8976.292
 113  8190.978
 114  8305.465
 115  7926.983
 116  8043.723
 117  8109.257
 118  8804.17
 119  8593.826
 120  7711.746
 121  8077.989
 122  8452.466
 123  8195.719
 124  6870.336
 125  7839.483
 126  6850.952
 127  5808.066
 128  7101.433
 129  7321.519
 130  6858.846
 131  7254.914
 132  7620.549
 133  8194.709
 134  7742.235
 135  7954.252
 136  8077.559
 137  7472.283
 138  7744.602
 139  8271.68
 140  9611.937
 141  7619.132
 142  7585.498
 143  7057.968
 144  7640.494
 145  6573.52
 146  6093.715
 147  6673.269
 148  8392.791
 149  11662.29
 150  11691.77
 151  9030.068
 152  8579.78
 153  8990.658
 154  7595.357
 155  6986.596
 156  9261.315
 157  9629.982
 158  7537.55
 159  8131.908
 160  8281.25
 161  7698.813
 162  6708.209
 163  6897.71
 164  7804.121
 165  7125.491
 166  6492.529
 167  7596.732
 168  8066.927
 169  7939.089
 170  6427.976
 171  7156.758
 172  7685.804
 173  7316.015
 174  7560.103
 175  8193.105
 176  7602.89
 177  8257.391
 178  8332.718
 179  8284.118
 180  8917.52
 181  8455.616
 182  7161.143
 183  7395.394
 184  7545.446
 185  7629.969
 186  6102.589
 187  6465.232
 188  7696.45
 189  7515.17
 190  7033.314
 191  7220.444
 192  7198.704
 193  7407.913
 194  7603.416
 195  7887.316
 196  8776.748
 197  8811.124
 198  8005.859
 199  8928.431
 200  9139.551
 201  8786.748
 202  8846.969
 203  9428.166
 204  7453.155
 205  7696.256
 206  7531.307
 207  7073.072
 208  6346.829
 209  6672.349
 210  7012.081
 211  6854.678
 212  6669.18
 213  7247.558
 214  7356.818
 215  7107.714
 216  7233.29
 217  8070.184
 218  8380.752
 219  8760.286
 220  8855.848
 221  8879.983
 222  8448.31
 223  8884.543
 224  8524.836
 225  9323.629
 226  9144.88
 227  7959.625
 228  7195.039
 229  7243.103
 230  8038.6
 231  8469.322
 232  7780.999
 233  7568.215
 234  7902.964
 235  8180.423
 236  7706.749
 237  7156.962
 238  7958.496
 239  8499.46
 240  7672.285
 241  7652.145
 242  8593.16
 243  9088.412
 244  9209.387
 245  9567.037
 246  9438.546
 247  9463.26
 248  8686.925
 249  7529.788
 250  8072.624
 251  6883.139
 252  6974.131
 253  6919.695
 254  7642.5
 255  7375.333
