# Input file       =  1210048853.110351_cleaned.dat
# Candidate        =  PSR_0332+5434
# Telescope        =  AR
# Epoch_topo       =  58249.195279054991
# Epoch_bary       =  N/A
# T_sample         =  0.002
# Data Folded      =  7208960
# Data Avg         =  0.0650359557938261
# Data StdDev      =  1.00009245347714 
# Profile Bins     =  512
# Profile Avg      =  915.642543805543 
# Profile StdDev   =  118.670146246928 
# Reduced chi-sqr  =  2.516
# Prob(Noise)      <  2.29e-68   (~17.4 sigma)
# P_topo (ms)      =  714.537254982324  +/- 8.97e-05
# P'_topo (s/s)    =  -0                +/- 4.82e-11
# P''_topo (s/s^2) =  0                 +/- 2.17e-14
# P_bary (ms)      =  N/A
# P'_bary (s/s)    =  N/A
# P''_bary (s/s^2) =  N/A
# P_orb (s)        =  N/A
# asin(i)/c (s)    =  N/A
# eccentricity     =  N/A
# w (rad)          =  N/A
# T_peri           =  N/A
######################################################
   0  888.9812
   1  916.8181
   2  1091.946
   3  1079.187
   4  999.3653
   5  1031.007
   6  1066.87
   7  974.254
   8  1043.812
   9  1097.264
  10  1061.073
  11  973.1048
  12  937.7285
  13  851.2494
  14  826.715
  15  880.6772
  16  870.2532
  17  865.7485
  18  1001.918
  19  1046.404
  20  992.2913
  21  932.9752
  22  929.3694
  23  852.5082
  24  804.4926
  25  867.2291
  26  778.7838
  27  868.1144
  28  974.9299
  29  1045.083
  30  1030.062
  31  966.2618
  32  853.3172
  33  773.4608
  34  770.4939
  35  840.9343
  36  1007.466
  37  1040.464
  38  1046.225
  39  876.7826
  40  766.5871
  41  717.2394
  42  709.1067
  43  830.1812
  44  899.783
  45  953.1429
  46  787.111
  47  786.2186
  48  878.0511
  49  848.1885
  50  842.2751
  51  924.3276
  52  1031.817
  53  955.6157
  54  830.4852
  55  955.0905
  56  935.3303
  57  800.4556
  58  847.5968
  59  792.6636
  60  857.8901
  61  896.6144
  62  1039.141
  63  983.0232
  64  1014.154
  65  930.6734
  66  814.3837
  67  817.1393
  68  857.9268
  69  1024.233
  70  990.1028
  71  884.3533
  72  917.1638
  73  842.9212
  74  861.8688
  75  882.5124
  76  918.1229
  77  857.8775
  78  883.4149
  79  951.0983
  80  943.5849
  81  918.3586
  82  847.7167
  83  953.2143
  84  970.7335
  85  940.0534
  86  922.0343
  87  952.2012
  88  927.4781
  89  865.0701
  90  824.4825
  91  784.3381
  92  802.2964
  93  864.077
  94  902.4259
  95  909.1213
  96  848.7505
  97  859.1043
  98  975.3923
  99  889.999
 100  870.2797
 101  787.1055
 102  799.7136
 103  773.1617
 104  782.8594
 105  830.8851
 106  846.6123
 107  848.758
 108  822.0944
 109  865.2861
 110  859.0404
 111  917.7883
 112  747.0131
 113  810.4544
 114  880.7975
 115  715.7354
 116  778.8865
 117  774.9535
 118  872.4766
 119  943.4049
 120  953.4751
 121  869.9044
 122  747.6365
 123  757.3287
 124  807.5034
 125  780.1393
 126  784.9316
 127  815.868
 128  798.0928
 129  729.4532
 130  709.5352
 131  692.1226
 132  674.0217
 133  639.4488
 134  718.9131
 135  833.1332
 136  856.2993
 137  926.9918
 138  948.1677
 139  834.5988
 140  664.3184
 141  605.6046
 142  731.7791
 143  793.4106
 144  813.6351
 145  971.3598
 146  850.1176
 147  799.5972
 148  749.9537
 149  746.572
 150  887.2151
 151  798.7431
 152  858.6927
 153  953.5551
 154  1025.757
 155  947.5468
 156  874.7253
 157  800.1871
 158  787.4717
 159  881.418
 160  848.4712
 161  873.9846
 162  898.2162
 163  893.374
 164  921.5911
 165  792.0427
 166  763.753
 167  850.7919
 168  913.8084
 169  779.3022
 170  850.916
 171  821.21
 172  830.3425
 173  910.603
 174  841.2385
 175  810.0901
 176  843.4502
 177  870.6788
 178  820.8006
 179  767.8136
 180  813.2285
 181  855.7386
 182  894.5015
 183  778.1647
 184  794.038
 185  891.8413
 186  835.1858
 187  796.6153
 188  739.3705
 189  687.8279
 190  728.8517
 191  890.1514
 192  872.5625
 193  883.5137
 194  920.2935
 195  944.309
 196  928.491
 197  883.3633
 198  809.9831
 199  812.5789
 200  863.6958
 201  840.6483
 202  885.6489
 203  992.6948
 204  934.3875
 205  859.7914
 206  899.738
 207  941.8817
 208  809.6152
 209  790.5676
 210  1028.066
 211  916.0694
 212  1011.724
 213  1077.005
 214  982.2786
 215  823.8086
 216  789.0554
 217  847.9656
 218  940.103
 219  931.4088
 220  892.6486
 221  808.5767
 222  842.1978
 223  713.152
 224  739.7497
 225  760.7598
 226  819.2369
 227  894.8527
 228  884.8217
 229  815.1198
 230  873.7053
 231  849.7304
 232  791.7387
 233  884.0492
 234  1013.22
 235  964.9983
 236  947.7791
 237  939.2325
 238  876.9664
 239  867.1846
 240  939.1048
 241  903.95
 242  867.2279
 243  923.2183
 244  957.4659
 245  837.9713
 246  758.8591
 247  850.2329
 248  947.9393
 249  903.4593
 250  869.6873
 251  908.6517
 252  773.6052
 253  903.6186
 254  868.2354
 255  734.2784
 256  676.8686
 257  784.422
 258  845.7534
 259  794.6428
 260  891.7875
 261  872.3663
 262  901.1668
 263  861.8312
 264  850.106
 265  748.271
 266  694.4056
 267  824.9001
 268  936.2643
 269  824.2138
 270  715.5162
 271  622.9449
 272  637.5342
 273  778.3618
 274  838.1926
 275  862.2337
 276  885.2015
 277  871.6548
 278  789.9663
 279  808.1747
 280  851.5356
 281  794.0477
 282  827.6616
 283  801.9433
 284  834.7868
 285  800.855
 286  788.5439
 287  813.4566
 288  822.9643
 289  780.6625
 290  740.9448
 291  776.9299
 292  724.4888
 293  730.5063
 294  813.3726
 295  852.9869
 296  856.4326
 297  801.593
 298  855.6674
 299  827.4435
 300  864.2056
 301  910.053
 302  814.0417
 303  865.9406
 304  925.7328
 305  820.2046
 306  775.329
 307  740.6332
 308  790.9995
 309  781.6502
 310  884.4383
 311  934.9945
 312  734.3932
 313  729.97
 314  700.9514
 315  753.2032
 316  840.8738
 317  824.7089
 318  749.8589
 319  794.9808
 320  769.0174
 321  752.9057
 322  751.3568
 323  764.7356
 324  781.4134
 325  934.1197
 326  965.1082
 327  893.9635
 328  820.6906
 329  924.9603
 330  1002.02
 331  881.3169
 332  855.8091
 333  866.0201
 334  931.2177
 335  900.3092
 336  844.5062
 337  814.4849
 338  840.2484
 339  896.8587
 340  867.0953
 341  827.7721
 342  923.6602
 343  1022.451
 344  978.9431
 345  870.5922
 346  956.4272
 347  992.6382
 348  865.0737
 349  961.0963
 350  949.4343
 351  924.8524
 352  938.551
 353  1011.887
 354  1029.958
 355  949.9167
 356  1109.252
 357  1092.466
 358  950.5421
 359  958.4924
 360  1008.043
 361  982.215
 362  874.1296
 363  780.9429
 364  879.5834
 365  916.1058
 366  1034.689
 367  959.344
 368  1065.507
 369  973.6644
 370  929.1753
 371  897.3465
 372  958.551
 373  1059.809
 374  1100.094
 375  1113.415
 376  1123.842
 377  1122.782
 378  1070.364
 379  1005.028
 380  962.9493
 381  934.2709
 382  995.3793
 383  1088.191
 384  1155.65
 385  1158.939
 386  970.1141
 387  888.5317
 388  972.5585
 389  939.4005
 390  986.4807
 391  1048.11
 392  1101.337
 393  1038.177
 394  913.0027
 395  865.7339
 396  868.02
 397  836.9588
 398  1034.025
 399  1113.169
 400  975.2841
 401  1080.784
 402  1124.285
 403  1122.754
 404  1045.245
 405  972.6364
 406  1108.434
 407  1073.562
 408  1038.267
 409  1115.294
 410  1119.87
 411  1077.311
 412  982.0929
 413  968.1517
 414  1071.824
 415  1048.243
 416  1056.088
 417  1089.186
 418  1090.964
 419  1018.652
 420  928.0854
 421  996.2159
 422  1049.865
 423  1039.579
 424  1052.69
 425  1057.469
 426  969.8999
 427  916.8073
 428  1008.47
 429  1116.5
 430  964.4069
 431  1064.565
 432  1167.025
 433  1103.735
 434  972.9561
 435  1004.178
 436  938.6522
 437  921.6786
 438  876.0196
 439  987.3672
 440  1042.061
 441  1002.176
 442  968.6375
 443  971.7038
 444  977.105
 445  953.066
 446  1011.848
 447  1063.235
 448  1092.22
 449  1026.727
 450  992.7809
 451  996.5217
 452  946.3761
 453  866.2924
 454  900.1587
 455  912.1
 456  988.2006
 457  1063.951
 458  1064.093
 459  1049.786
 460  879.2297
 461  932.9961
 462  949.2303
 463  1006.675
 464  1048.107
 465  1061.86
 466  1111.342
 467  1156.104
 468  1093.374
 469  1099.418
 470  830.0252
 471  885.1603
 472  928.942
 473  1015.471
 474  1124.864
 475  1096.526
 476  1000.34
 477  903.3037
 478  882.5904
 479  909.3203
 480  946.0948
 481  1008.515
 482  1041.321
 483  1066.373
 484  1044.981
 485  1073.561
 486  948.8097
 487  1010.765
 488  1027.743
 489  946.5143
 490  1021.701
 491  1144.994
 492  1190.46
 493  1133.165
 494  1012.993
 495  954.0444
 496  1045.507
 497  983.056
 498  1092.213
 499  1191.382
 500  1181.248
 501  1289.236
 502  1321.368
 503  1551.886
 504  1720.309
 505  1793.693
 506  1733.384
 507  1548.815
 508  1311.917
 509  1015.517
 510  858.399
 511  856.5143
