# Input file       =  1210681615.114721_cleaned.dat
# Candidate        =  PSR_0332+5434
# Telescope        =  AR
# Epoch_topo       =  58256.518913364824
# Epoch_bary       =  N/A
# T_sample         =  0.002
# Data Folded      =  7340032
# Data Avg         =  0.0401129036827987
# Data StdDev      =  1.00012500261045 
# Profile Bins     =  512
# Profile Avg      =  575.052236672913 
# Profile StdDev   =  119.748003318871 
# Reduced chi-sqr  =  1.367
# Prob(Noise)      <  6.04e-08   (~5.3 sigma)
# P_topo (ms)      =  714.530483831504  +/- 0.000241
# P'_topo (s/s)    =  -0                +/- 1.27e-10
# P''_topo (s/s^2) =  0                 +/- 5.6e-14
# P_bary (ms)      =  N/A
# P'_bary (s/s)    =  N/A
# P''_bary (s/s^2) =  N/A
# P_orb (s)        =  N/A
# asin(i)/c (s)    =  N/A
# eccentricity     =  N/A
# w (rad)          =  N/A
# T_peri           =  N/A
######################################################
   0  601.436
   1  608.829
   2  666.5507
   3  699.9581
   4  751.9987
   5  789.1839
   6  723.8658
   7  936.2702
   8  1115.491
   9  1148.913
  10  1283.63
  11  1167.352
  12  945.4456
  13  743.5325
  14  563.5251
  15  457.8826
  16  464.8513
  17  480.1817
  18  500.2185
  19  580.6384
  20  668.9185
  21  554.8847
  22  576.3557
  23  634.7342
  24  670.8743
  25  667.4918
  26  619.9296
  27  702.0772
  28  629.9242
  29  621.9648
  30  747.6397
  31  725.2642
  32  588.5577
  33  582.3051
  34  565.3467
  35  594.3176
  36  657.1172
  37  595.4667
  38  466.3812
  39  529.4086
  40  441.8478
  41  521.2873
  42  604.5121
  43  556.5422
  44  582.1302
  45  566.2024
  46  592.6067
  47  561.9236
  48  587.8862
  49  577.1092
  50  572.2193
  51  577.528
  52  718.7386
  53  695.3726
  54  523.1712
  55  462.9258
  56  597.012
  57  583.3962
  58  481.925
  59  390.8539
  60  504.4217
  61  553.4295
  62  642.9819
  63  620.8795
  64  481.3796
  65  465.7621
  66  469.5007
  67  494.696
  68  509.39
  69  572.3004
  70  493.0191
  71  463.1917
  72  603.6563
  73  532.5581
  74  555.0714
  75  448.1884
  76  512.3417
  77  642.405
  78  440.9379
  79  406.4238
  80  446.1569
  81  498.9081
  82  538.7081
  83  630.9516
  84  696.72
  85  542.6288
  86  522.7478
  87  529.6947
  88  504.7241
  89  613.3277
  90  497.0101
  91  552.5316
  92  554.0527
  93  562.2409
  94  525.7026
  95  559.2625
  96  493.1035
  97  549.6725
  98  556.818
  99  505.3329
 100  430.1736
 101  446.5211
 102  574.5184
 103  620.9171
 104  639.5001
 105  665.8506
 106  627.4487
 107  599.1174
 108  589.8466
 109  689.3126
 110  736.1859
 111  707.4105
 112  700.5672
 113  668.6627
 114  679.3301
 115  709.1799
 116  814.3999
 117  634.5889
 118  576.6147
 119  656.4195
 120  622.9653
 121  708.8746
 122  712.804
 123  745.8123
 124  682.2903
 125  638.9064
 126  649.5505
 127  559.4535
 128  573.448
 129  586.7065
 130  643.0752
 131  686.4615
 132  677.2291
 133  610.7349
 134  607.0813
 135  518.321
 136  491.2029
 137  483.3414
 138  527.2734
 139  550.2366
 140  519.4451
 141  500.8307
 142  416.4164
 143  522.437
 144  586.4288
 145  499.4294
 146  453.4146
 147  482.4253
 148  476.1852
 149  470.5375
 150  562.3176
 151  560.6282
 152  457.6942
 153  650.2607
 154  610.3325
 155  561.7914
 156  527.1082
 157  604.4739
 158  445.1358
 159  373.4267
 160  565.7773
 161  626.3666
 162  611.1069
 163  579.5751
 164  624.6733
 165  570.4663
 166  488.541
 167  489.3544
 168  511.567
 169  462.8521
 170  401.1428
 171  531.5931
 172  467.8611
 173  519.1141
 174  579.4476
 175  583.6667
 176  466.5231
 177  430.3753
 178  455.9281
 179  525.3348
 180  509.1565
 181  420.5755
 182  437.7361
 183  489.1885
 184  529.8392
 185  476.5536
 186  499.7927
 187  497.0493
 188  501.2999
 189  420.6494
 190  464.1779
 191  559.7175
 192  495.7054
 193  500.4122
 194  553.9589
 195  501.0912
 196  491.7375
 197  620.5336
 198  677.4513
 199  667.845
 200  768.088
 201  587.6626
 202  540.7498
 203  492.3407
 204  526.1742
 205  495.0911
 206  523.8516
 207  548.6066
 208  481.378
 209  635.8069
 210  534.0997
 211  436.4901
 212  351.6359
 213  250.9163
 214  295.8719
 215  285.182
 216  373.188
 217  528.768
 218  472.0222
 219  396.2377
 220  394.2141
 221  523.0788
 222  487.6051
 223  625.5831
 224  533.6779
 225  673.3648
 226  611.0806
 227  457.8275
 228  565.0397
 229  449.6416
 230  517.7239
 231  590.3624
 232  572.5433
 233  536.551
 234  624.2453
 235  608.0579
 236  614.0246
 237  482.4218
 238  534.3156
 239  568.0768
 240  489.2135
 241  573.4343
 242  672.4607
 243  576.3531
 244  410.3596
 245  570.7896
 246  621.5318
 247  541.8838
 248  506.3592
 249  615.7214
 250  718.1519
 251  554.9514
 252  416.4044
 253  384.4074
 254  438.6345
 255  570.2258
 256  571.1758
 257  493.4451
 258  467.5145
 259  517.0975
 260  473.7035
 261  513.3336
 262  468.5473
 263  538.8753
 264  604.0572
 265  613.2786
 266  568.3033
 267  728.9578
 268  629.1437
 269  537.494
 270  576.2324
 271  631.3886
 272  632.7115
 273  559.262
 274  615.7841
 275  566.78
 276  549.176
 277  518.4508
 278  529.2032
 279  579.7325
 280  533.0724
 281  599.4018
 282  562.0013
 283  571.173
 284  534.2465
 285  571.9542
 286  629.3844
 287  499.9811
 288  538.3546
 289  621.6965
 290  576.8108
 291  638.0546
 292  596.4633
 293  551.8239
 294  667.159
 295  587.1597
 296  567.8354
 297  570.7308
 298  562.302
 299  548.0674
 300  669.0722
 301  663.6904
 302  676.0426
 303  548.4503
 304  498.8126
 305  464.2356
 306  512.6069
 307  568.0225
 308  700.8527
 309  629.7042
 310  590.662
 311  539.3593
 312  535.1146
 313  603.5607
 314  581.1149
 315  641.4762
 316  726.6882
 317  698.688
 318  594.8207
 319  559.4075
 320  529.1544
 321  561.7326
 322  574.8516
 323  663.8801
 324  625.1912
 325  612.5043
 326  617.6821
 327  617.5488
 328  516.7997
 329  652.6902
 330  647.4381
 331  519.3803
 332  514.3768
 333  619.6766
 334  661.5301
 335  549.404
 336  528.3967
 337  523.8087
 338  602.8983
 339  485.1373
 340  462.0315
 341  443.4169
 342  465.3091
 343  402.2525
 344  441.2013
 345  468.5331
 346  565.5681
 347  608.4686
 348  655.2921
 349  722.1998
 350  556.1043
 351  482.5258
 352  579.2429
 353  587.3729
 354  575.4593
 355  651.8047
 356  593.2869
 357  550.8168
 358  668.1397
 359  637.1727
 360  536.5036
 361  568.5811
 362  663.373
 363  522.6287
 364  549.3456
 365  568.1799
 366  477.1607
 367  456.5885
 368  508.5511
 369  631.4865
 370  527.6102
 371  583.8442
 372  634.4405
 373  611.4011
 374  537.5227
 375  560.4889
 376  628.7267
 377  584.5956
 378  492.3084
 379  485.6083
 380  558.3672
 381  616.2174
 382  566.6876
 383  668.1277
 384  764.098
 385  795.7142
 386  686.2811
 387  570.1551
 388  620.3573
 389  622.9472
 390  600.0124
 391  553.8365
 392  712.0526
 393  643.7162
 394  572.0564
 395  479.9952
 396  438.7119
 397  573.3284
 398  577.5271
 399  550.3237
 400  656.9513
 401  591.8004
 402  560.9454
 403  575.1321
 404  596.7569
 405  506.7329
 406  489.1842
 407  579.6664
 408  440.2176
 409  471.9605
 410  640.1625
 411  505.6559
 412  556.5688
 413  677.2463
 414  614.464
 415  636.3724
 416  608.3106
 417  663.9118
 418  617.7809
 419  560.1628
 420  582.1321
 421  589.2241
 422  588.7983
 423  521.5364
 424  652.0371
 425  715.8719
 426  627.0193
 427  628.2853
 428  549.5247
 429  613.2347
 430  525.9841
 431  551.421
 432  670.7536
 433  593.7773
 434  508.9778
 435  518.229
 436  568.1901
 437  549.9904
 438  553.8935
 439  732.9211
 440  658.9174
 441  494.2223
 442  451.1451
 443  510.0238
 444  614.804
 445  632.0113
 446  586.1699
 447  536.9754
 448  652.8882
 449  629.5479
 450  559.4684
 451  506.837
 452  528.1049
 453  631.8716
 454  577.5838
 455  556.2668
 456  683.7908
 457  727.6815
 458  784.6776
 459  672.5991
 460  659.6449
 461  654.7369
 462  571.9607
 463  557.3623
 464  520.7117
 465  514.8433
 466  558.2485
 467  518.5984
 468  415.2124
 469  523.5413
 470  586.0347
 471  634.3825
 472  595.1034
 473  638.9064
 474  617.398
 475  677.5078
 476  566.2031
 477  399.5673
 478  534.1303
 479  575.2997
 480  500.2368
 481  588.19
 482  706.9545
 483  654.0109
 484  546.7152
 485  508.2115
 486  603.7955
 487  660.2839
 488  617.0162
 489  510.6929
 490  568.3958
 491  553.9111
 492  516.066
 493  538.6146
 494  625.5651
 495  666.5543
 496  613.748
 497  531.462
 498  483.3711
 499  649.2599
 500  725.3372
 501  723.1326
 502  523.7148
 503  534.1147
 504  603.3981
 505  642.3502
 506  793.9149
 507  626.3678
 508  592.269
 509  649.9548
 510  638.7255
 511  570.1971
