# Input file       =  1210666695.126441_cleaned.dat
# Candidate        =  PSR_0332+5434
# Telescope        =  AR
# Epoch_topo       =  58256.346228315291
# Epoch_bary       =  N/A
# T_sample         =  0.002
# Data Folded      =  7340032
# Data Avg         =  0.24291252358983 
# Data StdDev      =  5.4711811520807  
# Profile Bins     =  1024
# Profile Avg      =  1741.15605354204 
# Profile StdDev   =  463.212310598061 
# Reduced chi-sqr  =  0.802
# Prob(Noise)      <  1   (~0.0 sigma)
# P_topo (ms)      =  714.53031829861   +/- 0.000745
# P'_topo (s/s)    =  -0                +/- 3.93e-10
# P''_topo (s/s^2) =  0                 +/- 1.73e-13
# P_bary (ms)      =  N/A
# P'_bary (s/s)    =  N/A
# P''_bary (s/s^2) =  N/A
# P_orb (s)        =  N/A
# asin(i)/c (s)    =  N/A
# eccentricity     =  N/A
# w (rad)          =  N/A
# T_peri           =  N/A
######################################################
   0  1641.092
   1  1616.517
   2  1605.551
   3  1623.363
   4  1568.312
   5  1479.396
   6  1507.618
   7  1447.676
   8  1522.654
   9  1614.075
  10  1661.096
  11  1661.102
  12  1520.633
  13  1459.696
  14  1458.865
  15  1399.19
  16  1466.808
  17  1470.45
  18  1697.061
  19  1796.352
  20  1880.342
  21  1797.11
  22  1689.257
  23  1620.225
  24  1646.84
  25  1765.067
  26  1817.261
  27  1742.746
  28  1669.332
  29  1668.041
  30  1723.337
  31  1610.519
  32  1519.546
  33  1515.88
  34  1620.975
  35  1509.56
  36  1532.969
  37  1625.607
  38  1738.357
  39  1666.293
  40  1538.943
  41  1555.33
  42  1627.428
  43  1606.115
  44  1508.032
  45  1348.87
  46  1399.221
  47  1325.444
  48  1385.352
  49  1376.982
  50  1542.078
  51  1626.068
  52  1512.135
  53  1421.623
  54  1405.303
  55  1412.928
  56  1348.135
  57  1314.128
  58  1325.559
  59  1425.345
  60  1503.95
  61  1624.133
  62  1512.997
  63  1539.622
  64  1603.093
  65  1656.934
  66  1709.93
  67  1723.852
  68  1776.085
  69  1671.826
  70  1744.757
  71  1849.138
  72  1942.269
  73  1698.05
  74  1440.316
  75  1352.208
  76  1439.891
  77  1571.8
  78  1624.37
  79  1673.588
  80  1655.658
  81  1703.536
  82  1682.034
  83  1680.108
  84  1804.333
  85  1908.443
  86  1899.692
  87  1860.652
  88  1647.908
  89  1606.385
  90  1456.486
  91  1431.838
  92  1566.979
  93  1587.045
  94  1523.865
  95  1676.794
  96  1814.821
  97  1999.503
  98  1863.539
  99  1783.489
 100  1755.306
 101  1798.127
 102  1930.99
 103  1826.606
 104  1736.736
 105  1620.292
 106  1730.457
 107  1766.257
 108  1802.395
 109  1758.974
 110  1754.725
 111  1794.604
 112  1899.422
 113  1989.582
 114  2042.975
 115  1982.386
 116  1917.179
 117  2021.663
 118  1917.307
 119  1662.045
 120  1488.979
 121  1472.124
 122  1560.519
 123  1509.332
 124  1698.629
 125  1688.732
 126  1737.054
 127  1695.719
 128  1633.205
 129  1568.165
 130  1506.682
 131  1671.406
 132  1679.424
 133  1454.888
 134  1317.06
 135  1336.97
 136  1507.616
 137  1544.846
 138  1474.361
 139  1415.732
 140  1443.074
 141  1490.548
 142  1522.237
 143  1572.407
 144  1670.207
 145  1594.253
 146  1548.899
 147  1529.366
 148  1619.012
 149  1653.716
 150  1733.777
 151  1868.622
 152  2061.098
 153  2192.115
 154  2127.916
 155  2090.12
 156  2095.456
 157  2035.159
 158  1968.515
 159  2031.332
 160  2219.478
 161  2277.292
 162  2323.862
 163  2266.374
 164  2212.998
 165  2168.995
 166  2015.678
 167  2091.56
 168  2132.462
 169  2014.568
 170  1815.374
 171  1776.028
 172  1873.154
 173  1832.956
 174  1741.105
 175  1753.238
 176  1886.778
 177  1947.416
 178  1796.417
 179  1621.948
 180  1578.811
 181  1696.848
 182  1677.288
 183  1586.54
 184  1665.187
 185  1780.189
 186  1880.993
 187  1818.825
 188  1863.802
 189  1768.236
 190  1713.951
 191  1788.8
 192  1885.394
 193  1803.037
 194  1696.858
 195  1630.317
 196  1753.605
 197  1725.291
 198  1764.609
 199  1714.768
 200  1576.988
 201  1517.256
 202  1569.981
 203  1721.071
 204  1849.311
 205  1984.453
 206  2002.59
 207  1969.713
 208  1979.779
 209  2221.541
 210  2118.613
 211  1972.635
 212  1795.559
 213  1888.295
 214  1867.542
 215  1928.368
 216  1962.708
 217  2020.457
 218  1977.059
 219  1853.918
 220  1724.243
 221  1748.645
 222  1848.736
 223  1860.133
 224  1815.745
 225  1848.825
 226  1746.948
 227  1707.63
 228  1720.275
 229  1799.064
 230  1674.424
 231  1594.644
 232  1749.526
 233  1903.804
 234  1820.282
 235  1584.362
 236  1526.128
 237  1563.944
 238  1647.641
 239  1709.026
 240  1779.443
 241  1739.509
 242  1561.503
 243  1487.99
 244  1404.84
 245  1404.494
 246  1467
 247  1580.976
 248  1531.229
 249  1652.197
 250  1654.907
 251  1734.67
 252  1620.334
 253  1506.582
 254  1514.468
 255  1644.665
 256  1799.955
 257  1678.787
 258  1538.185
 259  1467.725
 260  1494.582
 261  1496.782
 262  1432.195
 263  1624.453
 264  1767.438
 265  1903.911
 266  1804.543
 267  1706.152
 268  1589.722
 269  1504.734
 270  1590.517
 271  1518.485
 272  1669.184
 273  1622.375
 274  1626.003
 275  1631.7
 276  1664.085
 277  1663.791
 278  1685.372
 279  1676.849
 280  1683.171
 281  1767.871
 282  1750.965
 283  1561.167
 284  1407.358
 285  1390.071
 286  1628.339
 287  1710.505
 288  1546.34
 289  1332.945
 290  1307.412
 291  1451.036
 292  1507.649
 293  1555.238
 294  1615.956
 295  1650.463
 296  1647.469
 297  1588.851
 298  1559.564
 299  1593.117
 300  1621.894
 301  1622.378
 302  1530.478
 303  1509.083
 304  1524.214
 305  1622.32
 306  1670.439
 307  1639.595
 308  1589.41
 309  1640.036
 310  1671.716
 311  1559.572
 312  1538.227
 313  1554.508
 314  1747.801
 315  1810.169
 316  1791.316
 317  1739.927
 318  1643.883
 319  1656.358
 320  1658.621
 321  1651.99
 322  1727.258
 323  1858.519
 324  1866.273
 325  1811.077
 326  1678.766
 327  1603.92
 328  1462.044
 329  1495.345
 330  1480.802
 331  1544.788
 332  1660.981
 333  1753.82
 334  1887.43
 335  1700.296
 336  1664.612
 337  1614.771
 338  1679.41
 339  1586.82
 340  1530.412
 341  1377.624
 342  1293.814
 343  1297.063
 344  1489.246
 345  1610.279
 346  1581.627
 347  1687.554
 348  1723.399
 349  1838.337
 350  1746.824
 351  1691.056
 352  1640.264
 353  1462.844
 354  1661.856
 355  1730.298
 356  1777.466
 357  1649.592
 358  1730.388
 359  1698.586
 360  1672.925
 361  1574.478
 362  1680.946
 363  1774.371
 364  1776.203
 365  1897.835
 366  2004.158
 367  2077.861
 368  2073.932
 369  1884.54
 370  1747.894
 371  1724.118
 372  1867.509
 373  1846.053
 374  1733.747
 375  1670.446
 376  1799.124
 377  1799.393
 378  1757.091
 379  1787.297
 380  1676.168
 381  1719.075
 382  1794.814
 383  1959.411
 384  1841.907
 385  1685.251
 386  1559.336
 387  1704.03
 388  1797.694
 389  1667.096
 390  1552.474
 391  1431.326
 392  1394.261
 393  1521.743
 394  1705.444
 395  1817.994
 396  1737.645
 397  1728.634
 398  1809.659
 399  1848.317
 400  1723.429
 401  1635.962
 402  1677.961
 403  1586.946
 404  1378.023
 405  1326.973
 406  1476.16
 407  1486.04
 408  1516.822
 409  1539.528
 410  1638.619
 411  1601.828
 412  1547.739
 413  1563.406
 414  1523.406
 415  1490.396
 416  1504.684
 417  1564.959
 418  1698.043
 419  1667.237
 420  1712.443
 421  1636.959
 422  1672.006
 423  1758.046
 424  1676.901
 425  1671.6
 426  1588.985
 427  1796.291
 428  1738.768
 429  1779.079
 430  1672.792
 431  1617.115
 432  1693.022
 433  1888.601
 434  1888.169
 435  1861.999
 436  1742.945
 437  1731.351
 438  1622.441
 439  1662.228
 440  1659.49
 441  1737.839
 442  1698.619
 443  1866.059
 444  1759.396
 445  1818.041
 446  1694.261
 447  1823.598
 448  1830.107
 449  1662.808
 450  1628.795
 451  1594.658
 452  1655.691
 453  1737.94
 454  1877.673
 455  1873.212
 456  1700.644
 457  1669.835
 458  1746.852
 459  1885.266
 460  1859.444
 461  1848.296
 462  1854.117
 463  1791.508
 464  1756.71
 465  1746.425
 466  1724.939
 467  1738.015
 468  1746.009
 469  1912.662
 470  1903.975
 471  1890.856
 472  1851.591
 473  1784.915
 474  1738.416
 475  1779.719
 476  2003.077
 477  1947.068
 478  1876.207
 479  1880.556
 480  1943.718
 481  1903.055
 482  1708.789
 483  1726.016
 484  1627.118
 485  1637.774
 486  1721.689
 487  1766.018
 488  1761.94
 489  1796.375
 490  1740.915
 491  1809.317
 492  1795.256
 493  1835.938
 494  1763.634
 495  1746.155
 496  1852.511
 497  1991.085
 498  2131.775
 499  2074.341
 500  2124.281
 501  2145.81
 502  2070.058
 503  1953.183
 504  1926.123
 505  2056.641
 506  2184.487
 507  2131.116
 508  2038.88
 509  1974.601
 510  2148.77
 511  2276.598
 512  2140.011
 513  1964.896
 514  1770.427
 515  1922.044
 516  1891.005
 517  2016.097
 518  2051.006
 519  2192.624
 520  2050.654
 521  2003.421
 522  1869.157
 523  1844.507
 524  1928.273
 525  1844.508
 526  1840.583
 527  1758.034
 528  1689.238
 529  1689.588
 530  1586.581
 531  1585.483
 532  1532.152
 533  1620.197
 534  1837.463
 535  1852.507
 536  1692.521
 537  1726.604
 538  1846.398
 539  1874.635
 540  1831.131
 541  1869.55
 542  1847.351
 543  1561.666
 544  1454.844
 545  1383.798
 546  1413.475
 547  1287.108
 548  1531.551
 549  1662.626
 550  1648.047
 551  1526.161
 552  1486.547
 553  1576.916
 554  1476.944
 555  1586.572
 556  1617.863
 557  1838.58
 558  1705.341
 559  1608.57
 560  1506.044
 561  1615.008
 562  1662.019
 563  1673.597
 564  1577.505
 565  1668.111
 566  1740.821
 567  1747.521
 568  1645.048
 569  1637.847
 570  1785.956
 571  1906.063
 572  1763.163
 573  1704.214
 574  1585.765
 575  1496.985
 576  1518.387
 577  1629.323
 578  1659.435
 579  1615.16
 580  1671.475
 581  1702.159
 582  1750.552
 583  1777.702
 584  1840.248
 585  1957.938
 586  1743.2
 587  1722.884
 588  1831.854
 589  1894.831
 590  1864.636
 591  1803.402
 592  1882.552
 593  1994.31
 594  2013.821
 595  2392.076
 596  2685.765
 597  2764.941
 598  2772.572
 599  2847.352
 600  2774.846
 601  2636.599
 602  2354.392
 603  2357.47
 604  2355.217
 605  2211.567
 606  2120.69
 607  1935.35
 608  1839.74
 609  1717.719
 610  1782.982
 611  1831.356
 612  1727.007
 613  1692.634
 614  1730.464
 615  1803.549
 616  1795.371
 617  1863.346
 618  1829.316
 619  1773.115
 620  1665.312
 621  1800.984
 622  1906.169
 623  1876.298
 624  1784.205
 625  1682.027
 626  1660.74
 627  1670.883
 628  1705.955
 629  1843.426
 630  1804.474
 631  1712.97
 632  1796.54
 633  1897.593
 634  2040.59
 635  1957.126
 636  1886.751
 637  1836.247
 638  1669.539
 639  1724.025
 640  1947.607
 641  2086.882
 642  2149.743
 643  2180.927
 644  2138.609
 645  1969.12
 646  1769.533
 647  1799.433
 648  1824.449
 649  1888.328
 650  1980.971
 651  2064.908
 652  2225.691
 653  2127.135
 654  2058.136
 655  1931.227
 656  1937.599
 657  1882.403
 658  1840.95
 659  1675.217
 660  1670.303
 661  1773
 662  1918.429
 663  1929.405
 664  1766.516
 665  1665.113
 666  1651.786
 667  1868.247
 668  2107.236
 669  1975.441
 670  1901.247
 671  1899.228
 672  2040.659
 673  1995.672
 674  1895.379
 675  1795.329
 676  1868.422
 677  1920.118
 678  1911.443
 679  1889.441
 680  1878.585
 681  1903.154
 682  1859.695
 683  1837.645
 684  1837.226
 685  1844.239
 686  1799.186
 687  1771.29
 688  1675.352
 689  1624.462
 690  1665.096
 691  1744.989
 692  1817.888
 693  1781.799
 694  1828.987
 695  1859.484
 696  1895.253
 697  1879.002
 698  1841.352
 699  1730.58
 700  1786.866
 701  1633.699
 702  1449.275
 703  1404.655
 704  1505.925
 705  1614.585
 706  1643.703
 707  1768.55
 708  1876.678
 709  1835.65
 710  1745.658
 711  1803.147
 712  1826.274
 713  1832.783
 714  1694.477
 715  1638.439
 716  1661.834
 717  1479.684
 718  1516.025
 719  1673.338
 720  1909.961
 721  1937.997
 722  1951.398
 723  1978.041
 724  1877.846
 725  1804.324
 726  1793.522
 727  1838.712
 728  1907.886
 729  1980.137
 730  2017.794
 731  2037.549
 732  2004.53
 733  1942.507
 734  1926.99
 735  1870.21
 736  1938.79
 737  2127.1
 738  2110.224
 739  2092.791
 740  1896.181
 741  1952.44
 742  1937.448
 743  1892.93
 744  1866.987
 745  1843.541
 746  1949.098
 747  2028.219
 748  2102.238
 749  2130.454
 750  2166.563
 751  2262.155
 752  2304.005
 753  2213.036
 754  2087.789
 755  1764.902
 756  1853.126
 757  1813.869
 758  1864.965
 759  1908.715
 760  2003.323
 761  2155.021
 762  2260.594
 763  2247.152
 764  2350.147
 765  2336.114
 766  2282.719
 767  2156.626
 768  2069.537
 769  2143.491
 770  2221.979
 771  2178.849
 772  2224.198
 773  2217.25
 774  2173.992
 775  2116.611
 776  2204.368
 777  2306.816
 778  2180.659
 779  2097.964
 780  2094.108
 781  2097.427
 782  2029.237
 783  2027.139
 784  2163.348
 785  2084.811
 786  1891.889
 787  1702.283
 788  1699.966
 789  1925.666
 790  2171.877
 791  2245.913
 792  2105.579
 793  2023.358
 794  2000.981
 795  2122.074
 796  2083.049
 797  1980.445
 798  1938.823
 799  1977.84
 800  1958.755
 801  1852.38
 802  1695.879
 803  1663.377
 804  1756.903
 805  1925.185
 806  1976.934
 807  1945.969
 808  1973.911
 809  1966.632
 810  2011.303
 811  1948.303
 812  1999.835
 813  1992.623
 814  1792.481
 815  1591.556
 816  1577.283
 817  1542.759
 818  1438.982
 819  1361.376
 820  1537.254
 821  1768.019
 822  1838.851
 823  1765.428
 824  1758.546
 825  1700.167
 826  1583.705
 827  1529.039
 828  1598.437
 829  1738.691
 830  1722.514
 831  1824.136
 832  1789.004
 833  1885.807
 834  1839.379
 835  1863.477
 836  1789.648
 837  1643.966
 838  1601.657
 839  1626.479
 840  1686.083
 841  1691.163
 842  1634.582
 843  1700.013
 844  1842.634
 845  1903.254
 846  1812.734
 847  1811.19
 848  1887.494
 849  2037.888
 850  1903.921
 851  1782.107
 852  1802.927
 853  1953.299
 854  1986.663
 855  1901.343
 856  1817.386
 857  1836.724
 858  1869.167
 859  2037.526
 860  2025.988
 861  2026.993
 862  2022.051
 863  2078.007
 864  1984.622
 865  1819.872
 866  1833.216
 867  1935.818
 868  1964.174
 869  2014.692
 870  1975.517
 871  1846.9
 872  1774.87
 873  2019.656
 874  2330.02
 875  2159.568
 876  1913.83
 877  1811.353
 878  1832.981
 879  1737.35
 880  1621.026
 881  1731.051
 882  1881.837
 883  1995.235
 884  1936.911
 885  1799.536
 886  1780.339
 887  1661.848
 888  1555.663
 889  1688.853
 890  1865.936
 891  1958.182
 892  1838.572
 893  1719.049
 894  1770.005
 895  1521.959
 896  1425.912
 897  1440.71
 898  1465.003
 899  1491.432
 900  1470.151
 901  1534.707
 902  1464.96
 903  1443.774
 904  1506.327
 905  1567.639
 906  1669.477
 907  1688.948
 908  1596.823
 909  1557.532
 910  1457.016
 911  1379.998
 912  1270.917
 913  1184.415
 914  1253.175
 915  1224.592
 916  1206.588
 917  1086.358
 918  1321.198
 919  1451.1
 920  1558.704
 921  1518.943
 922  1574.981
 923  1500.2
 924  1497.414
 925  1422.967
 926  1410.047
 927  1460.13
 928  1574.515
 929  1491.107
 930  1306.341
 931  1255.378
 932  1385.455
 933  1414.395
 934  1509.352
 935  1328.244
 936  1416.639
 937  1317.29
 938  1308.732
 939  1270.281
 940  1337.999
 941  1468.526
 942  1561.177
 943  1705.825
 944  1822.632
 945  1721.301
 946  1547.846
 947  1331.045
 948  1338.387
 949  1356.585
 950  1482.071
 951  1501.682
 952  1590.412
 953  1392.534
 954  1436.477
 955  1502.167
 956  1536.322
 957  1568.606
 958  1574.605
 959  1636.689
 960  1601.958
 961  1518.726
 962  1562.011
 963  1484.948
 964  1458.582
 965  1330.023
 966  1475.654
 967  1558.937
 968  1709.159
 969  1516.637
 970  1540.616
 971  1426.761
 972  1483.718
 973  1480.177
 974  1525.275
 975  1631.041
 976  1583.719
 977  1569.248
 978  1522.178
 979  1361.094
 980  1347.149
 981  1336.372
 982  1512.349
 983  1632.829
 984  1578.944
 985  1480.85
 986  1299.163
 987  1351.032
 988  1373.634
 989  1484.298
 990  1446.029
 991  1417
 992  1545.606
 993  1728.53
 994  1736.041
 995  1590.625
 996  1529.92
 997  1473.373
 998  1382.487
 999  1305.645
1000  1500.76
1001  1589.037
1002  1646.189
1003  1427.428
1004  1432.247
1005  1615.22
1006  1706.39
1007  1747.376
1008  1643.237
1009  1577.881
1010  1495.486
1011  1410.515
1012  1477.608
1013  1535.921
1014  1713.199
1015  1673.307
1016  1709.091
1017  1635.032
1018  1583.849
1019  1636.343
1020  1777.02
1021  1787.642
1022  1670.39
1023  1636.789
