# Input file       =  1210149676.126379_cleaned.dat
# Candidate        =  PSR_0332+5434
# Telescope        =  AR
# Epoch_topo       =  58250.362212110871
# Epoch_bary       =  N/A
# T_sample         =  0.002
# Data Folded      =  7340032
# Data Avg         =  -0.0381256282499835
# Data StdDev      =  1.00021139522965 
# Profile Bins     =  512
# Profile Avg      =  -546.454337531551
# Profile StdDev   =  119.758347369487 
# Reduced chi-sqr  =  1.219
# Prob(Noise)      <  0.000501   (~3.3 sigma)
# P_topo (ms)      =  714.536146945048  +/- 0.000434
# P'_topo (s/s)    =  -0                +/- 2.29e-10
# P''_topo (s/s^2) =  0                 +/- 1.01e-13
# P_bary (ms)      =  N/A
# P'_bary (s/s)    =  N/A
# P''_bary (s/s^2) =  N/A
# P_orb (s)        =  N/A
# asin(i)/c (s)    =  N/A
# eccentricity     =  N/A
# w (rad)          =  N/A
# T_peri           =  N/A
######################################################
   0  -509.5359
   1  -558.6336
   2  -526.9648
   3  -527.5103
   4  -534.2661
   5  -456.8754
   6  -492.4435
   7  -477.1079
   8  -464.8362
   9  -457.6316
  10  -490.9875
  11  -449.2764
  12  -502.3174
  13  -605.4548
  14  -544.8008
  15  -402.1613
  16  -377.9781
  17  -450.6924
  18  -502.2581
  19  -451.4578
  20  -478.9006
  21  -444.5815
  22  -351.7196
  23  -436.8768
  24  -572.3132
  25  -497.8938
  26  -470.641
  27  -455.9288
  28  -480.6304
  29  -473.4219
  30  -481.4009
  31  -515.0906
  32  -458.0996
  33  -454.308
  34  -507.067
  35  -514.9979
  36  -460.2224
  37  -507.3551
  38  -605.9349
  39  -461.0424
  40  -453.7945
  41  -501.5687
  42  -491.875
  43  -466.1096
  44  -492.63
  45  -444.5864
  46  -453.9803
  47  -511.5502
  48  -493.2787
  49  -500.2921
  50  -541.4309
  51  -538.3029
  52  -445.5894
  53  -469.8915
  54  -473.8425
  55  -475.032
  56  -446.5083
  57  -400.3741
  58  -449.2091
  59  -446.5396
  60  -422.7753
  61  -485.2919
  62  -540.3247
  63  -453.9771
  64  -400.9596
  65  -424.0636
  66  -508.8442
  67  -494.1975
  68  -478.051
  69  -396.8626
  70  -468.7239
  71  -500.5641
  72  -526.6812
  73  -585.6143
  74  -536.0197
  75  -507.6827
  76  -465.0148
  77  -440.4706
  78  -500.8953
  79  -520.7772
  80  -497.9501
  81  -503.2658
  82  -493.1659
  83  -535.4058
  84  -418.8877
  85  -433.6699
  86  -504.4311
  87  -443.0068
  88  -512.0009
  89  -474.9016
  90  -486.7162
  91  -470.1238
  92  -483.3858
  93  -460.6404
  94  -490.7915
  95  -469.9963
  96  -514.3488
  97  -505.5229
  98  -473.4336
  99  -525.1783
 100  -644.9502
 101  -603.9929
 102  -523.7004
 103  -498.6184
 104  -557.2321
 105  -598.4684
 106  -534.6013
 107  -512.5526
 108  -509.8355
 109  -602.6191
 110  -623.3106
 111  -548.2488
 112  -610.1172
 113  -640.2277
 114  -544.0604
 115  -445.6505
 116  -470.691
 117  -542.2208
 118  -528.2986
 119  -500.0889
 120  -630.8384
 121  -653.4521
 122  -610.9515
 123  -584.3981
 124  -662.1992
 125  -684.3722
 126  -633.5805
 127  -561.3656
 128  -580.9533
 129  -604.6234
 130  -587.7659
 131  -486.8352
 132  -482.8423
 133  -568.2182
 134  -633.2784
 135  -677.3468
 136  -672.3405
 137  -621.0002
 138  -628.4332
 139  -613.897
 140  -548.797
 141  -492.0884
 142  -555.4171
 143  -538.2304
 144  -524.903
 145  -603.344
 146  -555.8142
 147  -557.6949
 148  -565.9606
 149  -532.3944
 150  -447.7108
 151  -418.1585
 152  -456.484
 153  -429.4483
 154  -521.4211
 155  -577.1829
 156  -543.9845
 157  -544.8351
 158  -563.6343
 159  -528.6058
 160  -507.3431
 161  -469.1821
 162  -555.8306
 163  -601.6293
 164  -558.5765
 165  -597.71
 166  -576.7484
 167  -522.9095
 168  -584.0853
 169  -572.1281
 170  -580.9191
 171  -639.2557
 172  -677.4701
 173  -692.5504
 174  -635.7013
 175  -710.6666
 176  -688.2162
 177  -573.8561
 178  -564.9607
 179  -573.5975
 180  -569.9877
 181  -573.9122
 182  -587.6873
 183  -539.7132
 184  -570.1739
 185  -518.8679
 186  -548.7462
 187  -590.106
 188  -629.3635
 189  -683.7419
 190  -663.8815
 191  -645.465
 192  -572.4977
 193  -602.7572
 194  -615.3618
 195  -588.2667
 196  -553.0939
 197  -481.5021
 198  -468.2908
 199  -319.5883
 200  -207.6137
 201  -91.70842
 202  13.31939
 203  86.34861
 204  3.344572
 205  -282.8951
 206  -496.4365
 207  -566.6771
 208  -594.8448
 209  -619.8212
 210  -622.7986
 211  -604.1183
 212  -621.3102
 213  -577.0762
 214  -539.8766
 215  -599.0152
 216  -526.6274
 217  -499.8734
 218  -630.0819
 219  -664.5256
 220  -688.5096
 221  -599.4755
 222  -633.4363
 223  -602.5254
 224  -612.7933
 225  -533.4929
 226  -547.8951
 227  -596.1276
 228  -638.7551
 229  -654.0894
 230  -679.0068
 231  -620.1756
 232  -590.8095
 233  -551.2466
 234  -601.7986
 235  -633.5041
 236  -598.3969
 237  -542.1339
 238  -590.435
 239  -619.2607
 240  -635.633
 241  -635.8724
 242  -700.9467
 243  -723.4924
 244  -694.9476
 245  -598.7402
 246  -579.0566
 247  -645.9567
 248  -676.3091
 249  -661.2161
 250  -611.418
 251  -572.6331
 252  -547.9167
 253  -570.5101
 254  -627.8579
 255  -709.8187
 256  -733.7943
 257  -636.1542
 258  -656.5295
 259  -615.1042
 260  -616.8911
 261  -676.6564
 262  -648.4927
 263  -645.4172
 264  -592.6125
 265  -704.7346
 266  -670.082
 267  -679.8941
 268  -674.3984
 269  -707.8579
 270  -727.5449
 271  -641.8895
 272  -676.7738
 273  -760.607
 274  -735.1069
 275  -712.5853
 276  -685.5652
 277  -670.686
 278  -641.1966
 279  -658.2324
 280  -713.956
 281  -652.2928
 282  -603.4214
 283  -622.9968
 284  -650.9556
 285  -560.7243
 286  -614.3985
 287  -687.1311
 288  -682.965
 289  -668.4897
 290  -641.7495
 291  -696.4924
 292  -604.0414
 293  -498.5994
 294  -618.716
 295  -625.8823
 296  -590.3101
 297  -600.681
 298  -695.4972
 299  -651.1802
 300  -638.3995
 301  -672.4908
 302  -650.8788
 303  -633.7324
 304  -639.9907
 305  -594.3023
 306  -627.3616
 307  -594.8928
 308  -631.4871
 309  -605.4101
 310  -629.1698
 311  -652.4172
 312  -668.5256
 313  -647.4037
 314  -692.3076
 315  -697.4388
 316  -675.1953
 317  -664.9279
 318  -620.2557
 319  -695.368
 320  -666.6346
 321  -624.0859
 322  -552.0187
 323  -601.1746
 324  -588.7894
 325  -549.8975
 326  -485.7679
 327  -536.5421
 328  -552.1553
 329  -504.4833
 330  -564.5522
 331  -589.8685
 332  -594.5315
 333  -619.5083
 334  -607.9902
 335  -648.7752
 336  -656.3831
 337  -593.3607
 338  -575.8028
 339  -538.5936
 340  -559.1567
 341  -509.6602
 342  -565.6874
 343  -573.7842
 344  -529.9529
 345  -552.7548
 346  -536.1495
 347  -530.6948
 348  -583.4432
 349  -554.7768
 350  -546.5164
 351  -571.4785
 352  -575.9558
 353  -525.7379
 354  -534.178
 355  -483.3348
 356  -509.1929
 357  -517.9453
 358  -527.4924
 359  -480.7521
 360  -552.9548
 361  -496.3507
 362  -508.1905
 363  -503.6279
 364  -575.0901
 365  -529.9274
 366  -500.5887
 367  -455.3727
 368  -463.7733
 369  -503.9426
 370  -570.0284
 371  -538.2767
 372  -454.7975
 373  -461.4557
 374  -535.5958
 375  -564.6687
 376  -497.3699
 377  -443.5685
 378  -479.5709
 379  -452.1938
 380  -472.0219
 381  -534.0643
 382  -472.5078
 383  -435.6393
 384  -399.8463
 385  -432.6969
 386  -458.5004
 387  -465.5213
 388  -454.9328
 389  -479.2411
 390  -465.0833
 391  -419.4893
 392  -506.4225
 393  -508.2607
 394  -519.2864
 395  -447.6501
 396  -390.4484
 397  -401.984
 398  -335.4704
 399  -369.8058
 400  -386.089
 401  -431.2513
 402  -339.467
 403  -339.9417
 404  -499.7487
 405  -540.1695
 406  -502.9333
 407  -458.8547
 408  -445.5601
 409  -401.0663
 410  -513.4018
 411  -557.6508
 412  -549.2455
 413  -545.713
 414  -524.7321
 415  -437.6283
 416  -435.4879
 417  -484.4868
 418  -468.3853
 419  -427.7713
 420  -483.121
 421  -475.8835
 422  -519.9171
 423  -454.6685
 424  -408.3106
 425  -518.8785
 426  -580.4056
 427  -520.3977
 428  -494.0899
 429  -502.004
 430  -490.5114
 431  -525.1214
 432  -545.2142
 433  -494.8203
 434  -425.5081
 435  -427.9578
 436  -500.9809
 437  -449.1602
 438  -541.2839
 439  -515.7682
 440  -551.4814
 441  -590.876
 442  -616.8008
 443  -577.0679
 444  -545.7612
 445  -571.5969
 446  -607.2231
 447  -556.393
 448  -617.0994
 449  -662.0026
 450  -589.1384
 451  -574.1111
 452  -507.6909
 453  -535.1445
 454  -566.7604
 455  -505.6787
 456  -475.0176
 457  -482.533
 458  -490.9301
 459  -601.0289
 460  -627.9768
 461  -608.7061
 462  -690.7556
 463  -621.9334
 464  -608.8285
 465  -657.4013
 466  -625.0131
 467  -620.7624
 468  -670.8981
 469  -677.2581
 470  -613.0728
 471  -680.3352
 472  -691.8715
 473  -593.9319
 474  -577.1423
 475  -625.7468
 476  -604.2644
 477  -550.007
 478  -515.8932
 479  -523.8591
 480  -567.7298
 481  -541.5513
 482  -591.2584
 483  -635.017
 484  -560.7537
 485  -496.6919
 486  -434.5178
 487  -541.8622
 488  -581.0142
 489  -594.8055
 490  -605.0087
 491  -556.9309
 492  -558.8491
 493  -559.5255
 494  -546.5807
 495  -528.4456
 496  -599.4433
 497  -648.9958
 498  -641.9318
 499  -565.7051
 500  -590.1683
 501  -614.4605
 502  -622.4173
 503  -531.3066
 504  -466.6555
 505  -498.8648
 506  -587.5843
 507  -549.0354
 508  -496.2171
 509  -423.6882
 510  -420.8255
 511  -434.4509
