# Input file       =  1210595454.117564_cleaned.dat
# Candidate        =  PSR_0332+5434
# Telescope        =  AR
# Epoch_topo       =  58255.521679601436
# Epoch_bary       =  N/A
# T_sample         =  0.002
# Data Folded      =  7340032
# Data Avg         =  0.0408627542356087
# Data StdDev      =  1.00012303114914 
# Profile Bins     =  512
# Profile Avg      =  585.812184173818 
# Profile StdDev   =  119.747767269821 
# Reduced chi-sqr  =  1.452
# Prob(Noise)      <  9.02e-11   (~6.4 sigma)
# P_topo (ms)      =  714.531461762599  +/- 0.000249
# P'_topo (s/s)    =  -0                +/- 1.32e-10
# P''_topo (s/s^2) =  0                 +/- 5.81e-14
# P_bary (ms)      =  N/A
# P'_bary (s/s)    =  N/A
# P''_bary (s/s^2) =  N/A
# P_orb (s)        =  N/A
# asin(i)/c (s)    =  N/A
# eccentricity     =  N/A
# w (rad)          =  N/A
# T_peri           =  N/A
######################################################
   0  1360.146
   1  1162.139
   2  924.452
   3  827.3254
   4  705.5927
   5  603.3185
   6  573.0964
   7  576.2916
   8  605.66
   9  603.0053
  10  568.1372
  11  626.8447
  12  738.5228
  13  751.1382
  14  732.7603
  15  745.0604
  16  647.2485
  17  611.5264
  18  705.8387
  19  680.5535
  20  653.2874
  21  560.3459
  22  519.5544
  23  469.8873
  24  471.8926
  25  467.7064
  26  515.3947
  27  500.8091
  28  534.8785
  29  611.7541
  30  492.2907
  31  384.8728
  32  365.9656
  33  457.9388
  34  486.0761
  35  531.722
  36  634.0987
  37  592.6252
  38  560.7012
  39  575.8713
  40  455.1497
  41  368.4719
  42  507.4277
  43  628.9668
  44  491.2839
  45  511.4637
  46  510.337
  47  473.7574
  48  570.791
  49  587.4277
  50  588.356
  51  618.5277
  52  599.2057
  53  485.374
  54  505.0877
  55  642.0805
  56  649.7203
  57  600.6017
  58  576.2085
  59  554.474
  60  639.5548
  61  579.884
  62  520.0595
  63  548.9731
  64  463.8397
  65  423.8632
  66  428.5912
  67  434.6139
  68  372.2497
  69  544.1739
  70  590.2589
  71  492.0415
  72  449.7425
  73  404.5177
  74  432.5233
  75  376.1097
  76  529.6329
  77  593.8613
  78  565.3705
  79  593.4245
  80  582.7835
  81  592.5386
  82  505.5535
  83  502.7412
  84  477.3559
  85  500.4152
  86  509.2552
  87  545.4009
  88  518.9986
  89  504.6945
  90  570.9535
  91  531.7263
  92  623.2055
  93  731.5214
  94  615.28
  95  579.3787
  96  462.2888
  97  569.064
  98  585.595
  99  694.0526
 100  682.116
 101  616.4614
 102  577.08
 103  533.5381
 104  547.3804
 105  574.2489
 106  680.9701
 107  719.692
 108  490.0127
 109  528.9736
 110  613.5097
 111  594.3071
 112  572.5296
 113  503.7837
 114  525.2462
 115  498.3856
 116  462.4702
 117  453.6974
 118  399.8533
 119  438.3576
 120  466.2065
 121  500.5649
 122  571.807
 123  600.8675
 124  573.8333
 125  559.201
 126  620.9764
 127  515.5926
 128  564.1938
 129  524.91
 130  520.6164
 131  526.7232
 132  456.303
 133  536.2402
 134  598.9394
 135  642.8375
 136  631.5704
 137  618.2631
 138  596.7321
 139  611.2429
 140  591.9721
 141  762.6815
 142  789.4707
 143  500.1074
 144  524.4138
 145  553.1245
 146  640.3174
 147  599.457
 148  619.4156
 149  674.3107
 150  692.8383
 151  692.7099
 152  663.4668
 153  560.0593
 154  527.9421
 155  514.0746
 156  572.7593
 157  551.5498
 158  495.562
 159  504.9713
 160  479.9525
 161  654.8356
 162  628.028
 163  638.825
 164  671.538
 165  523.144
 166  483.0677
 167  506.3423
 168  535.0728
 169  553.5449
 170  534.9382
 171  484.0194
 172  543.3358
 173  632.6058
 174  541.1732
 175  498.5991
 176  543.8595
 177  530.5961
 178  606.7083
 179  570.8162
 180  520.4246
 181  469.6375
 182  488.0648
 183  592.8765
 184  576.2741
 185  508.3722
 186  639.4955
 187  680.3738
 188  598.6649
 189  617.6855
 190  693.7316
 191  641.3314
 192  642.4294
 193  534.1111
 194  560.4201
 195  605.2621
 196  598.7971
 197  473.9734
 198  496.9546
 199  459.5625
 200  517.6296
 201  496.3468
 202  461.9727
 203  471.4292
 204  554.2178
 205  495.5287
 206  450.3689
 207  553.449
 208  559.7521
 209  494.4229
 210  436.53
 211  515.39
 212  503.1622
 213  487.1166
 214  572.2011
 215  489.2545
 216  619.9522
 217  597.7794
 218  565.3557
 219  655.5656
 220  600.3959
 221  669.8707
 222  661.7627
 223  669.0633
 224  607.0421
 225  638.4077
 226  652.9372
 227  620.4382
 228  563.6124
 229  567.1637
 230  501.7032
 231  576.9762
 232  534.004
 233  542.1562
 234  661.2333
 235  590.16
 236  634.1071
 237  753.5891
 238  737.7352
 239  680.4509
 240  532.0374
 241  644.738
 242  699.6255
 243  689.1481
 244  635.8306
 245  669.238
 246  736.329
 247  652.293
 248  723.6459
 249  744.1826
 250  667.0025
 251  701.83
 252  663.303
 253  602.0464
 254  590.3417
 255  522.3231
 256  555.9427
 257  667.8589
 258  613.4585
 259  605.5341
 260  644.0964
 261  609.431
 262  597.9202
 263  618.6776
 264  706.4892
 265  643.8807
 266  639.305
 267  668.533
 268  638.5464
 269  761.1823
 270  776.5757
 271  646.9578
 272  624.2215
 273  755.0602
 274  710.9384
 275  684.099
 276  731.0393
 277  695.9111
 278  584.3486
 279  629.2988
 280  647.6345
 281  521.9203
 282  483.3878
 283  533.2337
 284  641.9149
 285  735.9417
 286  631.2805
 287  582.8761
 288  637.6145
 289  593.1034
 290  453.5697
 291  425.0457
 292  430.0858
 293  412.3295
 294  545.2201
 295  565.0262
 296  499.1677
 297  466.0776
 298  406.5904
 299  607.3644
 300  626.5739
 301  483.7774
 302  437.4991
 303  495.4147
 304  513.6005
 305  514.3398
 306  583.916
 307  583.2882
 308  603.5133
 309  630.1546
 310  556.932
 311  559.9249
 312  569.4669
 313  531.2009
 314  560.404
 315  575.8383
 316  530.9648
 317  464.4828
 318  502.5223
 319  552.0934
 320  463.6111
 321  564.8223
 322  478.8573
 323  549.452
 324  520.571
 325  556.201
 326  630.8813
 327  664.9528
 328  585.6968
 329  457.7561
 330  496.4792
 331  440.2213
 332  571.4435
 333  591.7961
 334  548.6673
 335  457.9579
 336  463.2977
 337  638.2072
 338  585.3257
 339  512.4169
 340  495.9222
 341  481.7709
 342  535.7863
 343  598.2584
 344  535.386
 345  456.8899
 346  616.4447
 347  545.3032
 348  571.992
 349  573.809
 350  535.7065
 351  550.7474
 352  635.6666
 353  582.2709
 354  552.5816
 355  497.5678
 356  536.9031
 357  457.1192
 358  540.0521
 359  581.1605
 360  588.2112
 361  526.224
 362  466.3151
 363  500.1195
 364  588.85
 365  580.1993
 366  547.9522
 367  611.7166
 368  691.7077
 369  541.0339
 370  585.8256
 371  523.0165
 372  463.2379
 373  479.1664
 374  404.8474
 375  394.657
 376  466.443
 377  587.0949
 378  637.7654
 379  595.2146
 380  535.2784
 381  578.243
 382  586.7077
 383  543.1218
 384  570.4078
 385  573.8044
 386  649.9763
 387  694.8911
 388  619.3663
 389  634.2858
 390  650.7001
 391  649.0798
 392  711.3013
 393  754.7007
 394  815.4567
 395  811.7015
 396  694.463
 397  716.673
 398  641.1411
 399  751.3088
 400  734.8207
 401  715.933
 402  570.1663
 403  675.3992
 404  689.1332
 405  719.3448
 406  767.5357
 407  743.7979
 408  708.2906
 409  581.6235
 410  506.28
 411  568.0101
 412  620.714
 413  729.1456
 414  688.0172
 415  718.5568
 416  683.2758
 417  612.7727
 418  632.7136
 419  691.4742
 420  586.1549
 421  583.0634
 422  625.1417
 423  527.3949
 424  615.4882
 425  659.8582
 426  691.3069
 427  756.9435
 428  644.8827
 429  660.9803
 430  653.3267
 431  656.9804
 432  558.8337
 433  450.2277
 434  544.3071
 435  695.0981
 436  732.7018
 437  708.9542
 438  587.9131
 439  490.8652
 440  562.9594
 441  640.5169
 442  610.1748
 443  521.5412
 444  567.4335
 445  580.1744
 446  594.3956
 447  639.211
 448  597.2785
 449  614.0366
 450  619.2328
 451  579.4077
 452  558.8607
 453  528.2159
 454  612.9078
 455  557.9597
 456  540.6775
 457  651.8707
 458  782.7841
 459  575.5272
 460  483.2526
 461  458.2092
 462  580.0577
 463  590.4624
 464  500.8273
 465  447.275
 466  388.787
 467  454.3863
 468  503.1498
 469  596.0779
 470  607.0093
 471  600.5247
 472  576.9167
 473  574.3228
 474  630.7151
 475  535.3474
 476  441.9305
 477  575.5612
 478  631.9189
 479  661.7457
 480  592.0491
 481  635.9987
 482  592.3934
 483  615.5575
 484  566.6875
 485  644.4529
 486  570.8355
 487  415.281
 488  590.4057
 489  665.5615
 490  692.3466
 491  676.898
 492  762.498
 493  694.3757
 494  491.3463
 495  615.6147
 496  617.1818
 497  501.7097
 498  529.4428
 499  505.6066
 500  659.7567
 501  654.5759
 502  516.4938
 503  505.5065
 504  565.0389
 505  595.0834
 506  604.8428
 507  642.1537
 508  741.8388
 509  881.5037
 510  1061.126
 511  1321.681
