# Input file       =  1210565923.116018_cleaned.dat
# Candidate        =  PSR_0332+5434
# Telescope        =  AR
# Epoch_topo       =  58255.179885602061
# Epoch_bary       =  N/A
# T_sample         =  0.002
# Data Folded      =  7143424
# Data Avg         =  0.144282248462849
# Data StdDev      =  5.55040671236084 
# Profile Bins     =  1024
# Profile Avg      =  1006.50941344656 
# Profile StdDev   =  463.583578609294 
# Reduced chi-sqr  =  0.588
# Prob(Noise)      <  1   (~0.0 sigma)
# P_topo (ms)      =  714.531448094561  +/- 6.14e-05
# P'_topo (s/s)    =  -0                +/- 3.33e-11
# P''_topo (s/s^2) =  0                 +/- 1.51e-14
# P_bary (ms)      =  N/A
# P'_bary (s/s)    =  N/A
# P''_bary (s/s^2) =  N/A
# P_orb (s)        =  N/A
# asin(i)/c (s)    =  N/A
# eccentricity     =  N/A
# w (rad)          =  N/A
# T_peri           =  N/A
######################################################
   0  941.2455
   1  767.2906
   2  810.7593
   3  858.4855
   4  870.5532
   5  943.6777
   6  1036.782
   7  1027.802
   8  932.9984
   9  920.0984
  10  904.4938
  11  777.0496
  12  810.5081
  13  924.7484
  14  1021.598
  15  972.2374
  16  859.6107
  17  898.2354
  18  946.7346
  19  1072.179
  20  1035.08
  21  1026.829
  22  1007.586
  23  932.1141
  24  1058.505
  25  1057.201
  26  1015.2
  27  930.9
  28  889.1494
  29  873.1299
  30  867.6868
  31  1080.96
  32  1321.237
  33  1144.993
  34  1045.644
  35  942.2693
  36  1038.194
  37  905.9786
  38  1049.034
  39  1096.391
  40  1083.212
  41  1113.551
  42  1109.787
  43  964.2127
  44  716.1226
  45  707.9442
  46  779.8296
  47  948.2397
  48  978.6344
  49  1114.799
  50  999.3046
  51  994.7371
  52  1049.354
  53  1066.052
  54  1166.178
  55  1222.939
  56  1412.258
  57  1297.288
  58  1213.167
  59  1085.291
  60  985.2585
  61  1016.559
  62  1011.921
  63  1059.266
  64  1076.405
  65  1037.519
  66  976.8215
  67  963.7864
  68  888.1702
  69  857.4613
  70  900.2022
  71  1049.07
  72  1182.432
  73  1176.716
  74  1240.365
  75  1136.509
  76  923.3926
  77  797.804
  78  845.3629
  79  1000.883
  80  1080.186
  81  1088.943
  82  1078.783
  83  1103.094
  84  980.2409
  85  856.9208
  86  855.5032
  87  888.2758
  88  919.8915
  89  1034.627
  90  1133.347
  91  1123.442
  92  1102.351
  93  1042.578
  94  893.8068
  95  820.7992
  96  936.0751
  97  1078.798
  98  1048.16
  99  947.6423
 100  1021.346
 101  982.2598
 102  859.1396
 103  891.8133
 104  1127.945
 105  1207.062
 106  1082.094
 107  996.9748
 108  908.3807
 109  778.3509
 110  718.0631
 111  914.06
 112  951.5793
 113  965.9519
 114  936.7109
 115  1024.976
 116  1095.134
 117  1077.96
 118  1081.464
 119  1084.964
 120  1111.102
 121  1296.335
 122  1381.666
 123  1345.977
 124  1187.106
 125  1153.453
 126  989.4361
 127  744.012
 128  589.5634
 129  727.742
 130  716.7903
 131  730.6591
 132  1096.986
 133  1192.03
 134  1152.038
 135  967.3225
 136  1087.189
 137  976.1317
 138  1055.852
 139  1218
 140  1226.365
 141  775.9454
 142  644.4197
 143  700.9399
 144  752.4521
 145  784.1185
 146  830.5679
 147  949.6898
 148  915.336
 149  854.2942
 150  929.0548
 151  912.2487
 152  940.873
 153  921.8117
 154  1011.686
 155  950.7794
 156  831.3904
 157  956.054
 158  1031.255
 159  774.3404
 160  637.5433
 161  743.545
 162  855.7644
 163  779.7152
 164  700.8716
 165  788.9454
 166  723.7562
 167  687.2066
 168  781.3396
 169  828.9584
 170  633.8642
 171  627.7191
 172  861.7583
 173  1081.639
 174  1025.958
 175  932.3864
 176  910.4705
 177  774.5023
 178  719.5117
 179  699.8869
 180  774.5878
 181  870.2463
 182  916.3923
 183  902.3425
 184  804.3121
 185  879.5541
 186  984.8029
 187  1075.719
 188  1030.184
 189  969.932
 190  907.1196
 191  844.9326
 192  777.7049
 193  766.584
 194  865.8929
 195  879.1493
 196  930.6692
 197  1140.032
 198  1257.853
 199  1174.693
 200  964.7383
 201  849.4136
 202  761.3109
 203  880.6371
 204  1041.133
 205  1198.536
 206  1054.971
 207  968.3545
 208  902.4722
 209  790.8741
 210  758.027
 211  751.415
 212  958.7689
 213  1015.613
 214  1063.343
 215  955.783
 216  836.4726
 217  723.0316
 218  871.8448
 219  964.0099
 220  1104.758
 221  1155.874
 222  1387.49
 223  1325.885
 224  1099.481
 225  828.2358
 226  853.0947
 227  774.8783
 228  692.0504
 229  823.7486
 230  973.4827
 231  1068.413
 232  1006.748
 233  1005.196
 234  978.8663
 235  1049.092
 236  1204.315
 237  1320.671
 238  1186.465
 239  1121.745
 240  942.1403
 241  848.0992
 242  653.8083
 243  736.7057
 244  960.1019
 245  1079.75
 246  1088.3
 247  1100.167
 248  1012.668
 249  1060.668
 250  1108.047
 251  1248.442
 252  1217.974
 253  1269.049
 254  1168.704
 255  1116.273
 256  904.2476
 257  771.5817
 258  847.6937
 259  867.0778
 260  718.6639
 261  711.1929
 262  889.2314
 263  1117.634
 264  974.2078
 265  851.3883
 266  798.1582
 267  825.1926
 268  894.7288
 269  999.718
 270  981.2255
 271  981.4829
 272  1045.464
 273  1157.102
 274  1080.345
 275  897.5834
 276  905.4423
 277  981.7441
 278  929.3086
 279  768.8576
 280  746.1246
 281  865.0308
 282  931.2102
 283  945.317
 284  1002.868
 285  1142.243
 286  1280.721
 287  1344.184
 288  1459.119
 289  1201.133
 290  1235.442
 291  1224.986
 292  1230.08
 293  955.6122
 294  872.041
 295  974.6133
 296  1016.854
 297  881.4043
 298  958.1987
 299  964.2447
 300  1026.573
 301  1129.376
 302  1250.287
 303  1288.257
 304  1127.183
 305  1248.38
 306  1199.247
 307  915.8533
 308  652.6072
 309  767.548
 310  867.2111
 311  939.838
 312  934.9822
 313  1107.726
 314  1171.257
 315  1208.212
 316  1269.405
 317  1221.184
 318  1292.087
 319  1243.78
 320  1360.716
 321  1206.777
 322  1024.786
 323  1022.866
 324  1019.074
 325  989.4526
 326  1008.706
 327  1190.957
 328  1378.843
 329  1265.162
 330  1316.101
 331  1340.696
 332  1242.386
 333  1028.213
 334  973.6136
 335  954.9845
 336  983.4493
 337  995.6379
 338  1156.942
 339  1082.579
 340  1074.856
 341  906.131
 342  981.7106
 343  919.2039
 344  1002.187
 345  991.8007
 346  1009.917
 347  963.3488
 348  951.9706
 349  910.0079
 350  750.8282
 351  832.939
 352  981.2063
 353  1312.975
 354  1369.651
 355  1439.088
 356  1486.247
 357  1403.772
 358  1225.559
 359  979.6564
 360  916.2363
 361  817.6671
 362  921.4325
 363  1020.002
 364  1026.393
 365  912.0417
 366  1160.506
 367  1164.823
 368  1095.084
 369  989.9643
 370  1322.784
 371  1397.695
 372  1161.695
 373  1049.243
 374  1042.95
 375  1029.384
 376  947.9108
 377  999.5636
 378  1077.891
 379  1207.978
 380  1263.114
 381  1272.936
 382  1215.875
 383  1114.541
 384  1021.264
 385  952.1132
 386  923.371
 387  988.8756
 388  1168.298
 389  1182.583
 390  993.9846
 391  939.0057
 392  1008.844
 393  1025.539
 394  1009.211
 395  1104.283
 396  1333.31
 397  1384.214
 398  1299.236
 399  1109.595
 400  1002.129
 401  957.5371
 402  1043.737
 403  1266.985
 404  1234.686
 405  1122.615
 406  976.9908
 407  976.1138
 408  955.4648
 409  958.3657
 410  973.1926
 411  987.2868
 412  963.6929
 413  1021.355
 414  1023.682
 415  1039.172
 416  1189.987
 417  1263.24
 418  1217.211
 419  1077.388
 420  1137.137
 421  1020.949
 422  807.1717
 423  649.8186
 424  790.2868
 425  980.7271
 426  907.6035
 427  835.3671
 428  884.7056
 429  1046.616
 430  942.3369
 431  954.4406
 432  820.6658
 433  812.3151
 434  853.7955
 435  1157.685
 436  1251.311
 437  1019.52
 438  908.8488
 439  893.6797
 440  943.573
 441  902.1028
 442  909.1241
 443  910.8011
 444  914.4149
 445  867.1029
 446  915.0555
 447  846.7348
 448  870.172
 449  884.7674
 450  893.9397
 451  915.5031
 452  958.5416
 453  1213.912
 454  1317.743
 455  1251.612
 456  1123.329
 457  1152.197
 458  1091.358
 459  984.5995
 460  762.3702
 461  870.7021
 462  899.5327
 463  909.324
 464  815.4884
 465  805.0011
 466  709.6698
 467  906.577
 468  1059.085
 469  1120.432
 470  963.683
 471  909.4805
 472  828.2941
 473  585.1419
 474  495.3434
 475  547.3564
 476  699.646
 477  702.3605
 478  734.7285
 479  733.5557
 480  819.2629
 481  898.7193
 482  1115.154
 483  1225.903
 484  1300.865
 485  1242.614
 486  1277.293
 487  1150.664
 488  1186.73
 489  1068.099
 490  1004.675
 491  758.3095
 492  708.5714
 493  831.3915
 494  900.4798
 495  917.1995
 496  1099.296
 497  1087.632
 498  1045.573
 499  997.1497
 500  1150.387
 501  1032.421
 502  973.496
 503  1038.609
 504  1085.313
 505  977.3393
 506  938.281
 507  1116.001
 508  1085.006
 509  993.8469
 510  907.8541
 511  897.1931
 512  898.7234
 513  842.364
 514  1010.521
 515  1024.535
 516  980.0047
 517  978.0877
 518  1056.696
 519  1158.641
 520  1142.327
 521  1205.628
 522  1342.887
 523  1218.472
 524  1215.613
 525  1082.069
 526  1122.855
 527  973.0342
 528  1092.242
 529  1226.912
 530  1267.975
 531  1124.883
 532  1145.656
 533  1107.021
 534  1097.135
 535  1106.292
 536  1212.591
 537  1055.049
 538  909.7953
 539  1000.984
 540  1082.649
 541  967.8395
 542  953.2394
 543  946.3848
 544  1029.482
 545  1037.643
 546  1178.977
 547  1331.332
 548  1312.99
 549  1350.898
 550  1390.304
 551  1340.465
 552  1246.722
 553  1004.556
 554  1019.562
 555  935.5139
 556  857.5098
 557  864.7394
 558  1022.811
 559  1113.56
 560  1094.142
 561  1312.787
 562  1482.86
 563  1364.102
 564  1250.979
 565  1205.438
 566  1273.822
 567  1069.923
 568  1067.454
 569  1099.896
 570  1082.047
 571  996.3156
 572  931.9545
 573  911.5137
 574  833.891
 575  886.3093
 576  1019.107
 577  1009.444
 578  804.0143
 579  654.0734
 580  810.0224
 581  924.102
 582  1023.963
 583  993.209
 584  1164.215
 585  1171.538
 586  1286.874
 587  1364.629
 588  1444.541
 589  1364.912
 590  1358.009
 591  1338.152
 592  1292.788
 593  1279.922
 594  1631.13
 595  1826.666
 596  1744.033
 597  1801.028
 598  1879.896
 599  1986.253
 600  1931.15
 601  2122.82
 602  2188.072
 603  1967.865
 604  1611.955
 605  1406.437
 606  1114.557
 607  1036.462
 608  913.8702
 609  1046.671
 610  1145.059
 611  1160.17
 612  1162.462
 613  1152.525
 614  1186.303
 615  1219.863
 616  1343.717
 617  1331.63
 618  1245.786
 619  1055.412
 620  982.1346
 621  839.1226
 622  813.0922
 623  805.0259
 624  794.2203
 625  890.7115
 626  1167.392
 627  1432.458
 628  1470.138
 629  1408.839
 630  1375.889
 631  1171.285
 632  1166.906
 633  1269.046
 634  1408.638
 635  1271.433
 636  1120.311
 637  1118.207
 638  1022.898
 639  844.0065
 640  698.4218
 641  743.3123
 642  767.7624
 643  797.4581
 644  984.9561
 645  1072.139
 646  951.9444
 647  847.5553
 648  1057.937
 649  1291.39
 650  1337.183
 651  1471.977
 652  1554.643
 653  1335.749
 654  954.7028
 655  870.6931
 656  888.7654
 657  823.0811
 658  693.4023
 659  849.3134
 660  871.994
 661  760.3929
 662  855.2348
 663  954.7964
 664  902.2668
 665  890.0731
 666  1013.984
 667  1139.697
 668  1025.475
 669  1047.649
 670  1027.723
 671  814.7735
 672  748.9492
 673  814.9815
 674  911.6682
 675  948.733
 676  1069.142
 677  1102.575
 678  981.4487
 679  749.6252
 680  903.7006
 681  1073.492
 682  1220.793
 683  954.6539
 684  940.7803
 685  908.5265
 686  890.9056
 687  924.3925
 688  1016.866
 689  944.0636
 690  872.1631
 691  920.2548
 692  1013.968
 693  1012.076
 694  945.6878
 695  923.2635
 696  752.2814
 697  825.6966
 698  877.6078
 699  966.1733
 700  840.9359
 701  995.5223
 702  1119.697
 703  1053.513
 704  790.1677
 705  721.4609
 706  849.4611
 707  971.614
 708  905.5496
 709  845.583
 710  740.6331
 711  657.1867
 712  632.8751
 713  700.9056
 714  836.7426
 715  1029.896
 716  1106.61
 717  1225.984
 718  1166.642
 719  1256.91
 720  1010.479
 721  873.66
 722  645.7585
 723  538.6937
 724  900.0458
 725  1126.203
 726  1183.485
 727  1035.558
 728  908.157
 729  820.0229
 730  813.8321
 731  834.4156
 732  854.0496
 733  784.445
 734  942.8519
 735  930.3494
 736  846.6204
 737  762.3018
 738  715.4197
 739  639.309
 740  717.3196
 741  847.1381
 742  1005.825
 743  972.194
 744  911.9603
 745  801.7213
 746  772.8922
 747  830.2757
 748  789.338
 749  797.9377
 750  877.762
 751  932.9201
 752  991.6116
 753  921.1094
 754  824.3991
 755  856.2057
 756  974.2584
 757  1067.103
 758  952.7622
 759  889.9909
 760  966.2656
 761  1010.841
 762  1014.457
 763  1043.286
 764  937.8879
 765  991.0848
 766  914.8692
 767  1059.762
 768  775.4072
 769  692.9052
 770  580.6362
 771  777.5499
 772  751.3594
 773  706.0363
 774  779.4358
 775  970.0512
 776  1150.609
 777  1163.003
 778  1201.626
 779  1200.817
 780  1173.41
 781  1128.12
 782  1178.379
 783  1123.592
 784  1089.915
 785  925.548
 786  892.6448
 787  695.1767
 788  774.9652
 789  847.8207
 790  867.7154
 791  514.0726
 792  698.2325
 793  857.2965
 794  1061.117
 795  1002.791
 796  1056.198
 797  1047.255
 798  935.6285
 799  1026.021
 800  1068.225
 801  963.6451
 802  668.0087
 803  667.7671
 804  585.5042
 805  633.4618
 806  619.924
 807  868.6963
 808  934.7803
 809  923.9764
 810  935.7842
 811  909.7623
 812  950.4041
 813  918.049
 814  867.0652
 815  927.1926
 816  854.0895
 817  896.8243
 818  830.582
 819  797.4217
 820  722.0214
 821  938.1639
 822  911.606
 823  974.4615
 824  750.2909
 825  983.059
 826  981.5521
 827  969.7339
 828  957.5605
 829  859.7732
 830  915.3051
 831  984.8065
 832  1216.595
 833  1143.525
 834  886.9449
 835  894.4564
 836  954.5891
 837  943.3289
 838  753.473
 839  857.665
 840  972.8506
 841  905.6581
 842  766.4724
 843  906.1813
 844  954.8382
 845  957.9308
 846  922.543
 847  1006.583
 848  992.477
 849  1006.584
 850  1071.5
 851  1017.166
 852  929.9713
 853  900.54
 854  1058.362
 855  1034.74
 856  1075.101
 857  1206.735
 858  1248.479
 859  1120.646
 860  1115.046
 861  1162.804
 862  982.673
 863  906.9656
 864  883.8867
 865  1044.769
 866  971.0631
 867  1051.259
 868  1064.4
 869  1012.31
 870  948.9579
 871  951.3103
 872  915.1689
 873  909.1895
 874  837.4042
 875  1117.392
 876  1142.944
 877  1216.634
 878  1106.043
 879  1091.391
 880  989.1464
 881  957.8198
 882  1037.187
 883  1167.081
 884  1100.537
 885  1086.844
 886  970.627
 887  872.0768
 888  772.632
 889  801.772
 890  1106.699
 891  1202.195
 892  1128.968
 893  1106.602
 894  1154.574
 895  1125.574
 896  1086.367
 897  1062.698
 898  962.827
 899  949.4017
 900  1047.448
 901  967.7814
 902  771.3124
 903  612.4001
 904  706.5729
 905  865.3967
 906  990.8458
 907  987.5057
 908  1077.677
 909  1070.423
 910  1104.858
 911  1130.197
 912  1329.019
 913  1528.865
 914  1427.893
 915  1318.191
 916  1056.013
 917  908.084
 918  895.037
 919  951.5664
 920  891.5448
 921  902.7122
 922  1032.016
 923  1232.326
 924  1084.159
 925  1147.858
 926  1156.409
 927  1200.626
 928  1066.482
 929  1124.768
 930  1260.261
 931  1312.465
 932  1255.978
 933  1105.049
 934  828.2518
 935  600.252
 936  651.7837
 937  783.9138
 938  802.0435
 939  739.6446
 940  892.312
 941  926.2191
 942  931.975
 943  772.9224
 944  931.8448
 945  1066.392
 946  1249.114
 947  1189.004
 948  1212.018
 949  1140.001
 950  1123.37
 951  1013.104
 952  924.4291
 953  787.1111
 954  873.5292
 955  1012.17
 956  1032.612
 957  741.3858
 958  668.124
 959  634.8826
 960  716.5022
 961  850.8141
 962  994.8163
 963  1183.258
 964  1185.616
 965  1180.482
 966  952.6325
 967  799.0054
 968  744.6866
 969  815.0112
 970  848.0674
 971  857.5292
 972  992.5305
 973  1121.577
 974  1143.076
 975  1016.936
 976  1126.599
 977  1239.848
 978  1191.434
 979  1084.56
 980  999.8495
 981  969.4258
 982  950.8513
 983  1029.31
 984  982.8178
 985  885.6011
 986  924.1712
 987  1125.218
 988  1123.721
 989  1111.003
 990  1062.188
 991  1127.54
 992  987.204
 993  907.0196
 994  928.2833
 995  942.7706
 996  969.7724
 997  1045.273
 998  1139.329
 999  1083.328
1000  973.9792
1001  850.8563
1002  840.1735
1003  825.9264
1004  894.0842
1005  1030.577
1006  1052.212
1007  995.1285
1008  908.4642
1009  839.3492
1010  834.7853
1011  1063.947
1012  1106.255
1013  1195.975
1014  1202.198
1015  1350.289
1016  1315.865
1017  1005.147
1018  913.6779
1019  973.9896
1020  1121.313
1021  1024.18
1022  979.2343
1023  1045.422
