# Input file       =  1211442149.106837_cleaned.dat
# Candidate        =  PSR_0332+5434
# Telescope        =  AR
# Epoch_topo       =  58265.321390125428
# Epoch_bary       =  N/A
# T_sample         =  0.002
# Data Folded      =  7340032
# Data Avg         =  0.0378771347036232
# Data StdDev      =  1.00008403467366 
# Profile Bins     =  512
# Profile Avg      =  543.008218592126 
# Profile StdDev   =  119.743098103404 
# Reduced chi-sqr  =  1.234
# Prob(Noise)      <  0.000229   (~3.5 sigma)
# P_topo (ms)      =  714.521508889273  +/- 0.000609
# P'_topo (s/s)    =  -0                +/- 3.21e-10
# P''_topo (s/s^2) =  0                 +/- 1.42e-13
# P_bary (ms)      =  N/A
# P'_bary (s/s)    =  N/A
# P''_bary (s/s^2) =  N/A
# P_orb (s)        =  N/A
# asin(i)/c (s)    =  N/A
# eccentricity     =  N/A
# w (rad)          =  N/A
# T_peri           =  N/A
######################################################
   0  1113.636
   1  1093.111
   2  886.7468
   3  689.5332
   4  594.9661
   5  576.1486
   6  530.8766
   7  561.3549
   8  638.7041
   9  653.0938
  10  678.3114
  11  611.7472
  12  510.0769
  13  464.5972
  14  566.3703
  15  573.0546
  16  662.5335
  17  629.8077
  18  394.3385
  19  409.3662
  20  517.6935
  21  542.3739
  22  589.9097
  23  530.1208
  24  504.6624
  25  521.4661
  26  490.1785
  27  569.7128
  28  665.4213
  29  652.5507
  30  611.1943
  31  445.3627
  32  483.5109
  33  571.8431
  34  618.8825
  35  636.2344
  36  614.604
  37  509.2041
  38  570.9756
  39  614.5987
  40  557.1349
  41  659.1411
  42  620.0325
  43  627.5851
  44  670.437
  45  669.4066
  46  598.7758
  47  657.0494
  48  684.2868
  49  587.3873
  50  586.2029
  51  666.2143
  52  654.095
  53  530.7971
  54  623.2316
  55  631.1215
  56  606.8341
  57  599.1763
  58  612.9343
  59  588.3237
  60  582.3499
  61  573.6188
  62  506.1527
  63  578.7026
  64  449.4262
  65  462.5458
  66  489.6909
  67  453.6601
  68  534.1214
  69  508.0615
  70  536.8069
  71  543.4766
  72  528.3471
  73  512.9423
  74  478.2975
  75  497.0284
  76  518.8368
  77  615.9138
  78  551.2366
  79  485.3415
  80  509.2563
  81  512.9756
  82  565.351
  83  604.6446
  84  480.6452
  85  467.9924
  86  580.2305
  87  693.4697
  88  589.624
  89  557.3488
  90  714.8789
  91  704.6622
  92  622.6044
  93  625.9717
  94  600.2809
  95  584.1003
  96  588.0878
  97  709.3838
  98  699.7453
  99  676.2852
 100  652.4991
 101  665.7078
 102  662.3364
 103  608.2682
 104  658.0668
 105  657.4604
 106  661.689
 107  655.6641
 108  598.7062
 109  504.3143
 110  497.5047
 111  582.6597
 112  592.8213
 113  571.8372
 114  497.6329
 115  544.1803
 116  526.2993
 117  576.2823
 118  625.186
 119  583.738
 120  630.9794
 121  642.2824
 122  583.2359
 123  448.9044
 124  523.8993
 125  571.9054
 126  570.9764
 127  586.4226
 128  551.9359
 129  568.8663
 130  539.8851
 131  525.6041
 132  616.6907
 133  611.9555
 134  589.6886
 135  601.9754
 136  494.2191
 137  557.5654
 138  621.2745
 139  548.7062
 140  631.5535
 141  639.7415
 142  638.8114
 143  572.3018
 144  619.9775
 145  611.3314
 146  608.6432
 147  647.6464
 148  647.4819
 149  633.3041
 150  644.028
 151  562.8157
 152  593.4454
 153  586.889
 154  566.7154
 155  561.7864
 156  559.9683
 157  539.7285
 158  591.302
 159  672.8962
 160  623.8922
 161  555.6989
 162  669.4408
 163  599.5063
 164  562.3296
 165  509.5999
 166  530.2949
 167  512.3905
 168  467.6085
 169  552.0729
 170  510.3082
 171  542.2679
 172  613.3287
 173  602.391
 174  597.9789
 175  597.9395
 176  603.1814
 177  604.3326
 178  597.2717
 179  595.6015
 180  589.6888
 181  769.9139
 182  740.4025
 183  625.3632
 184  588.1101
 185  630.0373
 186  629.873
 187  642.9647
 188  677.1987
 189  509.0278
 190  575.9117
 191  622.0735
 192  714.0888
 193  647.8214
 194  701.2828
 195  669.1616
 196  641.2496
 197  640.6418
 198  586.9111
 199  625.9091
 200  677.9015
 201  710.3409
 202  649.0907
 203  553.6176
 204  554.0617
 205  620.2429
 206  592.0204
 207  562.7478
 208  667.9199
 209  615.2077
 210  505.0399
 211  561.3742
 212  620.7435
 213  540.7511
 214  535.9507
 215  617.2
 216  554.6186
 217  575.2759
 218  737.3667
 219  668.4385
 220  586.0057
 221  602.3692
 222  483.6293
 223  469.3683
 224  479.9774
 225  644.6786
 226  603.7393
 227  605.5804
 228  585.4507
 229  551.7722
 230  571.7242
 231  571.6051
 232  692.1987
 233  610.8384
 234  501.3162
 235  492.5931
 236  505.8543
 237  530.287
 238  517.9807
 239  550.6677
 240  403.285
 241  553.082
 242  548.6047
 243  561.5078
 244  499.1975
 245  554.2192
 246  508.2419
 247  440.7614
 248  385.9926
 249  465.4605
 250  467.6302
 251  498.5624
 252  587.5866
 253  589.3177
 254  478.5509
 255  543.4521
 256  596.0689
 257  610.2017
 258  614.9913
 259  655.636
 260  584.1337
 261  488.7157
 262  450.2076
 263  553.2021
 264  434.0587
 265  417.9828
 266  489.6104
 267  558.9733
 268  499.7719
 269  428.0464
 270  514.1066
 271  545.7668
 272  425.3586
 273  407.9112
 274  494.5987
 275  464.2012
 276  461.1622
 277  430.9756
 278  476.209
 279  448.8396
 280  445.3978
 281  494.6672
 282  514.2551
 283  473.0193
 284  426.8891
 285  416.6461
 286  428.6237
 287  453.8383
 288  388.3719
 289  349.8019
 290  435.3551
 291  484.3745
 292  533.1186
 293  438.5746
 294  520.472
 295  450.5905
 296  419.1657
 297  385.9597
 298  468.9571
 299  532.0179
 300  430.7253
 301  413.959
 302  418.0065
 303  399.0002
 304  484.9882
 305  511.5001
 306  545.6157
 307  462.9516
 308  420.4464
 309  341.6839
 310  417.965
 311  454.4909
 312  373.4189
 313  411.8778
 314  444.9858
 315  453.8924
 316  434.1904
 317  519.1929
 318  523.6063
 319  474.1199
 320  520.5366
 321  439.6342
 322  426.5289
 323  445.4412
 324  456.6498
 325  427.9079
 326  316.1511
 327  335.9739
 328  454.5032
 329  455.9645
 330  462.9432
 331  387.7466
 332  518.7425
 333  550.4686
 334  560.9614
 335  439.7283
 336  439.1901
 337  425.814
 338  486.4692
 339  382.2336
 340  411.6267
 341  452.2389
 342  480.3459
 343  450.6689
 344  489.379
 345  484.899
 346  547.54
 347  458.1671
 348  437.1196
 349  406.3096
 350  394.3901
 351  400.5967
 352  368.3802
 353  357.7807
 354  414.5739
 355  346.4764
 356  459.5347
 357  484.916
 358  507.9205
 359  434.1009
 360  506.3517
 361  523.4133
 362  483.8871
 363  520.934
 364  520.1489
 365  462.2371
 366  411.5028
 367  497.9679
 368  492.0671
 369  429.5777
 370  423.0547
 371  492.2399
 372  434.3142
 373  477.4909
 374  493.9692
 375  469.7997
 376  506.707
 377  611.8421
 378  594.9709
 379  464.4277
 380  548.0502
 381  575.1005
 382  541.1519
 383  622.2384
 384  668.1638
 385  597.4471
 386  531.8336
 387  581.558
 388  605.0659
 389  574.4942
 390  537.7009
 391  454.4594
 392  563.6685
 393  493.0992
 394  425.033
 395  564.8015
 396  606.6697
 397  528.0798
 398  514.9334
 399  422.3397
 400  479.5176
 401  469.2055
 402  486.6624
 403  478.3518
 404  460.297
 405  519.6295
 406  471.6437
 407  450.0928
 408  431.556
 409  500.5809
 410  560.4111
 411  522.7234
 412  504.7946
 413  495.7636
 414  540.3672
 415  537.2199
 416  483.9477
 417  438.8046
 418  482.61
 419  466.7419
 420  453.6496
 421  373.3645
 422  367.0883
 423  452.7242
 424  450.0471
 425  496.9761
 426  532.0927
 427  490.2539
 428  559.7019
 429  552.051
 430  538.5778
 431  433.5944
 432  500.4476
 433  515.8811
 434  487.958
 435  562.2758
 436  558.4369
 437  569.5882
 438  542.6284
 439  540.1888
 440  487.182
 441  473.9527
 442  510.6398
 443  465.3382
 444  399.0341
 445  373.9997
 446  496.6435
 447  598.6609
 448  488.5373
 449  450.826
 450  433.6739
 451  472.6441
 452  448.1684
 453  520.5167
 454  394.1557
 455  469.0413
 456  463.6692
 457  469.0163
 458  468.5289
 459  512.1277
 460  541.3294
 461  534.7209
 462  453.5617
 463  608.6395
 464  493.5531
 465  447.1948
 466  555.9674
 467  627.3138
 468  541.0833
 469  509.2944
 470  601.5306
 471  529.9342
 472  501.2074
 473  472.6359
 474  520.3001
 475  550.5396
 476  607.0209
 477  679.7222
 478  650.1366
 479  637.0378
 480  565.9319
 481  597.2405
 482  502.244
 483  468.7335
 484  534.2762
 485  525.3483
 486  567.4941
 487  498.0497
 488  564.4067
 489  558.8173
 490  527.5037
 491  492.7332
 492  513.9247
 493  524.8812
 494  545.3088
 495  525.0133
 496  508.9851
 497  472.9046
 498  550.2557
 499  528.5846
 500  576.6028
 501  556.438
 502  477.8596
 503  499.7398
 504  638.527
 505  629.5592
 506  724.4066
 507  741.8609
 508  847.1229
 509  841.2859
 510  976.2411
 511  1078.211
