# Input file       =  1211030064.097827_cleaned.dat
# Candidate        =  PSR_0332+5434
# Telescope        =  AR
# Epoch_topo       =  58260.551887706330
# Epoch_bary       =  N/A
# T_sample         =  0.002
# Data Folded      =  7340032
# Data Avg         =  0.0956807983617338
# Data StdDev      =  1.00025393465471 
# Profile Bins     =  512
# Profile Avg      =  1371.73688041237 
# Profile StdDev   =  119.763440744016 
# Reduced chi-sqr  =  1.166
# Prob(Noise)      <  0.00565   (~2.5 sigma)
# P_topo (ms)      =  714.526617972847  +/- 5.69e-05
# P'_topo (s/s)    =  -0                +/- 3e-11
# P''_topo (s/s^2) =  0                 +/- 1.33e-14
# P_bary (ms)      =  N/A
# P'_bary (s/s)    =  N/A
# P''_bary (s/s^2) =  N/A
# P_orb (s)        =  N/A
# asin(i)/c (s)    =  N/A
# eccentricity     =  N/A
# w (rad)          =  N/A
# T_peri           =  N/A
######################################################
   0  1487.444
   1  1416.14
   2  1321.527
   3  1270.977
   4  1383.241
   5  1401.998
   6  1384.141
   7  1410.706
   8  1356.764
   9  1227.209
  10  1200.361
  11  1218.975
  12  1297.838
  13  1502.513
  14  1473.985
  15  1342.974
  16  1245.136
  17  1259.369
  18  1325.268
  19  1382.988
  20  1290.147
  21  1257.43
  22  1325.606
  23  1314.445
  24  1297.013
  25  1286.262
  26  1293.867
  27  1373.035
  28  1426.123
  29  1424.663
  30  1341.248
  31  1311.522
  32  1332.68
  33  1344.288
  34  1399.267
  35  1385.782
  36  1350.235
  37  1332.834
  38  1311.057
  39  1241.28
  40  1282.6
  41  1218.394
  42  1184.399
  43  1257
  44  1199.729
  45  1244.157
  46  1183.506
  47  1289.339
  48  1398.232
  49  1290.885
  50  1238.876
  51  1230.828
  52  1318.636
  53  1347.381
  54  1392.577
  55  1371.446
  56  1343.696
  57  1194.215
  58  1104.042
  59  1205.18
  60  1274.151
  61  1367.03
  62  1424.601
  63  1290.259
  64  1191.661
  65  1191.143
  66  1150.776
  67  1264.82
  68  1280.483
  69  1206.206
  70  1264.072
  71  1278.863
  72  1360.108
  73  1265.292
  74  1298.197
  75  1245.987
  76  1249.931
  77  1212.764
  78  1328.474
  79  1424.34
  80  1441.962
  81  1442.299
  82  1335.839
  83  1300.535
  84  1233.321
  85  1311.691
  86  1390.492
  87  1504.904
  88  1621.082
  89  1691.633
  90  1683.887
  91  1702.006
  92  1788.714
  93  1754.667
  94  1526.373
  95  1341.987
  96  1233.603
  97  1348.308
  98  1374.963
  99  1407.566
 100  1363.028
 101  1374.09
 102  1296.324
 103  1223.723
 104  1269.139
 105  1360.662
 106  1413.063
 107  1387.198
 108  1341.609
 109  1188.359
 110  1182.847
 111  1253.474
 112  1344.016
 113  1385.869
 114  1363.469
 115  1409.913
 116  1395.399
 117  1248.626
 118  1237.501
 119  1302.772
 120  1321.587
 121  1326.68
 122  1401.875
 123  1401.846
 124  1316.937
 125  1390.532
 126  1478.022
 127  1450.536
 128  1396.671
 129  1431.214
 130  1357.833
 131  1454.861
 132  1490.93
 133  1466.454
 134  1458.219
 135  1448.974
 136  1435.205
 137  1370.561
 138  1288.133
 139  1349.649
 140  1434.984
 141  1486.13
 142  1332.205
 143  1266.12
 144  1245.068
 145  1378.116
 146  1455.003
 147  1497.032
 148  1480.591
 149  1337.291
 150  1371.451
 151  1495.944
 152  1491.159
 153  1468.077
 154  1421.26
 155  1364.99
 156  1423.982
 157  1319.353
 158  1378.939
 159  1544.015
 160  1549.226
 161  1491.102
 162  1363.954
 163  1307.345
 164  1296.451
 165  1400.758
 166  1468.419
 167  1453.123
 168  1461.921
 169  1311.878
 170  1259.234
 171  1267.729
 172  1363.51
 173  1457.953
 174  1346.543
 175  1236.597
 176  1254
 177  1288.052
 178  1362.243
 179  1474.686
 180  1491.776
 181  1427.455
 182  1389.204
 183  1314.863
 184  1377.227
 185  1377.612
 186  1372.301
 187  1466.222
 188  1441.495
 189  1395.616
 190  1333.807
 191  1414.86
 192  1394.956
 193  1402.896
 194  1421.703
 195  1329.497
 196  1268.264
 197  1271.031
 198  1280.767
 199  1440.35
 200  1565.505
 201  1457.967
 202  1427.871
 203  1376.259
 204  1316.468
 205  1338.617
 206  1458.365
 207  1417.668
 208  1413.909
 209  1421.236
 210  1352.48
 211  1357.509
 212  1467.269
 213  1347.696
 214  1391.366
 215  1427.381
 216  1307.766
 217  1285.732
 218  1430.128
 219  1535.147
 220  1525.055
 221  1418.556
 222  1389.575
 223  1366.565
 224  1371.258
 225  1353.767
 226  1437.078
 227  1452.239
 228  1434.132
 229  1392.363
 230  1376.448
 231  1444.433
 232  1441.481
 233  1441.824
 234  1379.902
 235  1370.317
 236  1431.116
 237  1604.964
 238  1608.969
 239  1544.713
 240  1467.526
 241  1356.621
 242  1289.606
 243  1281.898
 244  1453.018
 245  1512.546
 246  1524.109
 247  1560.359
 248  1472.055
 249  1471.371
 250  1385.845
 251  1264.389
 252  1380.311
 253  1471.889
 254  1433.991
 255  1499.972
 256  1324.632
 257  1167.018
 258  1236.005
 259  1274.247
 260  1299.175
 261  1357.353
 262  1416.471
 263  1406.498
 264  1399.463
 265  1404.009
 266  1476.167
 267  1453.221
 268  1482.867
 269  1307.349
 270  1376.559
 271  1496.929
 272  1518.817
 273  1537.893
 274  1567.05
 275  1464.206
 276  1306.771
 277  1357.365
 278  1459.981
 279  1475.611
 280  1470.011
 281  1412.844
 282  1325.121
 283  1282.618
 284  1376.353
 285  1469.54
 286  1425.736
 287  1382.799
 288  1424.971
 289  1438.833
 290  1421.936
 291  1481.547
 292  1534.773
 293  1592.305
 294  1497.792
 295  1384.923
 296  1378.929
 297  1304.747
 298  1344.442
 299  1435.413
 300  1511.339
 301  1526.358
 302  1441.282
 303  1419.486
 304  1442.431
 305  1473.749
 306  1467.373
 307  1385.58
 308  1433.794
 309  1464.142
 310  1541.638
 311  1466.028
 312  1437.635
 313  1375.709
 314  1303.991
 315  1424.525
 316  1526.971
 317  1460.513
 318  1425.71
 319  1404.678
 320  1394.802
 321  1473.823
 322  1465.597
 323  1465.891
 324  1428.286
 325  1386.724
 326  1441.96
 327  1468.843
 328  1377.761
 329  1348.76
 330  1370.9
 331  1303.584
 332  1283.406
 333  1403.763
 334  1414.386
 335  1389.016
 336  1262.162
 337  1266.331
 338  1309.82
 339  1287.58
 340  1284.644
 341  1445.602
 342  1460.609
 343  1446.708
 344  1387.358
 345  1410.005
 346  1455.199
 347  1341.886
 348  1384.657
 349  1376.057
 350  1366.609
 351  1398.633
 352  1419.234
 353  1417.931
 354  1346.516
 355  1344.043
 356  1325.11
 357  1350.606
 358  1336.066
 359  1371.201
 360  1348.062
 361  1479.613
 362  1441.871
 363  1416.927
 364  1283.745
 365  1305.53
 366  1425.946
 367  1413.57
 368  1455.416
 369  1234.399
 370  1187.708
 371  1283.061
 372  1340.064
 373  1369.902
 374  1377.072
 375  1407.025
 376  1414.195
 377  1365.864
 378  1334.853
 379  1420.367
 380  1308.508
 381  1329.186
 382  1379.322
 383  1395.306
 384  1339.937
 385  1276.573
 386  1316.792
 387  1293.355
 388  1264.424
 389  1281.915
 390  1429.361
 391  1354.387
 392  1312.603
 393  1335.829
 394  1366.09
 395  1358.103
 396  1345.289
 397  1372.783
 398  1369.278
 399  1491.572
 400  1451.422
 401  1535.217
 402  1375.132
 403  1263.636
 404  1213.326
 405  1298.596
 406  1455.426
 407  1377.484
 408  1373.776
 409  1392.302
 410  1274.907
 411  1237.021
 412  1407.139
 413  1391.441
 414  1382.131
 415  1327.785
 416  1317.649
 417  1282.199
 418  1355.325
 419  1389.557
 420  1404.009
 421  1400.681
 422  1368.255
 423  1497.086
 424  1447.961
 425  1332.763
 426  1428.708
 427  1466.369
 428  1341.585
 429  1349.311
 430  1392.463
 431  1319.132
 432  1315.397
 433  1319.242
 434  1357.063
 435  1248.504
 436  1216.648
 437  1190.743
 438  1216.736
 439  1342.146
 440  1391.351
 441  1462.242
 442  1443.697
 443  1382.094
 444  1265.824
 445  1379.228
 446  1453.669
 447  1285.122
 448  1283.106
 449  1289.713
 450  1329.519
 451  1355.144
 452  1415.589
 453  1344.796
 454  1286.072
 455  1313.49
 456  1464.684
 457  1468.264
 458  1498.361
 459  1531.295
 460  1497.369
 461  1443.082
 462  1290.539
 463  1287.347
 464  1291.854
 465  1362.255
 466  1417.26
 467  1340.101
 468  1259.784
 469  1271.727
 470  1189.042
 471  1255.372
 472  1259.866
 473  1354.36
 474  1368.384
 475  1240.083
 476  1243.338
 477  1364.388
 478  1481.179
 479  1381.264
 480  1327.787
 481  1351.273
 482  1403.524
 483  1301.335
 484  1242.231
 485  1236.129
 486  1301.899
 487  1410.763
 488  1376.113
 489  1338.683
 490  1216.756
 491  1234.925
 492  1277.789
 493  1375.449
 494  1347.297
 495  1297.771
 496  1303.734
 497  1275.231
 498  1332.156
 499  1403.129
 500  1380.874
 501  1435.33
 502  1346.434
 503  1191.096
 504  1257.548
 505  1315.511
 506  1413.797
 507  1514.066
 508  1488.958
 509  1307.285
 510  1230.529
 511  1322.487
