# Input file       =  1211786751.104601_cleaned.dat
# Candidate        =  PSR_0332+5434
# Telescope        =  AR
# Epoch_topo       =  58269.309839173620
# Epoch_bary       =  N/A
# T_sample         =  0.002
# Data Folded      =  7340032
# Data Avg         =  0.109121749871909
# Data StdDev      =  3.61611009235866 
# Profile Bins     =  1024
# Profile Avg      =  782.103137185771 
# Profile StdDev   =  306.154496569978 
# Reduced chi-sqr  =  1.274
# Prob(Noise)      <  5.22e-09   (~5.7 sigma)
# P_topo (ms)      =  714.517614255896  +/- 1.77e-05
# P'_topo (s/s)    =  -0                +/- 9.35e-12
# P''_topo (s/s^2) =  0                 +/- 4.13e-15
# P_bary (ms)      =  N/A
# P'_bary (s/s)    =  N/A
# P''_bary (s/s^2) =  N/A
# P_orb (s)        =  N/A
# asin(i)/c (s)    =  N/A
# eccentricity     =  N/A
# w (rad)          =  N/A
# T_peri           =  N/A
######################################################
   0  473.8855
   1  577.7881
   2  757.8381
   3  717.6169
   4  688.1003
   5  618.4395
   6  576.2571
   7  556.7231
   8  585.603
   9  694.5085
  10  735.9164
  11  665.4692
  12  642.6527
  13  552.6607
  14  622.0345
  15  845.816
  16  1047.172
  17  1149.209
  18  993.0248
  19  769.6703
  20  632.897
  21  605.4364
  22  768.366
  23  881.5757
  24  730.2283
  25  601.6598
  26  453.4926
  27  486.1722
  28  569.3822
  29  822.4011
  30  1053.922
  31  1000.087
  32  799.4069
  33  676.8928
  34  667.7393
  35  650.8211
  36  681.7293
  37  833.3275
  38  995.1186
  39  1206.519
  40  1031.453
  41  716.3519
  42  460.5276
  43  491.9157
  44  719.009
  45  757.6295
  46  742.3572
  47  623.2395
  48  520.0309
  49  428.8672
  50  618.8692
  51  755.6365
  52  837.6251
  53  748.6019
  54  732.2643
  55  715.0139
  56  659.3889
  57  563.6594
  58  569.7491
  59  634.8323
  60  597.2137
  61  639.2053
  62  568.8234
  63  603.1332
  64  490.989
  65  703.7279
  66  879.9856
  67  1098.583
  68  859.7029
  69  746.5071
  70  552.5861
  71  659.9338
  72  672.8986
  73  721.5315
  74  814.9711
  75  883.9275
  76  800.1751
  77  812.9952
  78  665.7614
  79  600.2629
  80  538.6055
  81  693.521
  82  760.5986
  83  728.0066
  84  614.0369
  85  718.1211
  86  843.0427
  87  937.9402
  88  972.7808
  89  800.8622
  90  850.2967
  91  822.1727
  92  903.9034
  93  894.9255
  94  863.483
  95  886.6417
  96  941.2819
  97  876.4293
  98  814.1527
  99  502.842
 100  481.8625
 101  676.0366
 102  1026.379
 103  1172.777
 104  1055.536
 105  725.5049
 106  657.7958
 107  678.9829
 108  735.2802
 109  773.9062
 110  768.0923
 111  815.8478
 112  681.0554
 113  535.9407
 114  509.426
 115  726.4567
 116  860.9899
 117  942.8913
 118  735.4185
 119  666.4054
 120  533.9462
 121  542.9813
 122  754.6227
 123  1048.967
 124  1070.35
 125  917.0194
 126  745.7452
 127  589.1559
 128  512.9666
 129  379.8939
 130  581.641
 131  672.0155
 132  674.824
 133  577.1776
 134  535.5564
 135  600.4663
 136  750.4572
 137  822.3129
 138  932.4094
 139  871.3481
 140  762.8434
 141  610.6677
 142  552.8851
 143  684.8492
 144  718.2361
 145  799.93
 146  832.1091
 147  924.0691
 148  770.3231
 149  856.0046
 150  1004.328
 151  1005.319
 152  869.9837
 153  928.9117
 154  969.7002
 155  1064.271
 156  787.4205
 157  777.2688
 158  724.6366
 159  794.6988
 160  953.1125
 161  1038.443
 162  1000.717
 163  912.6031
 164  806.2289
 165  786.1848
 166  822.4225
 167  813.2813
 168  845.2115
 169  742.3718
 170  574.1812
 171  610.2637
 172  691.8044
 173  763.1718
 174  853.0164
 175  863.7037
 176  846.0695
 177  737.5582
 178  752.8763
 179  861.148
 180  760.862
 181  669.7484
 182  653.6748
 183  658.4548
 184  710.0534
 185  642.4335
 186  770.7894
 187  949.0364
 188  1021.654
 189  1055.961
 190  1002.648
 191  738.1565
 192  526.7141
 193  442.362
 194  625.6411
 195  782.472
 196  851.6379
 197  786.9427
 198  628.1455
 199  529.2921
 200  624.3904
 201  712.3152
 202  870.9797
 203  964.4763
 204  968.6872
 205  838.0148
 206  611.68
 207  607.1788
 208  670.1236
 209  656.8583
 210  704.4529
 211  763.013
 212  751.483
 213  583.5477
 214  520.218
 215  712.2771
 216  1012.104
 217  1170.712
 218  1012.665
 219  851.0137
 220  592.0621
 221  638.391
 222  706.6712
 223  712.6042
 224  686.6046
 225  664.3022
 226  651.3275
 227  676.1877
 228  740.5651
 229  844.2225
 230  867.9038
 231  744.2098
 232  643.5287
 233  650.7864
 234  631.1873
 235  795.5656
 236  842.2386
 237  940.0957
 238  852.8663
 239  798.2366
 240  708.9859
 241  636.7196
 242  602.2481
 243  720.2036
 244  646.0305
 245  583.4619
 246  589.6346
 247  791.0685
 248  782.3654
 249  845.6846
 250  803.142
 251  879.9818
 252  900.4299
 253  943.9086
 254  1005.89
 255  876.4644
 256  802.8261
 257  787.9479
 258  895.327
 259  881.1678
 260  973.2506
 261  929.4818
 262  941.0597
 263  831.5572
 264  771.9335
 265  907.9905
 266  916.9942
 267  1104.708
 268  1239.873
 269  1200.793
 270  998.2324
 271  817.9667
 272  749.1655
 273  835.5278
 274  913.7382
 275  1083.782
 276  1119.683
 277  950.0944
 278  877.4487
 279  947.7122
 280  1069.441
 281  1037.225
 282  885.8856
 283  845.9226
 284  739.7601
 285  588.6797
 286  616.4286
 287  741.7486
 288  871.8848
 289  873.9187
 290  806.2648
 291  698.2418
 292  653.4896
 293  667.6614
 294  763.7949
 295  810.6089
 296  846.5652
 297  838.8477
 298  760.2282
 299  580.4838
 300  674.0087
 301  739.1416
 302  972.5959
 303  914.2492
 304  847.4694
 305  769.0496
 306  665.9124
 307  608.8217
 308  608.3854
 309  676.0056
 310  706.7896
 311  590.8469
 312  510.5389
 313  551.0111
 314  689.9593
 315  823.4982
 316  888.8372
 317  848.9534
 318  729.1743
 319  683.8125
 320  553.7632
 321  559.3659
 322  491.7449
 323  561.1873
 324  696.2252
 325  763.2434
 326  636.8639
 327  523.5385
 328  323.958
 329  317.5992
 330  395.4839
 331  600.5493
 332  641.1365
 333  623.9416
 334  512.3784
 335  552.0124
 336  483.1046
 337  491.0196
 338  506.354
 339  527.1732
 340  619.7786
 341  524.9456
 342  468.2173
 343  468.8225
 344  469.4381
 345  614.7344
 346  758.1823
 347  834.5543
 348  770.3928
 349  702.0967
 350  638.7513
 351  793.1185
 352  797.3407
 353  975.9586
 354  956.9315
 355  937.7819
 356  749.3477
 357  653.7872
 358  567.3943
 359  822.6205
 360  926.3132
 361  1123.019
 362  1095.459
 363  965.3665
 364  958.8226
 365  925.136
 366  956.2478
 367  862.9525
 368  766.7421
 369  638.9077
 370  592.2935
 371  541.1768
 372  637.889
 373  838.6236
 374  930.0714
 375  976.6638
 376  859.4528
 377  799.8773
 378  830.488
 379  797.6937
 380  837.5448
 381  838.9122
 382  870.0073
 383  946.8792
 384  862.2264
 385  845.3834
 386  816.4966
 387  798.1807
 388  1077.248
 389  1209.062
 390  1022.918
 391  717.8129
 392  648.3638
 393  695.248
 394  757.8822
 395  812.7004
 396  944.0556
 397  922.0912
 398  669.9781
 399  603.0906
 400  585.7668
 401  794.3209
 402  971.1511
 403  1038.82
 404  918.8859
 405  785.2425
 406  570.1666
 407  611.738
 408  606.871
 409  738.4921
 410  787.9105
 411  892.7887
 412  939.9413
 413  818.0801
 414  716.0402
 415  620.6391
 416  678.4205
 417  538.627
 418  703.873
 419  600.9268
 420  536.2789
 421  493.9201
 422  705.3103
 423  894.6106
 424  963.141
 425  957.8221
 426  1024.809
 427  984.8953
 428  912.5472
 429  974.3826
 430  1052.459
 431  1088.78
 432  1045.738
 433  1020.78
 434  1058.584
 435  917.4941
 436  866.8022
 437  922.2993
 438  1079.854
 439  1165.379
 440  1131.533
 441  977.5334
 442  994.8771
 443  962.5517
 444  878.7979
 445  822.3557
 446  774.7493
 447  848.4931
 448  820.9152
 449  676.3946
 450  666.9188
 451  792.9057
 452  962.8385
 453  988.6083
 454  810.6112
 455  806.7393
 456  792.3814
 457  764.8503
 458  649.8065
 459  720.8145
 460  843.6281
 461  994.6985
 462  916.1387
 463  744.8262
 464  587.4748
 465  582.1045
 466  692.3624
 467  743.0437
 468  798.3338
 469  794.0129
 470  711.1884
 471  651.6662
 472  774.4963
 473  704.6055
 474  735.0932
 475  637.155
 476  681.3535
 477  622.647
 478  630.1072
 479  680.5529
 480  695.7261
 481  724.394
 482  732.194
 483  699.4594
 484  532.6104
 485  541.9363
 486  603.2823
 487  690.1326
 488  678.2517
 489  805.1792
 490  911.2648
 491  882.789
 492  732.723
 493  640.9608
 494  692.0728
 495  775.5438
 496  960.1415
 497  885.7809
 498  823.4491
 499  665.1663
 500  649.8141
 501  622.2956
 502  734.9464
 503  848.657
 504  971.5105
 505  975.0583
 506  1011.696
 507  927.843
 508  798.4327
 509  736.0877
 510  832.7003
 511  860.8372
 512  803.6618
 513  710.9138
 514  667.0878
 515  784.1371
 516  858.0054
 517  1091.643
 518  1070.991
 519  945.5995
 520  762.5737
 521  759.0388
 522  705.2651
 523  798.9516
 524  782.5963
 525  846.8014
 526  803.6837
 527  720.274
 528  657.7379
 529  631.8581
 530  693.3735
 531  945.965
 532  985.3928
 533  954.5386
 534  790.7549
 535  694.1649
 536  707.5978
 537  696.0733
 538  775.2494
 539  957.0459
 540  1014.692
 541  1001.008
 542  799.0317
 543  770.6362
 544  884.452
 545  1028.237
 546  1054.767
 547  1061.407
 548  935.986
 549  881.9841
 550  783.4042
 551  701.8806
 552  820.3305
 553  792.1004
 554  857.2114
 555  998.486
 556  1126.96
 557  1036.481
 558  827.6569
 559  731.2697
 560  818.0992
 561  886.1666
 562  876.2598
 563  823.0046
 564  713.4037
 565  710.577
 566  794.1404
 567  983.2506
 568  1266.408
 569  1321.884
 570  1291.558
 571  1023.509
 572  668.4495
 573  637.573
 574  756.5752
 575  973.3993
 576  853.4004
 577  815.6031
 578  659.4379
 579  762.9317
 580  872.6059
 581  1124.868
 582  1260.121
 583  1329.734
 584  1215.082
 585  985.3734
 586  816.7116
 587  762.5747
 588  960.6322
 589  1232.244
 590  1420.134
 591  1412.122
 592  1198.607
 593  1308.457
 594  1420.813
 595  1747.009
 596  1807.11
 597  1790.791
 598  1738.091
 599  1659.494
 600  1655.896
 601  1738.333
 602  1737.733
 603  1635.363
 604  1315.829
 605  1047.613
 606  927.4366
 607  845.291
 608  791.866
 609  875.4864
 610  901.7657
 611  1012.239
 612  1025.478
 613  927.5856
 614  936.1957
 615  913.3923
 616  1040.777
 617  1143.84
 618  1189.134
 619  1079.327
 620  954.1608
 621  940.9806
 622  1040.34
 623  920.1599
 624  958.9758
 625  1158.814
 626  1177.246
 627  1018.406
 628  789.5161
 629  742.1115
 630  860.1292
 631  1029.294
 632  1173.001
 633  1058.461
 634  834.2797
 635  598.4675
 636  671.2704
 637  805.3564
 638  1029.637
 639  1063.151
 640  1029.115
 641  969.955
 642  905.948
 643  871.5316
 644  915.3962
 645  990.9946
 646  1140.077
 647  1119.201
 648  957.0474
 649  858.1633
 650  759.2639
 651  693.564
 652  697.4868
 653  803.3038
 654  903.2367
 655  806.2557
 656  720.4018
 657  698.564
 658  671.8144
 659  731.8025
 660  725.9026
 661  842.3647
 662  793.0397
 663  757.825
 664  529.7228
 665  537.444
 666  569.1672
 667  707.1758
 668  755.6158
 669  807.9777
 670  746.3499
 671  668.5548
 672  435.7654
 673  329.0546
 674  551.5656
 675  653.8088
 676  822.3772
 677  729.8568
 678  627.6193
 679  631.2247
 680  624.6878
 681  703.3558
 682  741.4785
 683  771.465
 684  803.4558
 685  679.668
 686  709.6427
 687  845.121
 688  884.371
 689  946.0181
 690  823.6693
 691  712.2358
 692  615.5474
 693  739.257
 694  797.1583
 695  881.6479
 696  839.4827
 697  904.5855
 698  911.756
 699  803.9229
 700  757.2097
 701  785.3992
 702  900.5513
 703  884.3207
 704  736.874
 705  577.014
 706  572.9224
 707  646.9797
 708  806.8519
 709  822.5598
 710  741.2183
 711  774.2582
 712  791.0364
 713  684.8943
 714  544.3865
 715  444.2794
 716  692.5857
 717  813.0233
 718  935.2488
 719  961.4891
 720  727.3162
 721  578.3719
 722  540.2793
 723  623.2054
 724  779.1124
 725  823.5912
 726  842.5619
 727  801.113
 728  773.9364
 729  737.2247
 730  643.3107
 731  541.0421
 732  651.4351
 733  712.9296
 734  686.5519
 735  575.4371
 736  450.0104
 737  427.1027
 738  460.337
 739  523.7155
 740  629.5047
 741  727.9279
 742  681.9164
 743  637.0189
 744  631.1191
 745  695.9482
 746  818.6921
 747  857.7238
 748  759.9524
 749  654.5651
 750  542.3736
 751  623.2924
 752  654.6509
 753  702.7797
 754  709.2579
 755  793.5958
 756  864.5236
 757  807.3159
 758  681.7559
 759  633.9025
 760  680.89
 761  769.6754
 762  903.1864
 763  817.3789
 764  666.0305
 765  576.2302
 766  760.128
 767  824.0178
 768  876.6835
 769  690.3624
 770  797.0885
 771  808.2259
 772  810.8529
 773  849.2972
 774  874.5388
 775  824.8843
 776  693.1646
 777  614.0889
 778  564.3677
 779  566.382
 780  658.8021
 781  966.213
 782  1057.198
 783  1105.274
 784  891.6023
 785  767.2459
 786  630.1186
 787  575.2889
 788  534.4086
 789  778.2662
 790  800.6464
 791  792.838
 792  710.7283
 793  645.3525
 794  749.8137
 795  767.981
 796  784.1577
 797  644.1932
 798  648.6625
 799  547.5737
 800  551.495
 801  490.1516
 802  661.8219
 803  774.1442
 804  933.0387
 805  991.4542
 806  904.8389
 807  858.2799
 808  833.8795
 809  851.5879
 810  996.0792
 811  903.1429
 812  850.225
 813  785.8622
 814  754.6526
 815  722.7695
 816  756.9063
 817  868.7852
 818  955.4356
 819  830.884
 820  757.5391
 821  625.6111
 822  702.0093
 823  739.6924
 824  803.647
 825  801.9969
 826  737.0651
 827  689.0529
 828  542.2242
 829  506.6042
 830  632.2921
 831  772.7057
 832  868.6438
 833  877.7811
 834  872.2778
 835  897.0187
 836  738.2959
 837  715.4659
 838  764.2536
 839  933.6772
 840  1035.159
 841  952.6576
 842  882.4746
 843  918.0345
 844  774.6061
 845  762.1047
 846  872.8074
 847  1081.026
 848  1092.875
 849  902.0073
 850  807.1693
 851  839.5117
 852  922.9576
 853  1080.054
 854  1183.452
 855  1061.103
 856  762.425
 857  641.1999
 858  638.2095
 859  758.9811
 860  800.043
 861  848.5599
 862  877.4193
 863  739.691
 864  760.5734
 865  803.0797
 866  820.0037
 867  817.8572
 868  714.3608
 869  872.2681
 870  942.4111
 871  826.8356
 872  684.3746
 873  620.3946
 874  683.5612
 875  767.0629
 876  884.6782
 877  936.8184
 878  867.4529
 879  785.6582
 880  895.0598
 881  835.4509
 882  796.4907
 883  770.4131
 884  833.7448
 885  712.4886
 886  690.8815
 887  660.7023
 888  840.4545
 889  809.1838
 890  914.8094
 891  874.8616
 892  779.0676
 893  627.5399
 894  570.1287
 895  761.454
 896  911.207
 897  877.2112
 898  795.7041
 899  741.6483
 900  685.0312
 901  571.8076
 902  503.6929
 903  516.1382
 904  665.3033
 905  688.154
 906  550.0992
 907  535.7172
 908  620.352
 909  675.6519
 910  717.3578
 911  763.5307
 912  826.4662
 913  724.1295
 914  575.686
 915  625.6269
 916  572.3532
 917  680.5297
 918  774.9619
 919  934.1649
 920  871.869
 921  667.3602
 922  548.7075
 923  592.0716
 924  615.287
 925  609.2993
 926  713.1099
 927  866.369
 928  785.1207
 929  639.713
 930  451.3267
 931  433.9306
 932  447.8331
 933  482.7534
 934  672.3988
 935  649.4326
 936  585.3112
 937  474.3398
 938  613.1434
 939  787.9897
 940  915.5274
 941  827.7255
 942  694.7939
 943  511.8496
 944  441.2829
 945  596.4369
 946  718.8932
 947  745.2194
 948  697.5413
 949  643.4906
 950  729.6491
 951  626.298
 952  629.2945
 953  572.6486
 954  748.7894
 955  783.9854
 956  788.0265
 957  533.9373
 958  632.9866
 959  651.0896
 960  739.9606
 961  707.7758
 962  649.352
 963  593.289
 964  447.4849
 965  443.9528
 966  447.822
 967  578.2291
 968  676.1372
 969  824.8214
 970  793.0799
 971  654.3932
 972  479.3047
 973  437.7151
 974  643.7742
 975  750.2117
 976  802.2449
 977  730.5071
 978  665.3111
 979  644.712
 980  679.5856
 981  708.5572
 982  831.9669
 983  859.1467
 984  874.7817
 985  867.1226
 986  825.0319
 987  716.5855
 988  680.6822
 989  642.2396
 990  630.2476
 991  542.4708
 992  553.1572
 993  567.0641
 994  541.5386
 995  565.4182
 996  649.7365
 997  770.4169
 998  834.4377
 999  834.7365
1000  794.4645
1001  853.9082
1002  841.0029
1003  962.5728
1004  951.4091
1005  850.8353
1006  632.3366
1007  449.9013
1008  338.2012
1009  465.4909
1010  619.921
1011  710.4744
1012  605.3085
1013  605.9717
1014  552.3677
1015  519.6368
1016  439.3492
1017  591.5994
1018  712.7319
1019  844.792
1020  830.5936
1021  772.3076
1022  666.5142
1023  531.4466
