# Input file       =  1211772099.121053_cleaned.dat
# Candidate        =  PSR_0332+5434
# Telescope        =  AR
# Epoch_topo       =  58269.140256030703
# Epoch_bary       =  N/A
# T_sample         =  0.002
# Data Folded      =  7208960
# Data Avg         =  0.214859309354373
# Data StdDev      =  4.91236821307752 
# Profile Bins     =  1024
# Profile Avg      =  1512.66348464557 
# Profile StdDev   =  412.17081978764  
# Reduced chi-sqr  =  1.007
# Prob(Noise)      <  0.428   (~0.2 sigma)
# P_topo (ms)      =  714.517768001519  +/- 3.83e-05
# P'_topo (s/s)    =  -0                +/- 2.06e-11
# P''_topo (s/s^2) =  0                 +/- 9.24e-15
# P_bary (ms)      =  N/A
# P'_bary (s/s)    =  N/A
# P''_bary (s/s^2) =  N/A
# P_orb (s)        =  N/A
# asin(i)/c (s)    =  N/A
# eccentricity     =  N/A
# w (rad)          =  N/A
# T_peri           =  N/A
######################################################
   0  1269.079
   1  1313.752
   2  1241.568
   3  1193.512
   4  1153.547
   5  1286.744
   6  1336.752
   7  1415.054
   8  1514.244
   9  1632.888
  10  1567.048
  11  1391.144
  12  1233.491
  13  1223.361
  14  1252.877
  15  1241.565
  16  1332.489
  17  1300.024
  18  1135.007
  19  1080.301
  20  1210.484
  21  1468.975
  22  1415.41
  23  1593.991
  24  1687.827
  25  1737.537
  26  1518.078
  27  1469.097
  28  1456.117
  29  1278.382
  30  1163.858
  31  1161.013
  32  1349.651
  33  1413.211
  34  1468.148
  35  1434.738
  36  1352.594
  37  1352.979
  38  1361.792
  39  1601.863
  40  1635.777
  41  1668.693
  42  1496.184
  43  1479.504
  44  1351.874
  45  1214.814
  46  1083.65
  47  1044.79
  48  1120.57
  49  1175.175
  50  1313.805
  51  1293.255
  52  1207.225
  53  1184.726
  54  1449.484
  55  1601.15
  56  1643.728
  57  1584.489
  58  1677.095
  59  1559.126
  60  1331.723
  61  1275.847
  62  1398.656
  63  1220.426
  64  1094.057
  65  1053.922
  66  1283.727
  67  1319.712
  68  1379.358
  69  1420.078
  70  1478.106
  71  1415.644
  72  1456.166
  73  1610.443
  74  1721.806
  75  1648.274
  76  1576.377
  77  1490.997
  78  1344.306
  79  1198.002
  80  1300.222
  81  1493.166
  82  1435.733
  83  1226.106
  84  1365.312
  85  1549.508
  86  1695.351
  87  1689.535
  88  1815.099
  89  1822.159
  90  1747.332
  91  1704.576
  92  1707.118
  93  1652.147
  94  1448.824
  95  1493.573
  96  1570.605
  97  1521.431
  98  1355.644
  99  1188.666
 100  1353.619
 101  1400.932
 102  1414.984
 103  1337.09
 104  1390.282
 105  1427.541
 106  1479.79
 107  1615.311
 108  1709.767
 109  1617.988
 110  1406.729
 111  1226.896
 112  1093.207
 113  1012.63
 114  1076.95
 115  1288.05
 116  1434.012
 117  1565.692
 118  1616
 119  1844.583
 120  1783.962
 121  1754.134
 122  1716.423
 123  1968.032
 124  1880.876
 125  1792.253
 126  1518.763
 127  1390.153
 128  1233.432
 129  1088.614
 130  1128.757
 131  1160.655
 132  1324.434
 133  1487.127
 134  1660.758
 135  1692.933
 136  1560.774
 137  1413.711
 138  1463.995
 139  1562.149
 140  1794.722
 141  1788.811
 142  1651.83
 143  1349.844
 144  1283.986
 145  1245.61
 146  1297.435
 147  1189.872
 148  1401.506
 149  1702.72
 150  1986.46
 151  1866.968
 152  1654.123
 153  1693.302
 154  1732.19
 155  1755.895
 156  1736.485
 157  1849.158
 158  1719.656
 159  1580.36
 160  1531.064
 161  1557.162
 162  1500.755
 163  1455.049
 164  1671.391
 165  1776.578
 166  1686.207
 167  1629.057
 168  1652.64
 169  1705.413
 170  1492.394
 171  1528.428
 172  1614.77
 173  1697.068
 174  1643.18
 175  1652.601
 176  1573.976
 177  1463.78
 178  1305.933
 179  1389.992
 180  1457.7
 181  1458.15
 182  1553.788
 183  1680.624
 184  1704.324
 185  1645.133
 186  1804.357
 187  2042.88
 188  1956.724
 189  1844.7
 190  1792.93
 191  1862.876
 192  1724.295
 193  1638.599
 194  1574.433
 195  1509.546
 196  1246.795
 197  1252.564
 198  1280.124
 199  1393.59
 200  1387.053
 201  1418.215
 202  1504.353
 203  1540.418
 204  1661.803
 205  1684.683
 206  1683.739
 207  1592.047
 208  1408.467
 209  1456.169
 210  1471.222
 211  1490.46
 212  1472.272
 213  1497.573
 214  1722.149
 215  1669.748
 216  1656.142
 217  1695.505
 218  1794.791
 219  1688.078
 220  1676.594
 221  1710.083
 222  1834.661
 223  1674.242
 224  1734.799
 225  1665.696
 226  1586.415
 227  1411.406
 228  1419.291
 229  1586.816
 230  1488.026
 231  1341.964
 232  1396.334
 233  1606.046
 234  1656.016
 235  1670.253
 236  1736.107
 237  1869.797
 238  1766.401
 239  1660.854
 240  1629.235
 241  1609.773
 242  1593.351
 243  1463.39
 244  1664.462
 245  1523.619
 246  1445.989
 247  1442.885
 248  1601.125
 249  1632.827
 250  1577.302
 251  1779.345
 252  1947.671
 253  1892.5
 254  1675.951
 255  1634.159
 256  1607.913
 257  1468.204
 258  1474.111
 259  1521.02
 260  1486.599
 261  1335.498
 262  1352.895
 263  1511.885
 264  1566.966
 265  1477.346
 266  1496.216
 267  1428.499
 268  1331.069
 269  1248.547
 270  1350.038
 271  1473.9
 272  1484.242
 273  1546.999
 274  1659.018
 275  1482.334
 276  1182.237
 277  1190.904
 278  1420.96
 279  1524.767
 280  1400.037
 281  1400.969
 282  1441.015
 283  1481.303
 284  1513.561
 285  1681.515
 286  1769.562
 287  1742.853
 288  1819.226
 289  1941.192
 290  1999.951
 291  1822.786
 292  1782.228
 293  1676.853
 294  1508.074
 295  1402.963
 296  1482.19
 297  1662.098
 298  1636.311
 299  1615.312
 300  1603.409
 301  1670.105
 302  1623.702
 303  1527.137
 304  1468.509
 305  1555.556
 306  1547.668
 307  1518.761
 308  1337.296
 309  1301.372
 310  1324.642
 311  1360.767
 312  1526.207
 313  1500.782
 314  1522.982
 315  1462.206
 316  1701.815
 317  1806.594
 318  1763.163
 319  1685.311
 320  1844.492
 321  1905.75
 322  1692.777
 323  1511.178
 324  1479.704
 325  1478.453
 326  1502.154
 327  1591.72
 328  1632.749
 329  1398.49
 330  1367.723
 331  1528.589
 332  1602.969
 333  1432.142
 334  1441.151
 335  1589.685
 336  1593.201
 337  1528.136
 338  1699.656
 339  1859.094
 340  1823.379
 341  1533.985
 342  1554.362
 343  1571.455
 344  1524.961
 345  1381.488
 346  1466.096
 347  1622.065
 348  1573.364
 349  1385.505
 350  1410.382
 351  1654.307
 352  1811.462
 353  1877.767
 354  1861.179
 355  1771.275
 356  1693.949
 357  1671.248
 358  1609.896
 359  1400.439
 360  1195.166
 361  1215.707
 362  1330.703
 363  1395.142
 364  1341.848
 365  1347.515
 366  1411.154
 367  1308.802
 368  1275.004
 369  1365.533
 370  1500.348
 371  1519.492
 372  1562.466
 373  1634.786
 374  1565.927
 375  1577.599
 376  1560.789
 377  1665.521
 378  1539.219
 379  1536.861
 380  1573.334
 381  1712.878
 382  1738.981
 383  1641.898
 384  1689.718
 385  1742.574
 386  1714.16
 387  1647.03
 388  1700.726
 389  1573.254
 390  1539.638
 391  1615.465
 392  1691.404
 393  1626.621
 394  1431.111
 395  1434.553
 396  1384.166
 397  1389.958
 398  1573.197
 399  1679.719
 400  1775.33
 401  1674.502
 402  1692.697
 403  1754.179
 404  1834.605
 405  1762.136
 406  1872.197
 407  1808.445
 408  1597.818
 409  1249.674
 410  1215.222
 411  1359.994
 412  1510.019
 413  1646.099
 414  1760.602
 415  1861.958
 416  1729.149
 417  1706.716
 418  1755.867
 419  1885.467
 420  1905.779
 421  1905.24
 422  1829.789
 423  1666.087
 424  1447.467
 425  1540.544
 426  1614.148
 427  1577.625
 428  1336.716
 429  1411.625
 430  1554.267
 431  1595.995
 432  1414.662
 433  1428.031
 434  1464.179
 435  1638.713
 436  1562.427
 437  1687.017
 438  1588.461
 439  1534.542
 440  1564.591
 441  1643.343
 442  1634.596
 443  1536.706
 444  1599.469
 445  1775.451
 446  1668.987
 447  1484.105
 448  1404.689
 449  1610.108
 450  1614.889
 451  1650.524
 452  1627.876
 453  1748.57
 454  1772.886
 455  1812.161
 456  1845.284
 457  1811.775
 458  1709.486
 459  1503.78
 460  1515.727
 461  1460.311
 462  1304.181
 463  1342.789
 464  1536.21
 465  1646.965
 466  1525.076
 467  1470.758
 468  1635.302
 469  1829.633
 470  1836.015
 471  1893.151
 472  1786.157
 473  1624.733
 474  1339.127
 475  1208.894
 476  1330.988
 477  1305.652
 478  1377.478
 479  1412.301
 480  1476.891
 481  1549.281
 482  1573.018
 483  1733.339
 484  1715.293
 485  1722.624
 486  1839.637
 487  1953.946
 488  1937.767
 489  1821.969
 490  1706.543
 491  1560.849
 492  1423.903
 493  1413.813
 494  1522.563
 495  1675.663
 496  1568.554
 497  1535.006
 498  1534.366
 499  1630.95
 500  1542.91
 501  1623.049
 502  1645.896
 503  1657.391
 504  1520.779
 505  1549.369
 506  1491.157
 507  1388.489
 508  1409.692
 509  1592.046
 510  1645.66
 511  1457.642
 512  1376.904
 513  1617.483
 514  1702.195
 515  1663.11
 516  1648.816
 517  1748.316
 518  1887.464
 519  1832.795
 520  1764.667
 521  1797.295
 522  1719.82
 523  1740.111
 524  1672.492
 525  1651.56
 526  1457.002
 527  1362.403
 528  1419.385
 529  1408.279
 530  1406.731
 531  1434.006
 532  1678.086
 533  1756.219
 534  1686.203
 535  1573.07
 536  1721.306
 537  1828.687
 538  1817.328
 539  1630.867
 540  1597.156
 541  1549.268
 542  1464.453
 543  1505.64
 544  1644.33
 545  1619.623
 546  1631.768
 547  1743.389
 548  1816.823
 549  1762.127
 550  1773.69
 551  1936.987
 552  1920.182
 553  1889.219
 554  1809.115
 555  1810.998
 556  1655.333
 557  1553.25
 558  1490.695
 559  1436.685
 560  1374.713
 561  1310.469
 562  1489.087
 563  1565.495
 564  1503.996
 565  1408.015
 566  1542.432
 567  1740.939
 568  1771.285
 569  1720.791
 570  1755.657
 571  1681.605
 572  1513.281
 573  1417.799
 574  1454.43
 575  1372.789
 576  1262.868
 577  1322.587
 578  1540.801
 579  1643.594
 580  1546.538
 581  1561.082
 582  1567.997
 583  1695.042
 584  1902.746
 585  2205.973
 586  2290.469
 587  2210.763
 588  2123.674
 589  2126.211
 590  1933.63
 591  1803.39
 592  1917.635
 593  2118.755
 594  2189.757
 595  2316.404
 596  2438.312
 597  2683.578
 598  2632.298
 599  2568.915
 600  2467.755
 601  2315.13
 602  2172.889
 603  2045.911
 604  1923.731
 605  1617.53
 606  1445.599
 607  1496.045
 608  1571.92
 609  1541.646
 610  1565.242
 611  1784.108
 612  1846.372
 613  1774.341
 614  1642.117
 615  1655.704
 616  1728.301
 617  1876.9
 618  1844.089
 619  1806.224
 620  1775.312
 621  1837.148
 622  1802.885
 623  1648.875
 624  1564.816
 625  1498.794
 626  1458.841
 627  1651.584
 628  1784.085
 629  1754.553
 630  1608.786
 631  1624.973
 632  1610.459
 633  1583.568
 634  1684.987
 635  1786.547
 636  1774.896
 637  1566.129
 638  1441.741
 639  1467.312
 640  1448.833
 641  1483.818
 642  1564.001
 643  1713.691
 644  1586.969
 645  1466.144
 646  1580.616
 647  1693.984
 648  1743.236
 649  1764.55
 650  1898.147
 651  1863.194
 652  1771.844
 653  1816.822
 654  1730.092
 655  1577.926
 656  1427.268
 657  1473.669
 658  1472.786
 659  1321.998
 660  1301.994
 661  1340.149
 662  1469.183
 663  1460.255
 664  1483.924
 665  1552.344
 666  1630.138
 667  1595.423
 668  1640.674
 669  1640.809
 670  1549.719
 671  1476.109
 672  1550.902
 673  1452.533
 674  1344.987
 675  1422.211
 676  1661.529
 677  1606.259
 678  1450.56
 679  1435.747
 680  1713.893
 681  1847.992
 682  1916.306
 683  1856.686
 684  1824.768
 685  1638.229
 686  1574.496
 687  1689.93
 688  1535.18
 689  1370.942
 690  1116.403
 691  1309.967
 692  1385.322
 693  1431.961
 694  1309.975
 695  1414.947
 696  1335.924
 697  1310.745
 698  1316.244
 699  1546.371
 700  1613.447
 701  1604.776
 702  1622.733
 703  1528.629
 704  1423.778
 705  1249.155
 706  1307.55
 707  1375.587
 708  1422.946
 709  1349.899
 710  1440.929
 711  1423.822
 712  1399.299
 713  1352.183
 714  1430.216
 715  1583.964
 716  1730.169
 717  1907.694
 718  2096.573
 719  1929.798
 720  1800.672
 721  1632.583
 722  1739.464
 723  1560.651
 724  1282.234
 725  1119.443
 726  1145.789
 727  1341.19
 728  1360.123
 729  1414.123
 730  1491.791
 731  1518.962
 732  1548.758
 733  1601.585
 734  1756.932
 735  1632.661
 736  1506.223
 737  1411.455
 738  1340.259
 739  1125.216
 740  1164.22
 741  1431.501
 742  1498.567
 743  1356.853
 744  1429.456
 745  1521.17
 746  1451.947
 747  1382.235
 748  1493.452
 749  1647.181
 750  1703.914
 751  1615.713
 752  1559.73
 753  1252.402
 754  1253.282
 755  1397.905
 756  1578.414
 757  1403.03
 758  1261.476
 759  1403.725
 760  1491.051
 761  1298.254
 762  987.654
 763  1119.002
 764  1328.878
 765  1486.278
 766  1453.397
 767  1590.508
 768  1684.324
 769  1655.617
 770  1549.411
 771  1322.848
 772  1195.643
 773  1087.761
 774  1135.77
 775  1226.546
 776  1246.634
 777  1383.844
 778  1428.977
 779  1437.616
 780  1329.039
 781  1304.072
 782  1467.484
 783  1683.675
 784  1745.193
 785  1669.189
 786  1508.957
 787  1365.949
 788  1238.29
 789  1173.368
 790  1271.954
 791  1290.904
 792  1261.281
 793  1257.268
 794  1408.312
 795  1443.464
 796  1380.925
 797  1364.443
 798  1507.946
 799  1480.926
 800  1451.925
 801  1486.512
 802  1645.475
 803  1546.059
 804  1309.596
 805  1206.114
 806  1111.493
 807  1123.063
 808  1112.735
 809  1306.725
 810  1345.684
 811  1287.4
 812  1191.878
 813  1289.185
 814  1220.285
 815  1247.661
 816  1251.3
 817  1292.678
 818  1251.921
 819  1326.557
 820  1353.996
 821  1211.725
 822  999.4139
 823  943.6504
 824  1032.617
 825  1154.676
 826  1168.109
 827  1178.506
 828  1295.999
 829  1350.067
 830  1239.82
 831  1225.917
 832  1371.972
 833  1424.794
 834  1268.471
 835  1163.981
 836  1065.317
 837  981.6895
 838  888.0428
 839  1097.526
 840  1204.396
 841  1154.5
 842  1061.61
 843  1253.802
 844  1468.876
 845  1546.945
 846  1525.248
 847  1644.519
 848  1532.668
 849  1455.389
 850  1546.496
 851  1516.161
 852  1398.822
 853  1199.114
 854  1293.854
 855  1216.497
 856  930.8154
 857  826.3265
 858  1010.042
 859  1199.359
 860  1303.329
 861  1266.983
 862  1343.827
 863  1453.201
 864  1446.319
 865  1528.77
 866  1532.003
 867  1530.365
 868  1452.777
 869  1444.343
 870  1470.435
 871  1375.472
 872  1239.323
 873  1264.603
 874  1350.258
 875  1313.964
 876  1232.689
 877  1317.93
 878  1318.758
 879  1313.693
 880  1316.357
 881  1386.275
 882  1354.612
 883  1466.052
 884  1519.752
 885  1622.959
 886  1444.814
 887  1430.274
 888  1394.901
 889  1388.855
 890  1225.205
 891  1069.876
 892  1134.529
 893  1220.472
 894  1222.145
 895  1159.666
 896  1209.285
 897  1283.852
 898  1457.505
 899  1563.258
 900  1719.412
 901  1595.412
 902  1338.154
 903  1163.121
 904  1218.014
 905  1223.244
 906  1197.513
 907  1304.251
 908  1470.094
 909  1361.124
 910  1211.165
 911  1277.087
 912  1354.598
 913  1352.045
 914  1369.67
 915  1583.072
 916  1588.985
 917  1476.803
 918  1349.513
 919  1351.253
 920  1197.674
 921  1155.413
 922  1262.063
 923  1533.915
 924  1468.405
 925  1351.475
 926  1395.08
 927  1345.012
 928  1212.699
 929  1013.899
 930  1138.034
 931  1383.806
 932  1474.336
 933  1505.369
 934  1583.704
 935  1598.667
 936  1442.085
 937  1386.375
 938  1482.967
 939  1404.891
 940  1306.833
 941  1357.562
 942  1635.111
 943  1689.484
 944  1552.81
 945  1434.466
 946  1434.878
 947  1421.818
 948  1420.831
 949  1413.807
 950  1552.971
 951  1606.467
 952  1743.321
 953  1627.428
 954  1471.123
 955  1279.793
 956  1291.271
 957  1283.436
 958  1191.288
 959  1012.11
 960  1168.711
 961  1383.102
 962  1377.311
 963  1191.698
 964  1330.201
 965  1538.373
 966  1527.691
 967  1374.985
 968  1287.472
 969  1294.727
 970  1264.621
 971  1271.757
 972  1197.032
 973  1105.502
 974  1166.269
 975  1396.684
 976  1640.707
 977  1517.99
 978  1576.976
 979  1521.853
 980  1725.662
 981  1562.323
 982  1532.653
 983  1554.312
 984  1563.093
 985  1298.816
 986  1061.508
 987  1207.638
 988  1407.581
 989  1370.913
 990  1178.729
 991  1410.452
 992  1575.064
 993  1543.436
 994  1461.128
 995  1532.755
 996  1534.998
 997  1469.268
 998  1549.503
 999  1574.156
1000  1352.232
1001  1098.59
1002  1048.166
1003  1051.222
1004  1041.573
1005  1067.071
1006  1284.276
1007  1398.799
1008  1441.45
1009  1233.671
1010  1341.09
1011  1470.182
1012  1745.718
1013  1807.61
1014  1715.917
1015  1496.36
1016  1431.336
1017  1490.527
1018  1485.061
1019  1302.969
1020  1293.046
1021  1206.912
1022  1246.969
1023  1198.684
