# Input file       =  1211858286.131636_cleaned.dat
# Candidate        =  PSR_0332+5434
# Telescope        =  AR
# Epoch_topo       =  58270.137790875415
# Epoch_bary       =  N/A
# T_sample         =  0.002
# Data Folded      =  7143424
# Data Avg         =  0.0657277408600173
# Data StdDev      =  1.0000563130323  
# Profile Bins     =  512
# Profile Avg      =  917.016396252519 
# Profile StdDev   =  118.125236097531 
# Reduced chi-sqr  =  1.425
# Prob(Noise)      <  7.84e-10   (~6.0 sigma)
# P_topo (ms)      =  714.516796317294  +/- 0.000331
# P'_topo (s/s)    =  -0                +/- 1.8e-10
# P''_topo (s/s^2) =  0                 +/- 8.14e-14
# P_bary (ms)      =  N/A
# P'_bary (s/s)    =  N/A
# P''_bary (s/s^2) =  N/A
# P_orb (s)        =  N/A
# asin(i)/c (s)    =  N/A
# eccentricity     =  N/A
# w (rad)          =  N/A
# T_peri           =  N/A
######################################################
   0  901.7906
   1  1097.205
   2  1086.581
   3  979.2387
   4  933.5256
   5  870.7423
   6  808.8253
   7  841.951
   8  934.7525
   9  918.2819
  10  961.225
  11  776.511
  12  784.3687
  13  961.1406
  14  1070.131
  15  868.4462
  16  904.6025
  17  995.9982
  18  1026.665
  19  964.3384
  20  871.0862
  21  827.1379
  22  753.8996
  23  799.1834
  24  806.1154
  25  905.554
  26  857.084
  27  926.7885
  28  938.8467
  29  904.6229
  30  925.2073
  31  905.9184
  32  859.0184
  33  883.7068
  34  797.6816
  35  746.5262
  36  796.5242
  37  959.8146
  38  936.5345
  39  923.2043
  40  958.6452
  41  790.5103
  42  774.3351
  43  842.1686
  44  919.558
  45  823.3351
  46  872.31
  47  899.4219
  48  991.5782
  49  917.7277
  50  931.7076
  51  891.8525
  52  973.1371
  53  864.2164
  54  867.4518
  55  853.2179
  56  822.4241
  57  870.7703
  58  844.8078
  59  969.7765
  60  965.0702
  61  843.8848
  62  829.4889
  63  882.0172
  64  887.5159
  65  925.0371
  66  840.441
  67  1051.217
  68  1010.576
  69  977.465
  70  887.0023
  71  956.9125
  72  963.8876
  73  848.3403
  74  944.9736
  75  989.5961
  76  986.4138
  77  905.4008
  78  758.7784
  79  939.224
  80  1001.844
  81  890.6246
  82  880.4498
  83  1002.049
  84  982.5404
  85  962.4462
  86  834.7156
  87  948.4206
  88  941.596
  89  916.8987
  90  972.5391
  91  911.2546
  92  883.4918
  93  915.2975
  94  960.5605
  95  902.9497
  96  959.0021
  97  981.5033
  98  852.5341
  99  698.6503
 100  836.5836
 101  999.8455
 102  972.4346
 103  937.7985
 104  970.7442
 105  888.3506
 106  811.0234
 107  898.6755
 108  746.1813
 109  781.5334
 110  859.6154
 111  973.3622
 112  953.8314
 113  903.1035
 114  885.7633
 115  919.1942
 116  947.3174
 117  885.6825
 118  897.0225
 119  886.0023
 120  1046.717
 121  1020.484
 122  974.7083
 123  923.0477
 124  927.9877
 125  791.3216
 126  867.4092
 127  963.8942
 128  845.6775
 129  887.1185
 130  786.1262
 131  858.2448
 132  924.3868
 133  924.1844
 134  928.991
 135  827.5276
 136  752.6344
 137  810.7304
 138  768.6188
 139  877.298
 140  813.5188
 141  861.5186
 142  787.2419
 143  772.0953
 144  784.8334
 145  761.6071
 146  781.4307
 147  708.9095
 148  846.5037
 149  873.9319
 150  845.4684
 151  835.8593
 152  905.53
 153  868.9703
 154  793.8561
 155  832.9918
 156  846.4793
 157  831.0355
 158  863.1729
 159  783.1447
 160  815.4261
 161  685.6577
 162  583.6492
 163  785.9761
 164  857.7379
 165  778.7885
 166  847.1605
 167  916.9927
 168  882.8168
 169  867.0178
 170  825.764
 171  718.6909
 172  719.2563
 173  784.1688
 174  834.6727
 175  772.4796
 176  793.6515
 177  863.7805
 178  881.6879
 179  892.1906
 180  859.8414
 181  767.3826
 182  750.4699
 183  913.5536
 184  906.223
 185  966.3558
 186  1014.058
 187  1062.803
 188  1011.382
 189  916.491
 190  935.6647
 191  1026.201
 192  1062.426
 193  959.1318
 194  881.5771
 195  908.1553
 196  975.5759
 197  986.0364
 198  1049.108
 199  960.8652
 200  987.5304
 201  1017.465
 202  980.6415
 203  890.4794
 204  889.0138
 205  961.0806
 206  851.324
 207  862.616
 208  989.2661
 209  931.5542
 210  1054.537
 211  961.366
 212  914.4512
 213  1039.724
 214  1050.434
 215  1100.478
 216  1008.959
 217  938.6445
 218  1056.186
 219  1149.263
 220  1013.461
 221  851.7741
 222  949.5732
 223  1032.737
 224  995.4098
 225  1132.877
 226  1223.253
 227  1198.677
 228  1366.856
 229  1517.615
 230  1605.627
 231  1611.969
 232  1445.301
 233  1173.749
 234  1039.573
 235  1084.146
 236  1053.555
 237  1014.969
 238  923.1608
 239  978.1104
 240  926.8655
 241  990.4301
 242  1023.406
 243  841.0606
 244  953.6951
 245  1016.072
 246  949.4542
 247  924.9907
 248  979.9424
 249  1087.971
 250  984.6942
 251  871.833
 252  954.1128
 253  969.7596
 254  916.4342
 255  912.89
 256  1034.843
 257  1020.873
 258  964.9388
 259  1033.475
 260  992.231
 261  993.5872
 262  918.6206
 263  992.9994
 264  1048.969
 265  914.6754
 266  918.6619
 267  991.8493
 268  836.7259
 269  874.1245
 270  894.6456
 271  932.6335
 272  917.7554
 273  891.0529
 274  900.2196
 275  869.2975
 276  985.6035
 277  890.4023
 278  868.8985
 279  893.5699
 280  883.4026
 281  891.7382
 282  920.0624
 283  970.795
 284  1013.121
 285  956.7678
 286  877.4062
 287  770.6451
 288  883.3582
 289  858.6189
 290  782.1158
 291  859.9257
 292  863.8552
 293  811.015
 294  847.4243
 295  1031.3
 296  933.5551
 297  896.975
 298  969.5794
 299  959.9999
 300  909.9459
 301  927.8191
 302  946.6871
 303  1030.643
 304  830.5246
 305  685.4752
 306  833.093
 307  968.5497
 308  796.3395
 309  748.7916
 310  834.7816
 311  894.3167
 312  907.4411
 313  980.2742
 314  993.3088
 315  918.3754
 316  969.1947
 317  961.5358
 318  973.3862
 319  995.3687
 320  985.4337
 321  946.0305
 322  950.9447
 323  1047.791
 324  939.9778
 325  926.3198
 326  952.9205
 327  907.732
 328  878.1132
 329  930.5364
 330  944.924
 331  837.6384
 332  885.9356
 333  891.193
 334  931.0165
 335  968.3175
 336  899.9094
 337  879.2018
 338  878.356
 339  916.1843
 340  955.1154
 341  954.2827
 342  853.4236
 343  802.6771
 344  839.2142
 345  871.4985
 346  921.3755
 347  922.0207
 348  990.1226
 349  986.735
 350  912.5233
 351  896.4532
 352  908.8713
 353  857.1418
 354  833.2951
 355  893.101
 356  864.2767
 357  897.2621
 358  884.6735
 359  804.4117
 360  844.9784
 361  773.4117
 362  822.6369
 363  862.8912
 364  996.2565
 365  1004.479
 366  815.9963
 367  866.3098
 368  866.0443
 369  819.8888
 370  852.2677
 371  895.9459
 372  886.8439
 373  825.5354
 374  789.8021
 375  766.2789
 376  859.3809
 377  929.7297
 378  885.3705
 379  739.1407
 380  842.0049
 381  816.3136
 382  917.1226
 383  866.6193
 384  853.5322
 385  902.482
 386  889.8342
 387  806.3776
 388  763.8432
 389  834.6432
 390  819.0054
 391  843.9785
 392  896.3087
 393  831.1191
 394  817.4599
 395  847.0612
 396  875.9321
 397  1040.174
 398  884.7375
 399  893.8817
 400  833.9105
 401  906.8776
 402  878.8476
 403  933.9317
 404  795.5829
 405  750.3461
 406  889.8286
 407  942.5171
 408  866.2446
 409  968.7225
 410  1008.463
 411  1036.265
 412  1050.245
 413  922.5822
 414  902.2473
 415  956.221
 416  929.5264
 417  1033.598
 418  1041.545
 419  934.7947
 420  837.3947
 421  879.2079
 422  980.4323
 423  995.204
 424  981.9103
 425  945.7126
 426  997.3077
 427  993.7936
 428  922.7402
 429  806.288
 430  861.1005
 431  943.7078
 432  930.6172
 433  933.2906
 434  829.8903
 435  866.052
 436  924.4758
 437  961.4102
 438  913.9853
 439  892.627
 440  1049.129
 441  1117.636
 442  962.2505
 443  907.2227
 444  952.5701
 445  1007.265
 446  1026.094
 447  949.4419
 448  1008.001
 449  962.6475
 450  951.6691
 451  971.9495
 452  912.8279
 453  989.1333
 454  950.8917
 455  845.6564
 456  921.0651
 457  938.6398
 458  901.6048
 459  987.3455
 460  958.7977
 461  914.5636
 462  888.37
 463  907.4765
 464  1024.655
 465  1053.96
 466  1049.952
 467  939.2854
 468  924.5477
 469  896.2324
 470  845.2205
 471  879.1642
 472  873.879
 473  1008.957
 474  890.7028
 475  877.3432
 476  804.7051
 477  840.6801
 478  928.4227
 479  900.7289
 480  944.8942
 481  950.928
 482  870.0066
 483  850.2147
 484  984.8535
 485  970.5634
 486  902.5477
 487  801.217
 488  943.1931
 489  961.7812
 490  843.2084
 491  897.6738
 492  942.9684
 493  928.6022
 494  927.9783
 495  959.612
 496  970.6561
 497  968.5938
 498  1020.9
 499  975.2417
 500  972.6746
 501  1006.695
 502  991.1834
 503  958.9302
 504  915.4071
 505  1041.24
 506  1074.191
 507  873.6085
 508  798.9238
 509  861.2039
 510  841.3701
 511  786.9714
