# Input file       =  1211098148.107654_cleaned.dat
# Candidate        =  PSR_0332+5434
# Telescope        =  AR
# Epoch_topo       =  58261.339897079328
# Epoch_bary       =  N/A
# T_sample         =  0.002
# Data Folded      =  7340032
# Data Avg         =  0.0670498158374428
# Data StdDev      =  0.999886839218129
# Profile Bins     =  512
# Profile Avg      =  961.201554812676 
# Profile StdDev   =  119.719487292754 
# Reduced chi-sqr  =  0.869
# Prob(Noise)      <  0.985   (~0.0 sigma)
# P_topo (ms)      =  714.52542093884   +/- 0.000532
# P'_topo (s/s)    =  -0                +/- 2.81e-10
# P''_topo (s/s^2) =  0                 +/- 1.24e-13
# P_bary (ms)      =  N/A
# P'_bary (s/s)    =  N/A
# P''_bary (s/s^2) =  N/A
# P_orb (s)        =  N/A
# asin(i)/c (s)    =  N/A
# eccentricity     =  N/A
# w (rad)          =  N/A
# T_peri           =  N/A
######################################################
   0  1446.65
   1  1392.054
   2  1289.807
   3  1026.616
   4  949.0747
   5  955.0297
   6  847.39
   7  856.6534
   8  915.706
   9  951.3958
  10  1023.328
  11  926.3771
  12  897.4686
  13  957.0731
  14  1018.94
  15  1033.79
  16  994.3764
  17  954.266
  18  773.4777
  19  769.6286
  20  888.6392
  21  918.6332
  22  1071.802
  23  1010.255
  24  944.5507
  25  1047.176
  26  931.9969
  27  909.0721
  28  968.1088
  29  1009.511
  30  1049.137
  31  1055.616
  32  1046.98
  33  1009.428
  34  918.4592
  35  898.3126
  36  995.2988
  37  1070.078
  38  1022.206
  39  936.778
  40  916.7995
  41  919.9921
  42  931.8433
  43  937.991
  44  1028.013
  45  1038.967
  46  936.286
  47  842.2336
  48  874.5948
  49  871.5854
  50  893.2412
  51  923.7393
  52  1008.085
  53  1024.863
  54  1050.665
  55  936.3218
  56  903.1586
  57  948.2596
  58  963.1191
  59  934.4236
  60  814.8027
  61  797.6271
  62  834.4901
  63  902.7312
  64  978.727
  65  956.9492
  66  967.2115
  67  976.5422
  68  873.3687
  69  893.5186
  70  947.5195
  71  987.9985
  72  955.3412
  73  859.6648
  74  841.4064
  75  969.2441
  76  980.2814
  77  954.2131
  78  1023.372
  79  1003.838
  80  915.5497
  81  985.7947
  82  1043.858
  83  966.2589
  84  892.402
  85  933.7846
  86  1134.382
  87  1065.187
  88  980.2777
  89  921.364
  90  978.9827
  91  969.0533
  92  998.7
  93  964.3124
  94  897.1765
  95  920.2927
  96  1002.165
  97  1019.531
  98  967.5834
  99  971.0559
 100  966.8074
 101  941.1234
 102  984.5011
 103  1046.244
 104  1024.044
 105  1039.175
 106  1070.811
 107  1124.968
 108  1028.974
 109  1013.791
 110  981.8987
 111  992.2919
 112  927.0999
 113  930.011
 114  895.9948
 115  984.3011
 116  1069.73
 117  1027.381
 118  914.6535
 119  842.8441
 120  757.7866
 121  826.6004
 122  939.9907
 123  875.7921
 124  982.2534
 125  1049.877
 126  998.4877
 127  982.6013
 128  1014.633
 129  978.4276
 130  990.4638
 131  1032.894
 132  1081.316
 133  931.6672
 134  886.895
 135  954.5068
 136  928.9356
 137  945.699
 138  937.3071
 139  927.7573
 140  883.5192
 141  834.7631
 142  906.6619
 143  966.2385
 144  1003.593
 145  936.3431
 146  952.2491
 147  913.8051
 148  937.5731
 149  948.4205
 150  931.0724
 151  969.2958
 152  838.9993
 153  925.0608
 154  937.7866
 155  960.7958
 156  898.3026
 157  889.6373
 158  879.571
 159  956.6699
 160  1048.866
 161  999.5628
 162  930.8815
 163  930.6074
 164  959.3458
 165  979.9688
 166  998.8529
 167  992.909
 168  928.8706
 169  941.1943
 170  978.6551
 171  980.5561
 172  946.904
 173  973.9926
 174  906.7003
 175  918.3455
 176  1050.844
 177  1027.266
 178  963.444
 179  895.1797
 180  847.0833
 181  1020.559
 182  1078.616
 183  1029.67
 184  1078.723
 185  1025.452
 186  962.0017
 187  993.1152
 188  1036.307
 189  1071.223
 190  1042.487
 191  974.8122
 192  909.8953
 193  866.0654
 194  961.8903
 195  1045.289
 196  1059.602
 197  1098.412
 198  1076.971
 199  968.0944
 200  1027.485
 201  1042.494
 202  1037.431
 203  1020.564
 204  1076.292
 205  1032.107
 206  1065.34
 207  1006.764
 208  1009.504
 209  1013.024
 210  968.3875
 211  993.106
 212  1050.763
 213  1133.956
 214  1073.419
 215  988.1249
 216  1090.183
 217  1024.212
 218  1040.339
 219  1082.536
 220  1045.713
 221  950.0421
 222  938.52
 223  890.5069
 224  939.9543
 225  1030.841
 226  975.5689
 227  974.3281
 228  990.5032
 229  1016.291
 230  939.2488
 231  936.8178
 232  1000.242
 233  893.2806
 234  921.2753
 235  943.5767
 236  959.2875
 237  996.5474
 238  963.8234
 239  974.0325
 240  946.9252
 241  922.2585
 242  961.54
 243  1006.826
 244  1060.65
 245  1048.5
 246  988.8298
 247  962.3261
 248  915.3104
 249  847.4046
 250  961.8766
 251  981.7164
 252  902.5103
 253  958.7114
 254  1037.639
 255  1018.966
 256  1066.833
 257  1011.659
 258  917.2844
 259  930.2311
 260  973.541
 261  1027.298
 262  989.9503
 263  959.6163
 264  959.827
 265  960.2949
 266  944.0392
 267  1055.715
 268  1000.652
 269  1017.827
 270  1051.643
 271  978.659
 272  969.0206
 273  939.462
 274  902.2084
 275  1045.414
 276  1052.094
 277  1048.113
 278  1030.625
 279  985.5264
 280  1040.474
 281  988.1124
 282  999.653
 283  950.4298
 284  890.7032
 285  1001.163
 286  1068.182
 287  984.598
 288  966.3983
 289  821.3085
 290  776.0748
 291  848.3431
 292  904.7654
 293  940.9747
 294  911.4918
 295  920.3647
 296  909.9538
 297  895.0422
 298  904.0544
 299  958.2328
 300  991.8382
 301  923.2355
 302  903.8907
 303  965.2768
 304  972.6281
 305  1006.236
 306  1035.899
 307  1039.989
 308  1035.837
 309  1019.625
 310  958.1623
 311  937.3622
 312  933.7354
 313  1007.419
 314  1017.901
 315  969.9905
 316  1029.884
 317  969.3062
 318  919.9625
 319  930.0236
 320  914.1324
 321  1007.054
 322  1060.323
 323  947.4318
 324  965.3713
 325  943.7281
 326  1038.231
 327  1017.222
 328  962.9846
 329  942.9636
 330  927.5156
 331  991.6343
 332  979.2957
 333  1056.223
 334  1046.734
 335  989.541
 336  903.6677
 337  939.6565
 338  923.1254
 339  944.8253
 340  1013.739
 341  965.0322
 342  898.9655
 343  896.8346
 344  908.4865
 345  1004.76
 346  925.5588
 347  824.0358
 348  814.7548
 349  899.9244
 350  883.4968
 351  866.0615
 352  862.855
 353  905.0575
 354  920.1156
 355  883.2875
 356  949.8235
 357  877.1301
 358  863.4501
 359  879.5745
 360  936.4528
 361  905.9073
 362  963.1187
 363  944.6647
 364  959.6639
 365  838.6076
 366  811.9669
 367  904.4404
 368  925.7623
 369  873.8588
 370  850.3793
 371  851.7803
 372  889.7368
 373  871.8066
 374  852.1534
 375  974.2008
 376  973.1149
 377  939.0837
 378  872.6223
 379  904.8644
 380  940.2627
 381  986.821
 382  993.5916
 383  931.3293
 384  907.0312
 385  969.4506
 386  977.493
 387  974.7382
 388  902.1799
 389  884.7937
 390  979.8308
 391  1030.319
 392  984.7115
 393  850.3501
 394  871.3945
 395  759.4791
 396  730.7312
 397  957.6323
 398  992.2315
 399  953.0995
 400  1023.123
 401  1021.352
 402  992.1442
 403  1005.708
 404  858.528
 405  912.3627
 406  918.98
 407  1058.076
 408  1033.807
 409  935.811
 410  1060.11
 411  996.4814
 412  970.3123
 413  968.162
 414  899.3155
 415  964.0368
 416  972.8876
 417  1003.766
 418  961.2898
 419  907.6644
 420  934.2274
 421  1012.937
 422  917.3776
 423  864.8951
 424  965.636
 425  1061.462
 426  981.2897
 427  915.7456
 428  1048.097
 429  1090.901
 430  915.0327
 431  932.5126
 432  1069.338
 433  964.4204
 434  897.3671
 435  893.1765
 436  991.0159
 437  949.9903
 438  945.8024
 439  889.112
 440  885.7933
 441  870.7161
 442  777.3688
 443  818.1686
 444  901.2402
 445  829.7196
 446  859.3226
 447  889.238
 448  973.1347
 449  841.5034
 450  874.3654
 451  921.312
 452  943.8781
 453  1001.251
 454  1108.201
 455  925.4572
 456  814.728
 457  851.742
 458  898.3415
 459  866.8495
 460  854.8865
 461  900.1724
 462  871.2403
 463  834.0558
 464  827.8098
 465  751.0942
 466  832.8065
 467  873.4517
 468  844.4817
 469  923.4614
 470  988.5706
 471  940.5284
 472  902.017
 473  929.1254
 474  862.9042
 475  870.9567
 476  889.8667
 477  928.9189
 478  945.3833
 479  989.6314
 480  1026.853
 481  974.1622
 482  934.4656
 483  943.6169
 484  930.9042
 485  920.4274
 486  921.549
 487  970.2426
 488  1010.204
 489  978.5555
 490  993.7324
 491  998.9529
 492  1019.047
 493  979.6489
 494  1012.518
 495  981.8212
 496  904.8165
 497  980.1348
 498  960.0101
 499  927.5803
 500  934.5206
 501  1025.026
 502  1040.081
 503  997.8754
 504  1009.861
 505  954.5836
 506  1005.602
 507  1043.396
 508  1198.744
 509  1356.635
 510  1308.213
 511  1350.741
