# Input file       =  1211685997.11615_cleaned.dat
# Candidate        =  PSR_0332+5434
# Telescope        =  AR
# Epoch_topo       =  58268.143705048031
# Epoch_bary       =  N/A
# T_sample         =  0.002
# Data Folded      =  7143424
# Data Avg         =  0.0751028092280594
# Data StdDev      =  1.0000952144009  
# Profile Bins     =  512
# Profile Avg      =  1047.81965144873 
# Profile StdDev   =  118.129831072123 
# Reduced chi-sqr  =  1.371
# Prob(Noise)      <  4.46e-08   (~5.3 sigma)
# P_topo (ms)      =  714.518738241903  +/- 0.000144
# P'_topo (s/s)    =  -0                +/- 7.83e-11
# P''_topo (s/s^2) =  0                 +/- 3.55e-14
# P_bary (ms)      =  N/A
# P'_bary (s/s)    =  N/A
# P''_bary (s/s^2) =  N/A
# P_orb (s)        =  N/A
# asin(i)/c (s)    =  N/A
# eccentricity     =  N/A
# w (rad)          =  N/A
# T_peri           =  N/A
######################################################
   0  1563.187
   1  1554.264
   2  1436.44
   3  1192.599
   4  1056.968
   5  965.6235
   6  1031.664
   7  949.4908
   8  1014.776
   9  1041.461
  10  976.5154
  11  860.9451
  12  880.4028
  13  886.1732
  14  992.2047
  15  1060.072
  16  1059.538
  17  982.4731
  18  981.1013
  19  966.303
  20  913.639
  21  814.6434
  22  737.643
  23  829.2955
  24  898.5074
  25  1059.508
  26  1093.274
  27  895.5879
  28  910.8228
  29  889.6614
  30  920.7075
  31  920.4996
  32  839.6882
  33  919.6827
  34  978.3841
  35  1014.326
  36  1003.127
  37  976.2374
  38  905.2164
  39  911.6198
  40  949.2905
  41  919.8207
  42  916.1719
  43  833.0352
  44  933.4787
  45  886.5067
  46  969.7639
  47  877.4081
  48  987.053
  49  937.4269
  50  1005.77
  51  924.4716
  52  966.9347
  53  912.3326
  54  993.2969
  55  982.7755
  56  1008.503
  57  1071.464
  58  1110.511
  59  1171.657
  60  1125.901
  61  998.4495
  62  1001.816
  63  1060.845
  64  1102.042
  65  1026.404
  66  909.56
  67  942.6584
  68  958.4033
  69  923.2457
  70  1008.488
  71  898.4771
  72  952.3055
  73  1027.561
  74  1105.683
  75  1067.225
  76  1041.202
  77  1040.896
  78  939.8711
  79  959.5891
  80  919.2355
  81  1015.283
  82  1115.498
  83  1077.59
  84  1080.349
  85  1081.743
  86  1070.225
  87  972.6246
  88  1014.607
  89  1052.567
  90  1111.535
  91  1090.574
  92  1090.308
  93  954.0956
  94  957.8281
  95  1074.539
  96  1065.365
  97  1094.619
  98  1019.307
  99  1066.727
 100  991.3206
 101  970.4193
 102  1036.475
 103  1005.996
 104  1061.15
 105  1089.853
 106  1078.149
 107  982.8024
 108  1043.866
 109  1100.728
 110  1095.726
 111  1036.474
 112  907.6816
 113  1017.876
 114  1021.598
 115  1032.487
 116  1021.935
 117  1056.063
 118  1110.277
 119  1038.463
 120  1020.507
 121  1023.135
 122  979.084
 123  1055.724
 124  1167.913
 125  1123.561
 126  1012.765
 127  921.8567
 128  955.3463
 129  962.3307
 130  969.4332
 131  1029.214
 132  969.0798
 133  977.1679
 134  949.2181
 135  902.7982
 136  844.9424
 137  1007.604
 138  944.2032
 139  875.5547
 140  955.1943
 141  1085.775
 142  913.6022
 143  899.4832
 144  998.9504
 145  951.2917
 146  1009.006
 147  1011.586
 148  821.2684
 149  992.38
 150  1056.024
 151  990.8714
 152  947.2643
 153  895.2337
 154  885.8738
 155  935.8359
 156  977.6865
 157  965.2739
 158  928.7085
 159  884.8439
 160  1062.655
 161  1064.66
 162  1048.936
 163  1020.005
 164  995.7739
 165  961.6843
 166  981.2321
 167  982.4818
 168  869.5863
 169  939.7111
 170  947.67
 171  960.5117
 172  1004.968
 173  1052.054
 174  1138.455
 175  922.4977
 176  862.5443
 177  960.7506
 178  1000.934
 179  1028.694
 180  940.9805
 181  917.4368
 182  842.222
 183  946.6249
 184  1000.983
 185  1017.761
 186  972.1924
 187  1026.519
 188  1130.385
 189  1105.961
 190  992.4198
 191  940.0503
 192  920.0117
 193  1007.923
 194  1062.643
 195  1043.629
 196  1157.118
 197  1179.873
 198  1094.29
 199  998.1525
 200  1124.348
 201  1048.616
 202  974.3946
 203  1053.232
 204  1085.655
 205  1082.411
 206  1118.389
 207  1099.717
 208  1176.044
 209  1059.657
 210  1036.008
 211  973.6459
 212  955.4659
 213  1068.491
 214  1048.693
 215  1168.491
 216  1152.356
 217  1131.934
 218  1023.538
 219  1102.514
 220  1118.706
 221  1098.846
 222  1196.701
 223  1111.479
 224  1212.816
 225  1120.378
 226  1051.267
 227  1062.342
 228  1076.843
 229  1044.227
 230  1062.381
 231  1122.154
 232  1201.629
 233  1179.776
 234  1140.999
 235  1085.296
 236  1038.123
 237  1129.667
 238  1059.259
 239  1049.492
 240  1180.564
 241  1222.728
 242  1152.498
 243  1139.442
 244  1146.314
 245  1084.37
 246  1134.747
 247  1235.126
 248  1196.308
 249  1077.316
 250  1188.937
 251  1171.118
 252  1132.893
 253  1131.14
 254  1060.328
 255  1135.128
 256  1229.494
 257  1199.707
 258  1114.989
 259  1085.403
 260  1165.815
 261  1120.707
 262  1112.507
 263  1124.592
 264  1117.485
 265  1171.148
 266  1107.831
 267  1102.232
 268  1072.285
 269  1061.188
 270  1011.802
 271  1118.349
 272  1136.708
 273  1049.084
 274  1056.253
 275  1110.933
 276  944.0204
 277  860.6385
 278  1053.303
 279  1118.953
 280  1054.402
 281  1078.964
 282  1073.528
 283  1029.876
 284  1113.931
 285  1179.152
 286  1095.206
 287  1146.98
 288  1079.749
 289  1072.745
 290  1090.935
 291  1030.525
 292  1105.514
 293  1163.425
 294  1105.747
 295  1135.262
 296  1175.443
 297  1186.667
 298  1027.341
 299  1022.205
 300  1158.657
 301  996.0579
 302  1123.517
 303  1269.282
 304  1191.111
 305  1158.116
 306  1270.809
 307  1140.62
 308  1056.987
 309  1143.442
 310  1199.255
 311  1238.131
 312  1157.342
 313  1144.857
 314  1118.363
 315  1074.733
 316  1107.38
 317  1137.922
 318  1220.911
 319  1058.307
 320  981.4352
 321  1127.099
 322  1227.602
 323  1187.176
 324  1074.207
 325  1092.552
 326  1186.445
 327  1160.722
 328  1244.561
 329  1204.317
 330  1130.225
 331  1211.126
 332  1296.695
 333  1219.387
 334  1235.613
 335  1158.886
 336  1137.917
 337  1046.774
 338  1115.968
 339  1223.183
 340  1106.734
 341  1040.404
 342  1095.077
 343  1088.725
 344  1032.913
 345  1101.196
 346  1148.282
 347  1199.155
 348  1123.282
 349  1144.071
 350  1065.076
 351  1064.781
 352  1041.844
 353  1006.319
 354  971.2986
 355  998.3643
 356  952.1818
 357  1024.055
 358  1107.095
 359  1012.128
 360  1075.859
 361  1144.181
 362  1111.128
 363  1020.234
 364  1044.98
 365  1090.208
 366  1092.049
 367  1087.527
 368  1094.72
 369  1078.575
 370  1099.228
 371  1146.087
 372  1153.054
 373  1183.059
 374  1093.165
 375  1054.615
 376  1058.961
 377  1074.875
 378  1019.146
 379  1132.957
 380  1090.224
 381  1142.744
 382  1002.012
 383  928.3971
 384  943.6206
 385  978.5449
 386  1049.725
 387  977.9013
 388  1020.748
 389  1189.555
 390  1109.98
 391  1034.711
 392  904.0437
 393  960.6517
 394  966.3425
 395  964.4092
 396  1006.117
 397  1100.378
 398  1046.491
 399  985.9752
 400  1053.048
 401  970.6295
 402  1029.935
 403  1068.455
 404  1100.857
 405  1097.433
 406  1051.306
 407  1109.981
 408  1122.306
 409  962.9542
 410  902.2959
 411  947.5131
 412  950.3955
 413  992.7492
 414  983.8445
 415  986.8336
 416  982.4028
 417  1015.27
 418  1069.133
 419  1035.236
 420  1041.803
 421  1055.966
 422  1078.314
 423  1064.273
 424  1048.374
 425  964.458
 426  941.254
 427  1133.585
 428  1087.975
 429  1047.338
 430  1033.24
 431  961.3719
 432  898.8101
 433  959.0334
 434  968.493
 435  974.4924
 436  1049.75
 437  992.4532
 438  1093.59
 439  1106.998
 440  1134.15
 441  1114.866
 442  1103.319
 443  1095.957
 444  1164.083
 445  1161.493
 446  1151.173
 447  1011.916
 448  1106.109
 449  1034.634
 450  946.7473
 451  914.983
 452  966.0998
 453  1081.668
 454  1106.794
 455  1096.411
 456  1007.32
 457  1019.149
 458  1011.225
 459  1085.053
 460  1045.971
 461  954.0679
 462  1046.621
 463  1091.354
 464  1031.776
 465  901.4907
 466  914.8548
 467  978.2539
 468  1109.508
 469  1069.411
 470  970.7177
 471  1199.314
 472  1246.145
 473  1023.442
 474  951.4045
 475  1034.456
 476  1006.024
 477  956.9612
 478  1098.194
 479  1045.722
 480  1035.668
 481  952.4963
 482  932.4574
 483  1006.817
 484  980.8081
 485  1016.457
 486  993.03
 487  993.2365
 488  996.4891
 489  962.9577
 490  961.3528
 491  1010.605
 492  1074.861
 493  1057.11
 494  999.8073
 495  1066.963
 496  1055.108
 497  992.4602
 498  997.6777
 499  966.3309
 500  921.3148
 501  869.4868
 502  993.2991
 503  1092.303
 504  1017.877
 505  1077.035
 506  1079.209
 507  1165.031
 508  1190.055
 509  1222.473
 510  1441.836
 511  1525.147
