# Input file       =  1211700586.108932_cleaned.dat
# Candidate        =  PSR_0332+5434
# Telescope        =  AR
# Epoch_topo       =  58268.312559131155
# Epoch_bary       =  N/A
# T_sample         =  0.002
# Data Folded      =  7340032
# Data Avg         =  0.0842631092319997
# Data StdDev      =  3.1893766249152  
# Profile Bins     =  512
# Profile Avg      =  1208.18286811397 
# Profile StdDev   =  381.873747450179 
# Reduced chi-sqr  =  0.932
# Prob(Noise)      <  0.863   (~0.0 sigma)
# P_topo (ms)      =  714.518586596184  +/- 0.000195
# P'_topo (s/s)    =  -0                +/- 1.03e-10
# P''_topo (s/s^2) =  0                 +/- 4.55e-14
# P_bary (ms)      =  N/A
# P'_bary (s/s)    =  N/A
# P''_bary (s/s^2) =  N/A
# P_orb (s)        =  N/A
# asin(i)/c (s)    =  N/A
# eccentricity     =  N/A
# w (rad)          =  N/A
# T_peri           =  N/A
######################################################
   0  767.4747
   1  1340.885
   2  1229.036
   3  1021.398
   4  1286.885
   5  1069.761
   6  897.6104
   7  1324.903
   8  1609.979
   9  1422.915
  10  1401.577
  11  1365.163
  12  1130.114
  13  1038.084
  14  1038.755
  15  1104.533
  16  1398.197
  17  1493.289
  18  965.3008
  19  1090.438
  20  1162.712
  21  910.8681
  22  1055.73
  23  1308.356
  24  1005.181
  25  1129.53
  26  1514.749
  27  1074.154
  28  806.7538
  29  902.0234
  30  1106.144
  31  1012.562
  32  995.9635
  33  1157.499
  34  1085.853
  35  858.7769
  36  796.9636
  37  968.2122
  38  1151.654
  39  938.2257
  40  1137.864
  41  1473.076
  42  1025.765
  43  781.0243
  44  1063.156
  45  1164.076
  46  837.8699
  47  1015.665
  48  1270.979
  49  1250.929
  50  1192.275
  51  1196.063
  52  1174.566
  53  1257.898
  54  1291.232
  55  1066.213
  56  879.0221
  57  699.0458
  58  1008.969
  59  977.1805
  60  762.0605
  61  452.1244
  62  569.884
  63  751.2415
  64  756.0864
  65  606.1342
  66  1213.589
  67  1310.239
  68  1065.123
  69  849.559
  70  1191.969
  71  1050.165
  72  1076.308
  73  1223.207
  74  1354.994
  75  1143.868
  76  1297.792
  77  1331.079
  78  1062.453
  79  928.6761
  80  1019.053
  81  1205.27
  82  1274.752
  83  1243.007
  84  1160.569
  85  1238.744
  86  844.3005
  87  828.405
  88  1018.799
  89  1115.201
  90  1005.244
  91  1118.537
  92  1244.084
  93  1135.608
  94  1062.442
  95  1169.119
  96  1287.937
  97  1273.739
  98  1350.046
  99  1246.995
 100  1438.13
 101  1535.778
 102  1164.85
 103  925.2224
 104  871.8173
 105  1094.468
 106  1355.305
 107  1399.463
 108  1228.137
 109  1341.168
 110  1311.084
 111  1554.195
 112  1365.533
 113  1146.893
 114  1076.258
 115  1257.444
 116  1356.694
 117  1520.729
 118  1566.759
 119  1512.406
 120  1290.985
 121  1062.389
 122  1141.865
 123  1113.966
 124  1161.921
 125  907.9606
 126  892.0327
 127  1218.01
 128  1109.956
 129  689.0708
 130  605.9403
 131  1041.028
 132  1109.934
 133  1065.432
 134  1049.927
 135  1291.913
 136  1136.128
 137  978.5076
 138  927.2571
 139  972.4255
 140  1144.203
 141  1027.159
 142  1100.641
 143  909.1859
 144  1117.928
 145  1004.673
 146  945.7308
 147  1195.656
 148  1117.033
 149  1238.459
 150  891.2462
 151  913.4579
 152  932.8162
 153  1085.684
 154  1140.802
 155  1117.916
 156  1332.684
 157  1612.833
 158  1305.115
 159  1127.458
 160  1146.662
 161  1138.88
 162  1338.51
 163  1469.729
 164  1716.209
 165  1686.515
 166  1298.212
 167  1172.957
 168  1415.828
 169  1163.378
 170  1178.059
 171  1137.204
 172  1328.425
 173  1361.744
 174  1301.022
 175  1377.869
 176  1238.715
 177  1263.033
 178  1393.423
 179  1450.479
 180  1294.723
 181  1136.676
 182  1111.914
 183  1487.515
 184  1108.793
 185  1092.7
 186  1109.164
 187  1100.627
 188  1373.361
 189  1330.624
 190  1453.558
 191  1270.983
 192  1312.931
 193  1457.98
 194  1423.015
 195  1364.352
 196  1316.902
 197  1167.8
 198  1563.081
 199  1374.922
 200  1079.511
 201  1152.4
 202  1139.894
 203  1319.895
 204  1455.847
 205  1243.229
 206  1302.011
 207  1194.631
 208  1172.307
 209  1212.546
 210  993.5503
 211  872.7183
 212  918.7733
 213  1242.713
 214  1154.627
 215  1358.145
 216  1326.563
 217  1226.44
 218  1608.238
 219  1164.204
 220  1215.494
 221  1217.058
 222  1454.941
 223  1397.575
 224  1236.88
 225  1302.467
 226  1263.819
 227  1247.948
 228  1209.809
 229  1245.769
 230  1245.639
 231  1125.708
 232  1293.694
 233  1411.67
 234  1509.456
 235  1453.124
 236  1203.512
 237  1445.824
 238  1633.1
 239  1475.278
 240  1568.573
 241  1540.871
 242  1526.355
 243  1119.889
 244  1672.073
 245  1880.597
 246  1406.145
 247  1599.837
 248  1774.358
 249  1817.963
 250  1540.947
 251  1251.627
 252  953.101
 253  985.4052
 254  1229.536
 255  1335.721
 256  1563.375
 257  1619.877
 258  1454.923
 259  1415.892
 260  1585.875
 261  1733.663
 262  1772.204
 263  1798.02
 264  1766.475
 265  1404.04
 266  1157.71
 267  1155.455
 268  1195.59
 269  1407.468
 270  1210.834
 271  1440.83
 272  1592.535
 273  1123.831
 274  726.5895
 275  1168.593
 276  1238.522
 277  1011.566
 278  1397.071
 279  1594.018
 280  1405.516
 281  1663.596
 282  1288.938
 283  1188.885
 284  1206.034
 285  1345.473
 286  1229.965
 287  1412.963
 288  1356.371
 289  1320.188
 290  1151.801
 291  783.4039
 292  997.3864
 293  1166.833
 294  1492.405
 295  1334.458
 296  1632.074
 297  2014.251
 298  2923.692
 299  2993.523
 300  2348.82
 301  1873.916
 302  1372.214
 303  1401.317
 304  1277.909
 305  996.5479
 306  1196.028
 307  1242.973
 308  1240.912
 309  1087.619
 310  1039.662
 311  850.1786
 312  985.4986
 313  1249.805
 314  1110.548
 315  1244.512
 316  1442.093
 317  1289.331
 318  1271.93
 319  1210.065
 320  1272.76
 321  1241.473
 322  1401.09
 323  1223.751
 324  1286.705
 325  1294.202
 326  1077.079
 327  1211.378
 328  1108.809
 329  1215.421
 330  1332.127
 331  1129.53
 332  1340.011
 333  1357.373
 334  1123.448
 335  1226.93
 336  1502.647
 337  1346.621
 338  1186.084
 339  1009.673
 340  1421.49
 341  1363.66
 342  1112.522
 343  1021.887
 344  1286.221
 345  1247.498
 346  960.5074
 347  1010.101
 348  1216.891
 349  1070.365
 350  781.6588
 351  899.4844
 352  1001.298
 353  613.3871
 354  977.3432
 355  1251.226
 356  1038.986
 357  748.2361
 358  916.3354
 359  937.1534
 360  994.152
 361  749.6722
 362  1101.874
 363  929.0709
 364  675.0396
 365  917.7456
 366  1311.703
 367  1011.456
 368  920.6798
 369  894.5933
 370  1118.196
 371  827.0357
 372  1234.585
 373  1061.38
 374  910.706
 375  785.8382
 376  818.9114
 377  1139.102
 378  1129.061
 379  913.2795
 380  993.673
 381  1160.215
 382  1404.597
 383  1214.165
 384  1029.891
 385  706.501
 386  730.0753
 387  900.4011
 388  797.2538
 389  893.9155
 390  858.0342
 391  1030.302
 392  864.9792
 393  1089.334
 394  1065.985
 395  927.0509
 396  1054.274
 397  1293.784
 398  1321.85
 399  1258.769
 400  1235.837
 401  789.8544
 402  768.5422
 403  827.515
 404  909.3804
 405  1034.533
 406  1100.71
 407  1169.054
 408  1459.576
 409  1571.068
 410  1606.749
 411  1566.829
 412  1247.007
 413  1215.802
 414  1174.019
 415  1211.991
 416  1352.367
 417  1483.183
 418  1344.725
 419  1284.905
 420  1085.791
 421  1005.901
 422  1048.807
 423  916.5892
 424  851.6887
 425  957.7773
 426  916.2269
 427  1541.134
 428  1496.803
 429  1317.87
 430  1239.057
 431  1041.086
 432  1401.491
 433  1477.096
 434  1229.129
 435  1292.505
 436  1375.802
 437  1584.677
 438  1525.147
 439  1359.268
 440  1589.181
 441  1235.083
 442  1074.745
 443  1494.501
 444  1322.13
 445  1290.646
 446  1602.548
 447  1971.072
 448  1299.324
 449  1077.001
 450  1298.06
 451  1302.299
 452  1527.104
 453  1649.005
 454  1512.245
 455  1023.797
 456  1029.581
 457  1206.095
 458  1219.756
 459  1396.881
 460  1471.5
 461  1549.41
 462  1150.255
 463  1358.857
 464  1373.587
 465  1198.45
 466  1255.977
 467  1382.36
 468  1127.606
 469  1072.689
 470  1348.203
 471  1639.179
 472  1654.702
 473  1586.112
 474  1386.448
 475  1326.641
 476  1311.464
 477  1208.043
 478  1171.063
 479  1581.604
 480  1107.78
 481  1181.152
 482  1130.403
 483  1081.674
 484  973.5975
 485  1143.534
 486  1152.706
 487  1087.465
 488  910.2356
 489  674.4281
 490  699.59
 491  1078.594
 492  1403.781
 493  1263.892
 494  1204.2
 495  1274.207
 496  1336.95
 497  1049.719
 498  884.6717
 499  778.0389
 500  891.5981
 501  1054.152
 502  1169.758
 503  1361.463
 504  1292.638
 505  1167.84
 506  1253.825
 507  1049.822
 508  1281.886
 509  1511.961
 510  1094.51
 511  826.1506
