# Input file       =  1211614446.108927_cleaned.dat
# Candidate        =  PSR_0332+5434
# Telescope        =  AR
# Epoch_topo       =  58267.315568390361
# Epoch_bary       =  N/A
# T_sample         =  0.002
# Data Folded      =  7340032
# Data Avg         =  0.12756573481082 
# Data StdDev      =  3.2774855902772  
# Profile Bins     =  1024
# Profile Avg      =  914.482613829243 
# Profile StdDev   =  277.485177519078 
# Reduced chi-sqr  =  0.959
# Prob(Noise)      <  0.822   (~0.0 sigma)
# P_topo (ms)      =  714.519559684864  +/- 8.52e-05
# P'_topo (s/s)    =  -0                +/- 4.5e-11
# P''_topo (s/s^2) =  0                 +/- 1.99e-14
# P_bary (ms)      =  N/A
# P'_bary (s/s)    =  N/A
# P''_bary (s/s^2) =  N/A
# P_orb (s)        =  N/A
# asin(i)/c (s)    =  N/A
# eccentricity     =  N/A
# w (rad)          =  N/A
# T_peri           =  N/A
######################################################
   0  684.5471
   1  712.6812
   2  678.8127
   3  679.3252
   4  644.6876
   5  742.1577
   6  824.0222
   7  842.8389
   8  860.782
   9  846.3259
  10  743.0874
  11  614.3076
  12  576.0494
  13  618.7365
  14  687.0354
  15  801.319
  16  769.113
  17  726.4969
  18  632.0794
  19  708.2652
  20  793.5903
  21  829.0223
  22  862.0225
  23  777.247
  24  843.4752
  25  798.248
  26  807.2513
  27  744.6046
  28  803.4838
  29  918.286
  30  933.1559
  31  988.6127
  32  965.6261
  33  985.7399
  34  903.3056
  35  873.395
  36  1042.884
  37  1133.905
  38  1141.762
  39  961.2926
  40  896.5795
  41  1010.313
  42  947.2663
  43  862.3789
  44  865.022
  45  962.8313
  46  1074.446
  47  1038.578
  48  959.2232
  49  925.347
  50  1000.969
  51  1077.724
  52  1094.533
  53  964.4849
  54  904.5152
  55  847.97
  56  922.6331
  57  944.2426
  58  1072.26
  59  1106.778
  60  1097.363
  61  1076.338
  62  988.5284
  63  1048.893
  64  932.2238
  65  883.9573
  66  782.4131
  67  818.8549
  68  912.5001
  69  981.5172
  70  1018.221
  71  970.3364
  72  1042.176
  73  991.7843
  74  869.3505
  75  847.4982
  76  950.2977
  77  1093.871
  78  993.4172
  79  864.3365
  80  728.7616
  81  700.4459
  82  700.603
  83  686.6232
  84  832.8621
  85  904.6041
  86  834.4288
  87  671.5058
  88  600.0555
  89  718.0386
  90  828.882
  91  1003.706
  92  1025.553
  93  926.3293
  94  919.3102
  95  919.6274
  96  977.7476
  97  895.0198
  98  886.6625
  99  885.6077
 100  885.9636
 101  907.316
 102  966.3834
 103  1067.599
 104  1042.796
 105  954.9147
 106  949.764
 107  899.1697
 108  1023.723
 109  1051.515
 110  1177.771
 111  1025.468
 112  1057.521
 113  964.5795
 114  946.9724
 115  904.2496
 116  908.8629
 117  930.1614
 118  854.3682
 119  815.3816
 120  809.701
 121  787.7718
 122  842.4191
 123  862.2653
 124  871.7428
 125  847.9068
 126  824.9326
 127  807.191
 128  795.4086
 129  798.6296
 130  860.0327
 131  822.6299
 132  729.7872
 133  677.3422
 134  698.6124
 135  722.6583
 136  672.3953
 137  751.6542
 138  801.907
 139  967.1835
 140  941.8126
 141  923.3699
 142  822.5397
 143  761.7585
 144  828.5403
 145  809.2872
 146  944.3063
 147  1024.477
 148  1062.096
 149  952.9198
 150  900.9526
 151  905.5508
 152  938.0272
 153  997.5054
 154  1071.893
 155  1001.045
 156  852.2725
 157  766.4106
 158  827.2509
 159  973.7064
 160  1038.793
 161  1012.331
 162  899.5523
 163  900.1115
 164  845.8282
 165  902.9554
 166  902.0571
 167  954.384
 168  996.3353
 169  935.6535
 170  990.3302
 171  1079.644
 172  1145.479
 173  1141.92
 174  1057.742
 175  960.8202
 176  873.9998
 177  818.4053
 178  940.4099
 179  947.4464
 180  967.8016
 181  899.1837
 182  919.7431
 183  926.1229
 184  920.9775
 185  1024.614
 186  1001.519
 187  941.9324
 188  880.6243
 189  984.9837
 190  1147.489
 191  1173.032
 192  1216.38
 193  1203.594
 194  1104.975
 195  966.4844
 196  876.257
 197  898.1371
 198  927.0482
 199  905.3486
 200  928.5898
 201  935.9474
 202  1013.656
 203  1038.37
 204  1072.512
 205  1032.109
 206  1060.206
 207  918.1268
 208  841.2451
 209  830.8629
 210  912.1346
 211  1035.658
 212  1058.257
 213  1026.888
 214  1034.136
 215  880.715
 216  920.4218
 217  930.6464
 218  1094.332
 219  1185.145
 220  1141.417
 221  1087.603
 222  999.631
 223  951.571
 224  898.1404
 225  946.5696
 226  994.4791
 227  1076.82
 228  1121.392
 229  1153.579
 230  1145.65
 231  1070.102
 232  935.2568
 233  861.7559
 234  802.0886
 235  874.4888
 236  940.2257
 237  991.7917
 238  955.8472
 239  940.0654
 240  951.353
 241  982.322
 242  895.332
 243  867.9421
 244  973.8428
 245  1010.774
 246  1048.527
 247  1044.599
 248  1145.568
 249  1060.07
 250  1018.762
 251  982.2327
 252  949.1709
 253  938.4572
 254  820.8679
 255  850.7621
 256  826.5856
 257  887.7988
 258  910.2091
 259  900.5036
 260  1025.146
 261  962.9933
 262  1000.307
 263  812.7179
 264  672.8499
 265  571.9183
 266  607.8688
 267  749.3716
 268  810.1169
 269  883.1001
 270  921.8126
 271  993.3752
 272  1029.691
 273  948.8721
 274  881.734
 275  792.8267
 276  823.0418
 277  868.6916
 278  855.1832
 279  832.6306
 280  842.6544
 281  777.1458
 282  683.2065
 283  585.7844
 284  704.0926
 285  858.2582
 286  965.3985
 287  976.9838
 288  901.3792
 289  825.6064
 290  829.6307
 291  801.0742
 292  728.815
 293  784.7111
 294  891.6195
 295  1052.387
 296  925.275
 297  905.0856
 298  806.9767
 299  847.3015
 300  796.8787
 301  912.3962
 302  917.5087
 303  843.5299
 304  830.3209
 305  781.6483
 306  769.3289
 307  731.4524
 308  793.6028
 309  805.5217
 310  794.9994
 311  862.8983
 312  915.3235
 313  983.3074
 314  959.5941
 315  856.0256
 316  808.7336
 317  703.9638
 318  642.399
 319  677.0491
 320  883.4615
 321  997.5908
 322  950.1517
 323  846.1602
 324  843.5998
 325  899.0965
 326  903.0388
 327  825.1784
 328  756.3628
 329  638.2004
 330  600.321
 331  558.8782
 332  637.5995
 333  722.6337
 334  846.1053
 335  818.0912
 336  831.3812
 337  858.38
 338  909.9708
 339  937.8289
 340  965.1473
 341  1059.042
 342  933.6747
 343  939.9186
 344  859.5394
 345  873.5819
 346  829.2829
 347  819.151
 348  902.7888
 349  880.2836
 350  867.581
 351  856.5126
 352  962.9388
 353  1037.32
 354  940.0837
 355  910.9453
 356  836.9574
 357  904.1748
 358  878.2731
 359  948.9163
 360  1039.385
 361  1189.03
 362  1277.097
 363  1181.856
 364  992.1981
 365  1020.42
 366  1113.448
 367  1124.814
 368  1049.727
 369  955.9234
 370  979.9114
 371  997.8425
 372  1012.359
 373  993.9706
 374  1043.255
 375  1067.436
 376  1060.856
 377  1064.793
 378  1139.412
 379  1037.467
 380  976.4792
 381  884.9117
 382  887.3347
 383  912.2473
 384  1015.016
 385  1083.461
 386  1087.214
 387  1073.834
 388  1116.341
 389  1137.33
 390  1163.617
 391  1105.21
 392  1098.319
 393  951.587
 394  892.2187
 395  797.4913
 396  794.4571
 397  850.7411
 398  837.5773
 399  917.3021
 400  935.2288
 401  1030.013
 402  1021.191
 403  1041.731
 404  944.5285
 405  896.9429
 406  901.876
 407  830.5088
 408  834.6406
 409  781.5975
 410  832.6725
 411  900.6935
 412  1003.561
 413  1134.737
 414  963.9731
 415  904.9078
 416  866.3729
 417  1040.051
 418  1117.988
 419  1061.821
 420  973.7645
 421  946.2131
 422  1014.195
 423  1006.116
 424  969.4204
 425  791.4777
 426  762.8173
 427  769.4603
 428  828.0171
 429  923.7817
 430  999.5718
 431  1085.888
 432  1028.728
 433  1027.37
 434  1003.492
 435  950.163
 436  820.6848
 437  786.3852
 438  788.62
 439  801.05
 440  785.7046
 441  757.1326
 442  692.751
 443  725.9896
 444  889.5358
 445  940.8693
 446  836.24
 447  660.4487
 448  663.7103
 449  752.9242
 450  706.9379
 451  593.959
 452  524.4082
 453  757.3571
 454  954.9871
 455  1031.549
 456  1050.54
 457  999.8852
 458  1031.822
 459  958.0389
 460  887.1058
 461  684.8039
 462  570.1761
 463  621.3127
 464  764.0818
 465  913.0078
 466  988.1741
 467  966.0826
 468  966.5765
 469  917.0346
 470  890.0613
 471  791.5069
 472  763.3073
 473  880.5253
 474  967.6612
 475  1030.553
 476  1057.988
 477  1051.923
 478  1008.272
 479  891.7237
 480  902.9872
 481  819.8625
 482  828.5781
 483  920.2645
 484  1018.493
 485  1044.527
 486  1013.258
 487  983.6688
 488  835.0235
 489  816.4978
 490  789.8708
 491  997.2049
 492  1030.327
 493  1123.98
 494  1132.128
 495  1141.521
 496  1056.24
 497  868.1613
 498  886.1112
 499  924.6888
 500  986.7869
 501  1059.625
 502  1031.217
 503  965.2278
 504  987.7343
 505  1101.909
 506  1158.954
 507  1111.849
 508  1076.707
 509  982.3182
 510  875.6288
 511  801.3109
 512  897.7233
 513  944.4491
 514  894.6015
 515  812.819
 516  901.4435
 517  1024.375
 518  1071.099
 519  983.653
 520  900.3699
 521  855.9437
 522  894.329
 523  874.3292
 524  789.6224
 525  803.1742
 526  830.0656
 527  841.9997
 528  829.2756
 529  760.3969
 530  753.9382
 531  704.9672
 532  778.3073
 533  868.6113
 534  1009.174
 535  974.2128
 536  959.9988
 537  982.4437
 538  1037.826
 539  908.6609
 540  754.4025
 541  610.7432
 542  707.4437
 543  734.5471
 544  847.3318
 545  872.873
 546  847.6491
 547  833.106
 548  806.5168
 549  811.1299
 550  812.7457
 551  929.7476
 552  865.6532
 553  839.5062
 554  734.8198
 555  774.0748
 556  789.9764
 557  854.5287
 558  1004.205
 559  1035.353
 560  959.9687
 561  928.915
 562  898.4827
 563  1016.933
 564  976.8138
 565  904.8603
 566  779.0718
 567  850.1127
 568  935.9386
 569  997.6393
 570  1018.987
 571  1027.857
 572  1152.498
 573  1086.034
 574  1037.345
 575  933.0536
 576  859.1888
 577  867.0853
 578  808.3603
 579  790.3212
 580  829.7634
 581  1016.813
 582  1046.405
 583  1106.871
 584  1221.806
 585  1215.266
 586  1179.849
 587  1075.452
 588  1270.744
 589  1227.386
 590  1197.868
 591  1134.556
 592  1209.252
 593  1340.667
 594  1424.626
 595  1624.768
 596  1796.178
 597  1894.873
 598  1868.115
 599  1823.051
 600  1845.89
 601  1763.453
 602  1630.166
 603  1397.637
 604  1276.949
 605  1199.266
 606  1068.966
 607  956.8595
 608  837.9062
 609  953.1599
 610  989.1188
 611  1046.014
 612  943.7325
 613  946.8688
 614  1009.816
 615  935.4198
 616  868.6019
 617  757.292
 618  849.8061
 619  826.451
 620  779.5502
 621  782.9534
 622  808.4399
 623  863.1887
 624  799.6311
 625  853.5453
 626  863.1312
 627  944.7639
 628  903.9689
 629  840.4147
 630  719.1631
 631  720.0799
 632  765.1961
 633  760.1398
 634  739.2881
 635  732.5159
 636  743.0074
 637  732.9612
 638  672.8769
 639  774.2209
 640  841.6146
 641  957.9183
 642  933.2026
 643  811.7045
 644  683.4197
 645  633.6228
 646  744.067
 647  754.0036
 648  828.2615
 649  944.1261
 650  935.4636
 651  771.6285
 652  681.6245
 653  747.3987
 654  757.1233
 655  760.6256
 656  791.4725
 657  733.7571
 658  693.3733
 659  658.4371
 660  700.0527
 661  774.1578
 662  762.6146
 663  829.0322
 664  810.0669
 665  834.843
 666  790.9758
 667  862.9899
 668  824.1981
 669  859.8508
 670  792.8185
 671  827.0861
 672  800.2547
 673  837.049
 674  836.5501
 675  716.5893
 676  694.6234
 677  643.571
 678  819.3735
 679  925.3015
 680  926.8966
 681  840.6392
 682  787.4453
 683  776.5268
 684  734.061
 685  703.0189
 686  670.1113
 687  662.2524
 688  731.6171
 689  762.764
 690  885.6487
 691  915.946
 692  1037.344
 693  959.3615
 694  964.7844
 695  902.9403
 696  804.0566
 697  803.1075
 698  647.301
 699  713.9044
 700  723.3358
 701  847.6221
 702  886.0558
 703  959.5818
 704  1023.574
 705  990.8231
 706  936.6642
 707  893.3825
 708  915.5179
 709  959.3229
 710  879.93
 711  826.6308
 712  766.4116
 713  850.8224
 714  875.2205
 715  938.2423
 716  1026.868
 717  1027.977
 718  974.0117
 719  870.4147
 720  924.752
 721  934.4193
 722  949.3178
 723  854.5013
 724  878.1418
 725  931.8418
 726  921.459
 727  843.3308
 728  806.4134
 729  929.564
 730  959.1451
 731  914.786
 732  935.7921
 733  924.1587
 734  1001.014
 735  908.217
 736  854.7474
 737  756.0874
 738  752.0483
 739  942.9094
 740  1038.902
 741  1043.798
 742  928.1509
 743  961.8251
 744  934.3399
 745  858.9359
 746  791.2773
 747  795.9977
 748  815.0779
 749  775.6211
 750  746.775
 751  737.1854
 752  769.8264
 753  772.4495
 754  808.6458
 755  859.8749
 756  902.0476
 757  1008.527
 758  1036.643
 759  959.7951
 760  811.2849
 761  710.0215
 762  803.7152
 763  781.4418
 764  872.4263
 765  970.3894
 766  1080.466
 767  1084.161
 768  1071.894
 769  1108.167
 770  1001.437
 771  984.4073
 772  998.7331
 773  1067.507
 774  937.829
 775  746.7011
 776  714.9794
 777  767.3989
 778  794.4285
 779  775.238
 780  799.9998
 781  866.7574
 782  927.0113
 783  920.821
 784  778.2507
 785  698.5493
 786  675.9741
 787  874.22
 788  976.0916
 789  1034.5
 790  1006.412
 791  907.5724
 792  962.0166
 793  938.0453
 794  1066.384
 795  1102.078
 796  1244.702
 797  1263.043
 798  1081.035
 799  831.3036
 800  716.6437
 801  710.4559
 802  749.4174
 803  837.7701
 804  946.68
 805  1029.916
 806  1015.695
 807  971.4211
 808  941.1869
 809  892.6085
 810  974.9619
 811  942.0695
 812  993.3155
 813  1021.496
 814  1126.502
 815  1200.4
 816  1101.204
 817  1057.647
 818  969.1357
 819  1004.018
 820  1122.339
 821  1173.516
 822  1184.225
 823  1079.326
 824  1146.365
 825  1094.129
 826  1009.637
 827  1019.347
 828  1017.495
 829  1060.778
 830  1023.073
 831  1033.957
 832  894.6747
 833  919.2889
 834  895.2128
 835  911.3633
 836  890.6307
 837  939.7431
 838  1004.35
 839  929.0545
 840  852.955
 841  833.9665
 842  807.1782
 843  754.2035
 844  678.5789
 845  824.9389
 846  861.2778
 847  919.6235
 848  894.7374
 849  957.7462
 850  1004.357
 851  1165.013
 852  1245.45
 853  1097.596
 854  924.8884
 855  862.1298
 856  915.9233
 857  909.2271
 858  918.442
 859  892.1573
 860  910.627
 861  955.7377
 862  1044.583
 863  1062.265
 864  1049.817
 865  1116.333
 866  1056.44
 867  956.9959
 868  856.1967
 869  756.6627
 870  803.1662
 871  801.7054
 872  906.3622
 873  944.7749
 874  967.0972
 875  982.9951
 876  1061.201
 877  1039.813
 878  1005.215
 879  969.5872
 880  1070.188
 881  1121.644
 882  1148.101
 883  1056.727
 884  971.0877
 885  910.4722
 886  912.6772
 887  979.7607
 888  994.446
 889  979.9136
 890  968.224
 891  1010.443
 892  999.2383
 893  936.1897
 894  905.2431
 895  908.9658
 896  861.764
 897  838.3406
 898  894.459
 899  981.401
 900  1007.017
 901  972.1656
 902  909.8945
 903  921.8024
 904  870.3812
 905  886.0205
 906  815.0801
 907  816.1515
 908  816.0698
 909  833.0858
 910  930.7319
 911  1023.248
 912  1036.924
 913  1012.044
 914  1071.403
 915  1009.753
 916  903.5703
 917  820.8242
 918  756.9601
 919  813.2547
 920  810.412
 921  841.8074
 922  836.9855
 923  884.3563
 924  1003.577
 925  1057.265
 926  986.063
 927  803.0051
 928  712.2895
 929  746.4196
 930  791.1382
 931  754.9229
 932  740.2096
 933  803.1494
 934  859.9498
 935  969.4832
 936  966.4271
 937  851.303
 938  836.61
 939  921.9938
 940  1009.079
 941  962.8923
 942  1057.934
 943  1170.162
 944  1148.464
 945  1014.491
 946  889.011
 947  877.2372
 948  924.7576
 949  952.2216
 950  917.1093
 951  823.4814
 952  733.0599
 953  858.941
 954  846.9831
 955  839.2615
 956  785.4703
 957  835.4876
 958  958.9304
 959  949.2898
 960  859.8068
 961  729.9257
 962  644.4122
 963  686.1237
 964  837.0012
 965  892.2219
 966  857.3511
 967  848.8443
 968  854.0646
 969  869.2513
 970  867.3765
 971  852.3962
 972  825.1886
 973  700.952
 974  680.0936
 975  604.3268
 976  623.8405
 977  697.9863
 978  704.1049
 979  818.7172
 980  838.8474
 981  983.9272
 982  975.7318
 983  916.0137
 984  885.956
 985  851.8589
 986  801.0944
 987  658.3355
 988  755.8245
 989  819.9925
 990  957.2675
 991  937.5671
 992  956.822
 993  966.1893
 994  1014.679
 995  1027.782
 996  997.8773
 997  979.0085
 998  994.6047
 999  896.6016
1000  880.6472
1001  830.0604
1002  865.4419
1003  932.0952
1004  1001.765
1005  945.6545
1006  913.0131
1007  932.0995
1008  1011.254
1009  892.7291
1010  868.7449
1011  731.655
1012  836.936
1013  936.1403
1014  1021.764
1015  950.5426
1016  873.704
1017  850.3947
1018  992.4939
1019  955.4549
1020  984.2734
1021  877.7537
1022  879.5059
1023  812.1301
