# Input file       =  1211169117.109627_cleaned.dat
# Candidate        =  PSR_0332+5434
# Telescope        =  AR
# Epoch_topo       =  58262.161297565130
# Epoch_bary       =  N/A
# T_sample         =  0.002
# Data Folded      =  7143424
# Data Avg         =  0.117931182097874
# Data StdDev      =  4.79574523929928 
# Profile Bins     =  1024
# Profile Avg      =  822.683799644975 
# Profile StdDev   =  400.552401895464 
# Reduced chi-sqr  =  0.987
# Prob(Noise)      <  0.614   (~0.0 sigma)
# P_topo (ms)      =  714.524591509648  +/- 2.75e-05
# P'_topo (s/s)    =  -0                +/- 1.49e-11
# P''_topo (s/s^2) =  0                 +/- 6.76e-15
# P_bary (ms)      =  N/A
# P'_bary (s/s)    =  N/A
# P''_bary (s/s^2) =  N/A
# P_orb (s)        =  N/A
# asin(i)/c (s)    =  N/A
# eccentricity     =  N/A
# w (rad)          =  N/A
# T_peri           =  N/A
######################################################
   0  761.0057
   1  798.3971
   2  936.1072
   3  1001.748
   4  854.0295
   5  602.9818
   6  618.6361
   7  873.2325
   8  924.244
   9  810.0205
  10  633.0767
  11  806.4651
  12  893.7101
  13  935.9345
  14  821.3911
  15  864.0511
  16  918.3574
  17  887.4783
  18  603.6428
  19  415.264
  20  465.7448
  21  611.612
  22  656.9478
  23  615.8071
  24  701.9594
  25  861.3005
  26  908.1558
  27  927.3409
  28  988.1114
  29  1122.466
  30  1146.719
  31  957.537
  32  698.675
  33  530.8951
  34  592.1055
  35  725.5505
  36  747.0307
  37  732.1452
  38  790.6321
  39  921.7097
  40  974.9082
  41  817.7983
  42  754.5707
  43  702.6363
  44  732.0043
  45  687.9062
  46  572.8287
  47  624.751
  48  647.1398
  49  753.0695
  50  679.2621
  51  572.551
  52  560.9847
  53  603.4446
  54  638.2011
  55  620.3691
  56  732.627
  57  982.2702
  58  1097.519
  59  1096.307
  60  877.3457
  61  766.4952
  62  880.2868
  63  894.3273
  64  840.1097
  65  719.2542
  66  776.7858
  67  885.6563
  68  772.5424
  69  651.1112
  70  554.8453
  71  768.7825
  72  777.3989
  73  681.4059
  74  546.923
  75  793.2761
  76  1020.781
  77  1070.375
  78  891.7838
  79  818.2835
  80  836.1144
  81  827.9199
  82  780.143
  83  681.0728
  84  787.6608
  85  847.1302
  86  878.4506
  87  683.7647
  88  701.2704
  89  811.9102
  90  1031.017
  91  979.5259
  92  709.2859
  93  655.9698
  94  783.873
  95  1109.704
  96  1078.492
  97  708.3518
  98  592.2404
  99  795.6216
 100  942.1262
 101  733.7462
 102  486.5804
 103  451.9985
 104  573.5156
 105  706.5261
 106  789.7303
 107  816.3308
 108  942.5445
 109  1145.151
 110  1178.126
 111  1021.087
 112  972.4651
 113  916.3424
 114  901.6979
 115  638.0704
 116  600.3812
 117  651.1401
 118  757.0522
 119  674.575
 120  629.7412
 121  588.2966
 122  691.1397
 123  802.2107
 124  931.2593
 125  991.0369
 126  915.5094
 127  912.9843
 128  863.0572
 129  821.5593
 130  750.5016
 131  758.7162
 132  817.5787
 133  594.1364
 134  459.9166
 135  386.6305
 136  567.8313
 137  597.7783
 138  522.6396
 139  645.616
 140  805.6864
 141  913.7525
 142  757.0323
 143  725.7789
 144  788.1975
 145  996.6077
 146  918.6606
 147  731.8641
 148  591.3635
 149  584.9231
 150  662.8493
 151  587.3179
 152  486.5753
 153  378.7128
 154  575.7819
 155  768.7228
 156  827.5414
 157  688.0192
 158  725.6249
 159  897.3783
 160  984.3802
 161  1004.166
 162  892.1512
 163  895.0127
 164  766.5637
 165  649.9963
 166  545.0947
 167  602.0844
 168  595.3838
 169  616.6798
 170  545.2702
 171  619.9261
 172  838.3945
 173  1044.138
 174  1083.677
 175  957.195
 176  868.1135
 177  945.0645
 178  833.6462
 179  862.4893
 180  625.4104
 181  632.6526
 182  600.9316
 183  765.5683
 184  672.7946
 185  573.3483
 186  632.3198
 187  696.8641
 188  799.6169
 189  789.1192
 190  1024.188
 191  1038.794
 192  1085.161
 193  935.2102
 194  815.9779
 195  734.6381
 196  716.8409
 197  800.6577
 198  694.9261
 199  588.5289
 200  622.4609
 201  701.4079
 202  741.2779
 203  717.9572
 204  967.4119
 205  1011.848
 206  930.7861
 207  752.0561
 208  875.9504
 209  943.6816
 210  964.8544
 211  852.2405
 212  754.4215
 213  756.2009
 214  807.7674
 215  899.7592
 216  846.2259
 217  677.1104
 218  720.1171
 219  783.092
 220  872.2105
 221  710.8161
 222  789.5397
 223  860.1276
 224  1026.847
 225  1067.23
 226  1006.997
 227  928.3548
 228  909.8253
 229  905.0006
 230  832.0588
 231  699.1713
 232  594.4618
 233  673.759
 234  655.6526
 235  577.3437
 236  570.8227
 237  766.415
 238  969.4199
 239  922.918
 240  847.3141
 241  850.3665
 242  940.7717
 243  984.9641
 244  910.1522
 245  843.537
 246  830.9825
 247  772.6899
 248  690.5121
 249  498.0128
 250  468.9969
 251  519.7352
 252  598.6362
 253  488.7772
 254  614.2323
 255  867.2451
 256  1174.123
 257  1134.563
 258  966.6815
 259  771.2118
 260  808.5961
 261  865.0791
 262  692.0923
 263  597.2739
 264  600.4012
 265  787.2028
 266  858.5244
 267  801.1088
 268  678.5997
 269  767.6212
 270  862.6193
 271  734.0802
 272  562.2803
 273  662.7044
 274  1094.912
 275  1328.725
 276  1377.54
 277  1079.112
 278  952.7538
 279  860.8333
 280  826.9021
 281  811.3936
 282  608.0095
 283  500.9054
 284  491.8175
 285  533.2611
 286  383.178
 287  431.9967
 288  788.0286
 289  1112.656
 290  1155.125
 291  1119.309
 292  1108.777
 293  1076.557
 294  924.5055
 295  896.8319
 296  977.8592
 297  1041.824
 298  926.9754
 299  646.0941
 300  489.8769
 301  465.7921
 302  748.8347
 303  883.1938
 304  878.5179
 305  903.4708
 306  1051.635
 307  1138.403
 308  998.6675
 309  966.797
 310  1070.56
 311  1146.477
 312  1080.842
 313  966.252
 314  832.8514
 315  926.6514
 316  917.9355
 317  778.3946
 318  526.1498
 319  500.3711
 320  732.7868
 321  1052.24
 322  1142.194
 323  1219.604
 324  1263.482
 325  1145.037
 326  939.7825
 327  858.0728
 328  888.8009
 329  972.2858
 330  962.1577
 331  843.1386
 332  563.29
 333  643.4963
 334  916.8696
 335  1098.227
 336  1024.83
 337  933.2778
 338  1082.079
 339  1375.449
 340  1465.928
 341  1335.627
 342  1010.975
 343  971.0519
 344  959.6541
 345  881.2321
 346  561.1165
 347  513.2388
 348  654.6691
 349  883.7915
 350  882.0482
 351  792.4499
 352  782.659
 353  808.3457
 354  953.0693
 355  1055.277
 356  1175.755
 357  1358.113
 358  1416.317
 359  1369.357
 360  1193.424
 361  1127.576
 362  1127.241
 363  1040.773
 364  782.2867
 365  622.0853
 366  509.5586
 367  530.3826
 368  563.394
 369  803.5571
 370  1039.403
 371  1204.033
 372  1328.26
 373  1077.263
 374  1050.286
 375  897.4861
 376  1044.925
 377  938.2308
 378  948.5033
 379  1064.462
 380  1185.319
 381  1084.988
 382  805.2691
 383  564.3492
 384  623.8908
 385  720.1339
 386  975.7634
 387  982.0847
 388  985.8254
 389  1013.227
 390  1133.911
 391  1169.112
 392  969.3757
 393  841.0267
 394  872.704
 395  954.3161
 396  954.636
 397  879.0416
 398  957.4199
 399  959.9503
 400  993.5336
 401  880.9627
 402  862.799
 403  907.5827
 404  964.3867
 405  926.5119
 406  860.5679
 407  833.9683
 408  1015.269
 409  1062.826
 410  881.7806
 411  736.8687
 412  780.8226
 413  924.1357
 414  858.1683
 415  765.2655
 416  754.616
 417  701.8512
 418  718.8868
 419  769.5015
 420  820.3407
 421  868.8521
 422  1044.019
 423  1069.399
 424  975.5983
 425  779.0428
 426  983.8799
 427  963.9321
 428  874.7217
 429  758.1553
 430  683.5502
 431  624.0787
 432  624.6351
 433  585.9949
 434  624.027
 435  661.8304
 436  913.5513
 437  997.9791
 438  962.0208
 439  1017.02
 440  1045.038
 441  1084.184
 442  913.5874
 443  889.9936
 444  876.3476
 445  836.627
 446  636.7933
 447  500.4955
 448  516.7521
 449  636.5795
 450  737.3662
 451  688.6173
 452  705.6085
 453  703.7803
 454  945.746
 455  1038.468
 456  1076.375
 457  1005.174
 458  1029.791
 459  1074.933
 460  1026.385
 461  831.1983
 462  742.6638
 463  826.3
 464  781.8497
 465  711.7134
 466  605.8068
 467  831.2201
 468  1038.929
 469  1126.128
 470  1077.24
 471  1041.16
 472  1239.422
 473  1352.331
 474  1381.739
 475  1158.219
 476  1031.997
 477  981.2807
 478  890.7408
 479  773.8631
 480  654.0947
 481  749.5831
 482  785.3828
 483  773.1188
 484  706.3796
 485  644.669
 486  678.7813
 487  832.34
 488  1051.646
 489  1076.075
 490  1034.292
 491  992.8665
 492  1043.532
 493  771.0787
 494  652.3235
 495  587.6653
 496  697.7481
 497  716.9048
 498  538.6883
 499  533.8929
 500  616.1912
 501  778.6111
 502  869.6932
 503  1092.819
 504  1266.8
 505  1199.99
 506  950.2701
 507  878.1559
 508  720.8481
 509  762.4069
 510  806.5476
 511  844.8779
 512  747.9774
 513  662.796
 514  791.2252
 515  874.4258
 516  718.0035
 517  546.5189
 518  663.9919
 519  852.2546
 520  923.7178
 521  943.5579
 522  872.2396
 523  951.4639
 524  1057.039
 525  1076.05
 526  1005.77
 527  973.1502
 528  1126.601
 529  1094.271
 530  831.7469
 531  692.688
 532  706.3042
 533  857.0394
 534  937.9753
 535  940.1624
 536  946.9592
 537  883.6033
 538  938.8265
 539  819.8107
 540  809.1083
 541  894.0083
 542  1010.83
 543  959.4204
 544  790.7086
 545  702.1792
 546  774.2339
 547  859.0663
 548  680.0402
 549  647.2025
 550  493.229
 551  579.8347
 552  537.9866
 553  643.3072
 554  761.8186
 555  911.4302
 556  1141.665
 557  1197.597
 558  1025.834
 559  951.5526
 560  943.4409
 561  1034.236
 562  798.7523
 563  748.558
 564  844.0166
 565  966.525
 566  838.1005
 567  783.5342
 568  781.131
 569  946.9435
 570  915.8004
 571  829.1833
 572  839.043
 573  916.9777
 574  1203.555
 575  1242.183
 576  1087.877
 577  843.275
 578  685.9364
 579  788.7701
 580  839.1143
 581  713.3688
 582  612.9799
 583  629.6978
 584  939.9471
 585  1146.821
 586  1121.669
 587  1221.385
 588  1245.849
 589  1273.212
 590  1085.059
 591  1108.679
 592  1335.291
 593  1531.024
 594  1604.069
 595  1591.837
 596  1614.649
 597  1702.98
 598  1755.943
 599  1878.946
 600  1883.284
 601  1801.918
 602  1747.548
 603  1591.57
 604  1409.953
 605  1175.409
 606  1163.028
 607  1157.559
 608  1062.808
 609  900.192
 610  816.4817
 611  818.6071
 612  705.7746
 613  615.9062
 614  661.2385
 615  745.806
 616  839.5535
 617  890.6734
 618  999.0156
 619  1070.076
 620  1279.07
 621  1328.335
 622  1159.066
 623  1040.177
 624  1053.781
 625  1154.848
 626  1097.705
 627  989.6942
 628  806.3849
 629  715.2507
 630  701.9786
 631  771.4321
 632  762.5333
 633  899.8593
 634  1042.1
 635  1101.552
 636  1057.206
 637  1002.131
 638  1131.403
 639  1203.534
 640  1236.282
 641  890.8863
 642  730.7144
 643  592.7465
 644  771.0282
 645  785.8182
 646  756.8799
 647  743.1491
 648  684.4407
 649  633.5809
 650  510.6994
 651  699.9655
 652  1050.737
 653  1248.193
 654  1229.747
 655  1084.954
 656  1038.325
 657  990.5507
 658  1020.837
 659  925.4536
 660  860.0005
 661  834.3365
 662  897.5326
 663  824.2263
 664  662.9105
 665  606.7542
 666  776.2847
 667  1080.702
 668  1006.521
 669  984.9747
 670  975.4351
 671  1108.901
 672  1098.219
 673  1083.992
 674  999.6554
 675  1001.308
 676  1034.276
 677  1030.494
 678  870.9116
 679  768.4857
 680  852.891
 681  758.2467
 682  664.1316
 683  585.0767
 684  733.3864
 685  775.6321
 686  759.58
 687  690.5256
 688  825.0789
 689  819.459
 690  815.4783
 691  787.317
 692  854.2437
 693  803.3427
 694  707.7979
 695  710.4908
 696  540.5424
 697  500.6333
 698  509.8391
 699  654.1124
 700  618.9222
 701  528.1735
 702  618.7126
 703  678.7347
 704  787.5125
 705  799.0667
 706  835.686
 707  880.4835
 708  936.5701
 709  808.0768
 710  597.9689
 711  322.8351
 712  426.7074
 713  522.498
 714  501.261
 715  279.0475
 716  456.9453
 717  699.2188
 718  910.8185
 719  825.8539
 720  917.5405
 721  882.7905
 722  940.0039
 723  809.704
 724  675.2268
 725  736.4229
 726  740.3009
 727  733.6913
 728  462.2388
 729  349.0923
 730  387.9046
 731  551.2264
 732  684.499
 733  662.2631
 734  590.6467
 735  756.8784
 736  1020.344
 737  1036.778
 738  989.9365
 739  988.9784
 740  1076.266
 741  983.1403
 742  761.1561
 743  599.4341
 744  535.9362
 745  682.48
 746  586.1165
 747  531.5106
 748  439.0732
 749  558.5608
 750  626.4302
 751  716.6163
 752  690.3175
 753  804.8287
 754  907.0847
 755  916.4324
 756  756.0981
 757  726.0976
 758  786.5257
 759  725.0947
 760  451.6483
 761  236.1764
 762  300.1086
 763  621.9741
 764  827.7227
 765  768.6015
 766  665.6823
 767  607.323
 768  723.5234
 769  687.9762
 770  671.563
 771  538.1837
 772  663.2891
 773  758.0762
 774  666.3378
 775  530.6229
 776  414.3914
 777  568.9911
 778  575.4822
 779  467.0224
 780  356.1369
 781  400.4631
 782  536.3787
 783  706.8692
 784  756.9926
 785  835.004
 786  945.6796
 787  868.5998
 788  720.0728
 789  562.5284
 790  749.8551
 791  848.5892
 792  921.955
 793  858.0422
 794  790.6877
 795  808.6556
 796  841.4862
 797  939.4205
 798  787.7251
 799  785.1374
 800  973.1946
 801  1116.726
 802  1008.513
 803  742.0939
 804  793.6518
 805  878.8514
 806  864.6294
 807  701.6223
 808  630.9919
 809  725.6508
 810  758.7844
 811  722.426
 812  572.0394
 813  538.5441
 814  609.869
 815  676.0582
 816  625.4249
 817  667.2241
 818  945.5544
 819  1137.241
 820  1137.308
 821  1059.967
 822  1127.683
 823  1057.163
 824  1013.547
 825  777.2817
 826  647.6791
 827  575.3197
 828  745.6232
 829  787.475
 830  651.0922
 831  631.8272
 832  779.7183
 833  832.5206
 834  726.9248
 835  605.2883
 836  747.5462
 837  785.8582
 838  793.7761
 839  688.835
 840  650.0896
 841  615.3791
 842  764.5767
 843  786.2399
 844  660.2056
 845  527.0056
 846  552.5973
 847  562.103
 848  488.3143
 849  584.8191
 850  816.942
 851  1066.698
 852  993.8521
 853  941.769
 854  847.6816
 855  960.9366
 856  825.5762
 857  727.7366
 858  560.1391
 859  582.3112
 860  644.5943
 861  586.2446
 862  450.6668
 863  519.8856
 864  624.1549
 865  766.9191
 866  696.0883
 867  598.6718
 868  644.5391
 869  824.2222
 870  1040.028
 871  940.7673
 872  858.0995
 873  887.7149
 874  992.3977
 875  869.9756
 876  630.2812
 877  410.0757
 878  413.416
 879  451.9191
 880  451.8078
 881  338.6094
 882  446.6067
 883  713.3995
 884  874.9276
 885  794.5278
 886  744.1638
 887  792.558
 888  991.7092
 889  938.3575
 890  811.6848
 891  592.5278
 892  707.1766
 893  689.7269
 894  644.7739
 895  441.5415
 896  538.8743
 897  664.703
 898  699.4719
 899  661.4711
 900  571.5326
 901  699.7912
 902  684.137
 903  782.0914
 904  612.6173
 905  624.609
 906  685.0643
 907  694.6719
 908  506.0512
 909  331.2576
 910  420.3271
 911  509.5922
 912  555.4592
 913  508.0479
 914  559.0936
 915  716.64
 916  875.0473
 917  1003.376
 918  855.9523
 919  792.749
 920  722.7864
 921  754.0801
 922  568.6636
 923  519.5425
 924  591.3803
 925  707.2512
 926  656.3995
 927  503.0736
 928  519.8104
 929  685.4233
 930  827.5101
 931  818.5781
 932  743.4608
 933  820.0015
 934  946.8674
 935  936.207
 936  843.3364
 937  722.1876
 938  706.6612
 939  782.7383
 940  545.526
 941  416.0373
 942  323.4924
 943  529.7888
 944  681.093
 945  705.9343
 946  700.9633
 947  722.5247
 948  935.6274
 949  1127.264
 950  977.7055
 951  875.5242
 952  877.0183
 953  941.4743
 954  837.4465
 955  773.7665
 956  1010.553
 957  1022.99
 958  858.861
 959  605.3736
 960  549.7076
 961  588.4404
 962  753.9254
 963  750.389
 964  637.3647
 965  761.0883
 966  930.9603
 967  1085.926
 968  788.5897
 969  768.626
 970  787.6168
 971  924.8652
 972  890.6757
 973  744.0085
 974  634.6126
 975  658.2414
 976  820.7017
 977  764.8939
 978  649.5897
 979  661.9854
 980  876.6712
 981  926.134
 982  763.9856
 983  680.3419
 984  826.1093
 985  997.4654
 986  999.7829
 987  921.7056
 988  920.9379
 989  792.3972
 990  809.3173
 991  813.7026
 992  830.5496
 993  731.366
 994  705.5711
 995  808.0536
 996  718.0354
 997  728.7582
 998  892.2915
 999  1089.137
1000  1023.958
1001  891.9044
1002  874.4584
1003  1026.948
1004  986.0887
1005  675.1752
1006  490.2184
1007  490.1636
1008  636.5751
1009  657.4897
1010  501.8818
1011  322.5878
1012  504.1455
1013  825.7747
1014  890.8389
1015  835.9538
1016  978.0989
1017  1281.878
1018  1305.321
1019  1160.634
1020  1028.183
1021  1132.207
1022  1096.785
1023  966.0438
