# Input file       =  1211113075.123591_cleaned.dat
# Candidate        =  PSR_0332+5434
# Telescope        =  AR
# Epoch_topo       =  58261.512663467489
# Epoch_bary       =  N/A
# T_sample         =  0.002
# Data Folded      =  7340032
# Data Avg         =  0.0403041104178757
# Data StdDev      =  1.00016594188595 
# Profile Bins     =  512
# Profile Avg      =  577.812066057177 
# Profile StdDev   =  119.752905102633 
# Reduced chi-sqr  =  0.985
# Prob(Noise)      <  0.589   (~0.0 sigma)
# P_topo (ms)      =  714.525593763658  +/- 0.00017
# P'_topo (s/s)    =  -0                +/- 8.97e-11
# P''_topo (s/s^2) =  0                 +/- 3.96e-14
# P_bary (ms)      =  N/A
# P'_bary (s/s)    =  N/A
# P''_bary (s/s^2) =  N/A
# P_orb (s)        =  N/A
# asin(i)/c (s)    =  N/A
# eccentricity     =  N/A
# w (rad)          =  N/A
# T_peri           =  N/A
######################################################
   0  1157.118
   1  1102
   2  843.3577
   3  592.2233
   4  530.6509
   5  523.1872
   6  605.7142
   7  573.9661
   8  504.5005
   9  537.1539
  10  561.5485
  11  580.1586
  12  595.7159
  13  560.5269
  14  539.9513
  15  590.6746
  16  681.4705
  17  628.0929
  18  564.1597
  19  638.1201
  20  624.5021
  21  516.7101
  22  526.8218
  23  472.2192
  24  523.65
  25  606.9783
  26  568.7327
  27  509.7629
  28  612.5087
  29  485.99
  30  419.8932
  31  479.0064
  32  539.3383
  33  524.6757
  34  590.7153
  35  539.8407
  36  529.0646
  37  551.8085
  38  611.9094
  39  530.0837
  40  637.0801
  41  660.2286
  42  489.8996
  43  502.1593
  44  590.2408
  45  521.3725
  46  454.0299
  47  479.9916
  48  601.5281
  49  675.4816
  50  625.8027
  51  500.0918
  52  457.7249
  53  409.7757
  54  526.8202
  55  395.3466
  56  452.3761
  57  527.7379
  58  453.95
  59  468.93
  60  509.044
  61  383.7757
  62  441.2531
  63  467.5868
  64  560.0349
  65  479.5362
  66  539.7485
  67  604.8799
  68  508.9698
  69  371.5108
  70  448.7754
  71  555.6396
  72  564.5802
  73  565.3525
  74  648.8281
  75  632.2931
  76  622.3301
  77  613.3463
  78  627.5775
  79  690.3813
  80  562.7205
  81  623.8288
  82  676.3849
  83  675.8331
  84  662.9158
  85  625.1068
  86  713.1188
  87  654.3792
  88  595.6531
  89  689.0787
  90  696.1955
  91  684.623
  92  607.8127
  93  667.1295
  94  655.4816
  95  588.6661
  96  572.895
  97  563.6791
  98  605.2621
  99  596.2418
 100  618.3694
 101  642.0798
 102  663.8838
 103  539.5104
 104  484.4035
 105  548.9487
 106  542.1747
 107  506.2321
 108  467.7047
 109  514.2872
 110  494.1941
 111  449.3171
 112  580.4686
 113  532.5866
 114  518.5114
 115  583.9355
 116  745.2243
 117  574.09
 118  467.1106
 119  528.5423
 120  471.9869
 121  380.5062
 122  534.3497
 123  587.3197
 124  588.8784
 125  576.8716
 126  497.1307
 127  573.7613
 128  512.129
 129  502.4084
 130  506.2806
 131  498.6297
 132  380.6578
 133  522.7905
 134  564.4208
 135  663.1466
 136  673.5233
 137  628.1215
 138  621.5224
 139  651.4921
 140  702.2616
 141  674.2078
 142  589.7871
 143  543.0527
 144  641.3511
 145  718.6928
 146  554.0309
 147  587.536
 148  616.6313
 149  722.3408
 150  739.7122
 151  659.806
 152  667.2247
 153  577.3196
 154  528.0012
 155  606.0645
 156  595.5729
 157  629.8314
 158  549.6183
 159  475.1339
 160  515.216
 161  606.5908
 162  498.0166
 163  432.4246
 164  545.2681
 165  629.1968
 166  603.8062
 167  538.2698
 168  541.3643
 169  649.9055
 170  641.3104
 171  626.8412
 172  533.1504
 173  604.9759
 174  575.5507
 175  518.9562
 176  692.1283
 177  714.41
 178  677.8934
 179  515.8786
 180  570.8874
 181  602.8427
 182  745.1606
 183  619.5665
 184  588.8597
 185  649.6519
 186  572.6749
 187  618.2706
 188  560.9495
 189  547.3539
 190  542.7122
 191  490.9238
 192  567.9839
 193  569.0962
 194  634.0596
 195  550.3678
 196  655.8275
 197  591.3442
 198  582.9138
 199  569.0352
 200  533.1151
 201  586.6903
 202  615.813
 203  599.0004
 204  589.7007
 205  471.6669
 206  539.6799
 207  601.0278
 208  546.4937
 209  630.8846
 210  754.938
 211  608.3671
 212  613.9057
 213  648.8463
 214  604.9696
 215  686.0436
 216  658.304
 217  716.35
 218  587.6828
 219  618.4682
 220  571.9219
 221  619.7969
 222  601.1213
 223  545.0009
 224  432.6718
 225  541.0189
 226  681.3906
 227  527.4751
 228  494.7357
 229  571.822
 230  632.7464
 231  735.6402
 232  664.9306
 233  561.1959
 234  540.4709
 235  555.7167
 236  531.9492
 237  565.5917
 238  592.291
 239  498.0352
 240  527.7146
 241  536.7735
 242  534.3817
 243  543.6914
 244  597.0717
 245  583.8151
 246  505.1885
 247  576.5098
 248  626.6215
 249  532.3033
 250  570.3898
 251  552.0002
 252  617.0915
 253  667.9452
 254  651.8264
 255  590.9072
 256  622.7738
 257  589.8006
 258  550.6059
 259  487.3144
 260  642.1667
 261  641.6453
 262  605.3871
 263  619.9402
 264  540.1094
 265  553.6824
 266  563.4222
 267  645.9638
 268  558.6769
 269  538.3347
 270  497.4682
 271  576.1191
 272  461.177
 273  600.231
 274  711.9024
 275  667.3442
 276  620.3615
 277  627.6397
 278  577.7797
 279  542.4745
 280  466.5764
 281  393.5329
 282  480.6783
 283  491.7144
 284  549.1195
 285  564.7568
 286  494.6514
 287  505.8642
 288  588.9615
 289  593.6523
 290  583.1393
 291  496.161
 292  664.3647
 293  549.1854
 294  632.5342
 295  773.4285
 296  644.3564
 297  512.7977
 298  576.3613
 299  621.3802
 300  553.8221
 301  511.3267
 302  567.2662
 303  571.1203
 304  622.02
 305  575.694
 306  594.6807
 307  611.9095
 308  511.1286
 309  471.5902
 310  595.2372
 311  669.7744
 312  615.4182
 313  645.1713
 314  679.2504
 315  561.2767
 316  627.7518
 317  711.9581
 318  646.9006
 319  654.0251
 320  595.9854
 321  596.1861
 322  620.8152
 323  532.3596
 324  564.5952
 325  573.8983
 326  654.085
 327  581.6743
 328  593.9606
 329  603.4026
 330  704.1652
 331  623.2001
 332  633.092
 333  585.8246
 334  522.5933
 335  538.9924
 336  636.1535
 337  499.9586
 338  618.0612
 339  668.8232
 340  574.272
 341  586.916
 342  485.2933
 343  493.0534
 344  526.3901
 345  609.0625
 346  671.5294
 347  641.4872
 348  571.5664
 349  495.6205
 350  534.7689
 351  582.3923
 352  655.6274
 353  715.473
 354  683.7584
 355  629.3458
 356  625.7041
 357  499.4227
 358  529.1094
 359  572.7558
 360  588.9124
 361  572.7561
 362  655.1049
 363  639.4825
 364  626.4965
 365  475.566
 366  429.1842
 367  552.9925
 368  551.4171
 369  653.4416
 370  521.3171
 371  473.0403
 372  459.8396
 373  495.9901
 374  558.5311
 375  482.4556
 376  494.1387
 377  585.9293
 378  600.5481
 379  521.0853
 380  516.6483
 381  555.376
 382  583.8927
 383  627.6366
 384  559.9344
 385  635.9074
 386  594.0388
 387  732.9036
 388  732.2213
 389  504.1949
 390  436.031
 391  477.3031
 392  558.6484
 393  481.7301
 394  409.3784
 395  508.4705
 396  455.7531
 397  422.072
 398  422.3373
 399  492.076
 400  502.6534
 401  426.4013
 402  414.1259
 403  469.9632
 404  510.3515
 405  544.9199
 406  463.4867
 407  453.3607
 408  470.0973
 409  446.5501
 410  600.9664
 411  519.9583
 412  541.6414
 413  546.8551
 414  548.0162
 415  583.4921
 416  579.7657
 417  683.4638
 418  634.2264
 419  489.0359
 420  497.4738
 421  557.421
 422  629.371
 423  583.3293
 424  538.2776
 425  428.1102
 426  428.9683
 427  526.675
 428  577.2937
 429  473.7655
 430  437.1762
 431  393.6024
 432  389.7166
 433  428.3689
 434  605.9825
 435  596.1469
 436  604.3291
 437  570.5738
 438  634.5291
 439  641.0663
 440  609.8062
 441  552.8775
 442  478.6349
 443  572.5024
 444  653.0872
 445  610.3018
 446  707.9489
 447  519.0322
 448  520.8615
 449  541.7651
 450  532.5757
 451  573.2762
 452  598.0634
 453  579.5823
 454  763.301
 455  749.4033
 456  632.0748
 457  594.019
 458  491.3826
 459  511.8495
 460  581.488
 461  707.5817
 462  688.4838
 463  634.7066
 464  606.8499
 465  698.7757
 466  500.7669
 467  520.1855
 468  477.182
 469  469.8458
 470  521.6312
 471  512.0095
 472  641.9271
 473  664.5477
 474  670.6645
 475  602.8453
 476  663.2009
 477  636.5178
 478  590.6252
 479  619.274
 480  604.1617
 481  590.8894
 482  620.2246
 483  681.231
 484  611.5818
 485  496.9127
 486  617.185
 487  561.4937
 488  621.3781
 489  633.0901
 490  570.2419
 491  627.7635
 492  599.2042
 493  515.5468
 494  591.7853
 495  655.5804
 496  617.478
 497  650.6645
 498  706.0504
 499  657.3039
 500  558.9133
 501  539.6295
 502  692.2335
 503  656.7849
 504  679.0814
 505  567.7716
 506  508.2787
 507  665.3909
 508  632.3777
 509  663.6309
 510  734.9617
 511  1082.44
