# Input file       =  1211801664.116601_cleaned.dat
# Candidate        =  PSR_0332+5434
# Telescope        =  AR
# Epoch_topo       =  58269.482443479181
# Epoch_bary       =  N/A
# T_sample         =  0.002
# Data Folded      =  7340032
# Data Avg         =  0.0562928287877838
# Data StdDev      =  2.86646676483994 
# Profile Bins     =  512
# Profile Avg      =  806.959104619236 
# Profile StdDev   =  343.210769427372 
# Reduced chi-sqr  =  1.183
# Prob(Noise)      <  0.00264   (~2.8 sigma)
# P_topo (ms)      =  714.517780250234  +/- 0.000292
# P'_topo (s/s)    =  -0                +/- 1.54e-10
# P''_topo (s/s^2) =  0                 +/- 6.79e-14
# P_bary (ms)      =  N/A
# P'_bary (s/s)    =  N/A
# P''_bary (s/s^2) =  N/A
# P_orb (s)        =  N/A
# asin(i)/c (s)    =  N/A
# eccentricity     =  N/A
# w (rad)          =  N/A
# T_peri           =  N/A
######################################################
   0  1154.742
   1  844.6872
   2  950.1209
   3  914.9732
   4  865.3774
   5  592.1517
   6  572.7292
   7  627.6174
   8  895.225
   9  1092.599
  10  1135.675
  11  1003.031
  12  884.0914
  13  924.6261
  14  1149.381
  15  948.735
  16  720.0037
  17  737.7928
  18  1091.062
  19  395.0831
  20  539.3083
  21  1004.408
  22  1333.94
  23  940.4303
  24  807.9377
  25  990.4397
  26  875.5071
  27  881.3237
  28  726.6854
  29  706.2865
  30  815.2939
  31  1018.438
  32  1134.874
  33  733.8133
  34  830.9389
  35  1017.114
  36  858.0484
  37  550.1874
  38  731.7702
  39  954.4677
  40  716.1854
  41  803.0244
  42  982.5538
  43  828.2089
  44  806.3311
  45  699.0934
  46  924.1505
  47  1104.574
  48  1062.408
  49  893.0534
  50  538.9994
  51  815.7797
  52  681.8502
  53  190.626
  54  178.9082
  55  579.7804
  56  954.8948
  57  828.9114
  58  703.2845
  59  660.7471
  60  983.6465
  61  913.1893
  62  927.9162
  63  708.2823
  64  612.4419
  65  717.5376
  66  590.2986
  67  762.8403
  68  695.3831
  69  777.2501
  70  864.2246
  71  842.0475
  72  692.5081
  73  980.8995
  74  492.4471
  75  479.4006
  76  369.3066
  77  361.4673
  78  729.3561
  79  1121.153
  80  867.0125
  81  689.0938
  82  594.1672
  83  802.7911
  84  680.1304
  85  622.2536
  86  681.9756
  87  640.57
  88  538.1081
  89  292.4789
  90  572.738
  91  660.0859
  92  861.1266
  93  1000.513
  94  1091.466
  95  1003.841
  96  622.8644
  97  765.3307
  98  931.6228
  99  969.1677
 100  1103.98
 101  947.2535
 102  734.8569
 103  767.3664
 104  684.0949
 105  607.6193
 106  572.7338
 107  703.0789
 108  501.2624
 109  660.0974
 110  811.5706
 111  919.0374
 112  1184.648
 113  897.0902
 114  590.646
 115  403.7429
 116  558.6443
 117  497.4733
 118  600.898
 119  1020.831
 120  803.2903
 121  856.132
 122  815.4779
 123  802.7922
 124  691.6149
 125  1153.3
 126  1302.526
 127  886.5193
 128  712.6426
 129  1038.43
 130  706.183
 131  543.8423
 132  819.2989
 133  1200.706
 134  1427.168
 135  932.5092
 136  808.0208
 137  651.6766
 138  749.9821
 139  841.0826
 140  876.2307
 141  906.6177
 142  752.3381
 143  917.8689
 144  831.8307
 145  854.7491
 146  1067.943
 147  998.4923
 148  828.7169
 149  787.9735
 150  1144.063
 151  959.3091
 152  813.3495
 153  926.5205
 154  964.9136
 155  825.0895
 156  952.2402
 157  1104.889
 158  549.5369
 159  431.9836
 160  614.5734
 161  655.9252
 162  601.9893
 163  701.3909
 164  789.8812
 165  412.1812
 166  838.3452
 167  724.0801
 168  711.4965
 169  665.0671
 170  759.8389
 171  752.1473
 172  868.6518
 173  798.1754
 174  898.4174
 175  1236.139
 176  1009.929
 177  631.6988
 178  824.2678
 179  879.009
 180  830.8288
 181  864.287
 182  832.0745
 183  772.4009
 184  892.8978
 185  1173.258
 186  1013.528
 187  1042.878
 188  1325.678
 189  1075.179
 190  810.1215
 191  805.6266
 192  782.3087
 193  968.4076
 194  898.1807
 195  1264.529
 196  1339.621
 197  1016.062
 198  835.7463
 199  1237.616
 200  1111.714
 201  895.7271
 202  1122.955
 203  564.8338
 204  479.8623
 205  862.4346
 206  948.9524
 207  858.5239
 208  964.2972
 209  773.8273
 210  731.7184
 211  465.1241
 212  462.2306
 213  499.765
 214  543.8651
 215  677.4855
 216  816.5226
 217  924.483
 218  685.5288
 219  625.6491
 220  977.1765
 221  1006.783
 222  888.5961
 223  489.1428
 224  767.4313
 225  1061.82
 226  412.943
 227  671.7324
 228  1165.705
 229  1045.227
 230  864.8851
 231  848.4443
 232  704.6675
 233  701.5813
 234  899.6849
 235  768.4651
 236  400.7461
 237  396.7541
 238  588.7716
 239  785.9324
 240  1018.099
 241  933.4886
 242  653.6719
 243  1233.697
 244  1196.974
 245  891.6981
 246  751.7291
 247  496.8738
 248  701.3689
 249  1102.943
 250  1095.572
 251  889.3657
 252  964.2896
 253  840.5786
 254  820.2513
 255  854.4598
 256  1005.932
 257  792.5253
 258  1011.025
 259  888.6132
 260  833.239
 261  739.9458
 262  930.4335
 263  728.9708
 264  938.6144
 265  1153.048
 266  1102.147
 267  1002.529
 268  1048.581
 269  776.8685
 270  879.8669
 271  1052.952
 272  815.2607
 273  489.9736
 274  927.9671
 275  918.8167
 276  937.0206
 277  651.4926
 278  451.1922
 279  560.9232
 280  790.9623
 281  833.8574
 282  676.8209
 283  684.5093
 284  362.9405
 285  682.7546
 286  695.5027
 287  549.8326
 288  794.8987
 289  723.9422
 290  761.2726
 291  910.3016
 292  845.0057
 293  785.9053
 294  1089.163
 295  1443.698
 296  1587.833
 297  2242.583
 298  2641.899
 299  2635.783
 300  2248.857
 301  2041.982
 302  1603.995
 303  847.525
 304  845.4164
 305  767.7986
 306  775.8939
 307  1019.61
 308  912.6978
 309  817.2399
 310  544.3577
 311  814.2133
 312  1081.089
 313  795.9992
 314  1153.764
 315  1435.424
 316  1357.01
 317  1080.984
 318  1114.302
 319  998.6092
 320  485.8562
 321  626.1016
 322  882.6906
 323  1001.718
 324  872.8679
 325  562.9286
 326  409.4758
 327  581.9792
 328  861.6601
 329  772.067
 330  419.9045
 331  680.5839
 332  1136.787
 333  846.8322
 334  922.1575
 335  738.5143
 336  872.9011
 337  909.0175
 338  754.6947
 339  399.8154
 340  270.3514
 341  936.7995
 342  839.4134
 343  710.3535
 344  632.2183
 345  606.607
 346  747.5995
 347  731.0952
 348  789.3497
 349  760.9063
 350  812.8641
 351  526.1891
 352  385.3697
 353  606.3189
 354  782.5786
 355  831.4219
 356  819.0684
 357  944.6291
 358  1003.751
 359  907.6884
 360  1112.44
 361  736.5514
 362  556.2508
 363  645.8071
 364  855.0863
 365  865.4889
 366  667.1765
 367  1072.756
 368  893.5998
 369  780.5834
 370  1164.752
 371  1196.724
 372  706.4333
 373  724.202
 374  699.8018
 375  824.5009
 376  595.0971
 377  507.7681
 378  794.8763
 379  1034.999
 380  992.3962
 381  1040.205
 382  1031.786
 383  1021.039
 384  739.3302
 385  521.3486
 386  796.5517
 387  747.1017
 388  500.1497
 389  493.8024
 390  388.1688
 391  606.1172
 392  892.1072
 393  918.3738
 394  753.9497
 395  753.0284
 396  580.6053
 397  653.1959
 398  712.7986
 399  574.5629
 400  793.8253
 401  725.6594
 402  622.566
 403  612.258
 404  765.6711
 405  936.1146
 406  705.4781
 407  542.9496
 408  636.1616
 409  433.4665
 410  487.1353
 411  508.3942
 412  651.9504
 413  709.9446
 414  681.4748
 415  1022.132
 416  707.457
 417  474.3623
 418  552.6631
 419  573.8414
 420  710.6795
 421  941.6266
 422  830.8264
 423  837.4791
 424  952.2781
 425  795.4319
 426  1089.258
 427  939.4291
 428  478.9214
 429  701.513
 430  711.376
 431  660.9107
 432  937.6767
 433  1018.303
 434  1007
 435  457.0547
 436  279.0048
 437  667.446
 438  498.1138
 439  585.0079
 440  853.1441
 441  988.3953
 442  970.7014
 443  1065.748
 444  716.1825
 445  957.755
 446  927.4919
 447  878.6129
 448  725.9194
 449  575.9382
 450  337.9549
 451  715.7295
 452  1119.198
 453  682.8236
 454  437.2979
 455  464.8412
 456  669.8206
 457  718.0226
 458  559.4351
 459  527.1243
 460  657.1699
 461  907.0532
 462  762.2216
 463  704.6191
 464  610.4615
 465  503.1296
 466  542.1324
 467  657.0559
 468  601.6
 469  547.7615
 470  630.6448
 471  722.6969
 472  590.1476
 473  353.7036
 474  870.9105
 475  953.3638
 476  769.1386
 477  514.6406
 478  707.2824
 479  838.653
 480  605.7925
 481  944.925
 482  861.6832
 483  819.7825
 484  818.1056
 485  812.4492
 486  795.5496
 487  957.2491
 488  807.2736
 489  276.9929
 490  43.40884
 491  275.5264
 492  455.5358
 493  665.6354
 494  545.8981
 495  488.6115
 496  582.6034
 497  456.6657
 498  495.9353
 499  779.5746
 500  549.9968
 501  608.1175
 502  1052.807
 503  1153.528
 504  747.5838
 505  872.4271
 506  550.8705
 507  509.4118
 508  837.6105
 509  615.3804
 510  896.1135
 511  1052.368
