# Input file       =  1211887824.112411_cleaned.dat
# Candidate        =  PSR_0332+5434
# Telescope        =  AR
# Epoch_topo       =  58270.479665652907
# Epoch_bary       =  N/A
# T_sample         =  0.002
# Data Folded      =  7340032
# Data Avg         =  0.0184672599685395
# Data StdDev      =  2.83270424469642 
# Profile Bins     =  1024
# Profile Avg      =  132.32751297111  
# Profile StdDev   =  239.828191016441 
# Reduced chi-sqr  =  1.268
# Prob(Noise)      <  1.08e-08   (~5.6 sigma)
# P_topo (ms)      =  714.516809279766  +/- 0.000432
# P'_topo (s/s)    =  -0                +/- 2.28e-10
# P''_topo (s/s^2) =  0                 +/- 1.01e-13
# P_bary (ms)      =  N/A
# P'_bary (s/s)    =  N/A
# P''_bary (s/s^2) =  N/A
# P_orb (s)        =  N/A
# asin(i)/c (s)    =  N/A
# eccentricity     =  N/A
# w (rad)          =  N/A
# T_peri           =  N/A
######################################################
   0  -52.69955
   1  -94.11636
   2  -101.0978
   3  -77.59419
   4  41.83114
   5  122.4987
   6  160.9512
   7  145.5998
   8  103.6902
   9  75.81274
  10  33.41599
  11  65.00365
  12  74.92912
  13  148.0594
  14  80.22347
  15  49.92157
  16  -46.16435
  17  -19.81672
  18  3.887433
  19  -18.25082
  20  -70.9584
  21  -47.74504
  22  44.30533
  23  0.6398264
  24  29.31065
  25  46.83658
  26  267.8471
  27  255.6534
  28  233.1796
  29  59.31665
  30  67.4089
  31  125.5738
  32  100.4762
  33  21.40473
  34  40.32561
  35  40.60323
  36  77.04885
  37  2.000789
  38  7.160089
  39  -75.87386
  40  7.406654
  41  21.46711
  42  4.926756
  43  -51.7416
  44  -54.14487
  45  8.895661
  46  132.6091
  47  243.9059
  48  229.5776
  49  238.4314
  50  267.5982
  51  299.2891
  52  218.0204
  53  149.4558
  54  143.9882
  55  148.4498
  56  151.9682
  57  -2.20048
  58  -4.189694
  59  7.319944
  60  194.4913
  61  75.4485
  62  13.27407
  63  -8.16091
  64  230.4957
  65  205.4216
  66  69.70838
  67  -103.2915
  68  -67.04219
  69  71.17879
  70  82.69068
  71  119.4027
  72  168.3137
  73  86.07921
  74  110.7
  75  109.9694
  76  169.7251
  77  32.95224
  78  -99.33905
  79  -152.5222
  80  -145.8182
  81  -96.69035
  82  132.0318
  83  217.0083
  84  240.599
  85  237.3869
  86  196.0403
  87  28.50178
  88  -174.0051
  89  -197.093
  90  -52.49047
  91  123.43
  92  332.1129
  93  370.2934
  94  293.069
  95  79.81341
  96  31.33914
  97  21.96799
  98  135.1656
  99  146.889
 100  146.8565
 101  208.5755
 102  292.2985
 103  266.7668
 104  167.441
 105  82.15594
 106  -29.26353
 107  20.59937
 108  94.4052
 109  164.5571
 110  104.4325
 111  82.72241
 112  14.09012
 113  -28.33876
 114  -20.42032
 115  53.76602
 116  63.04003
 117  98.5754
 118  142.1996
 119  107.8502
 120  48.61513
 121  75.52018
 122  137.9045
 123  36.30708
 124  26.63415
 125  37.95445
 126  78.43487
 127  69.78561
 128  37.99771
 129  43.0615
 130  -17.72705
 131  -97.01421
 132  -71.3531
 133  -102.7359
 134  -81.8442
 135  -199.5909
 136  0.9677922
 137  1.784781
 138  81.53803
 139  -10.20904
 140  -26.44603
 141  -132.9538
 142  -212.3353
 143  -121.763
 144  -162.7318
 145  -149.6714
 146  -63.08447
 147  59.25114
 148  38.91729
 149  -58.39695
 150  52.73675
 151  109.691
 152  146.5435
 153  126.4792
 154  46.23083
 155  -85.41283
 156  -220.4561
 157  -189.7333
 158  -59.03419
 159  51.18142
 160  77.28181
 161  51.29246
 162  1.036704
 163  53.84144
 164  23.96256
 165  -67.38406
 166  -32.19594
 167  52.43837
 168  127.0053
 169  123.0465
 170  91.18819
 171  157.9472
 172  84.67142
 173  55.4244
 174  89.32594
 175  221.947
 176  353.3735
 177  470.1857
 178  473.0755
 179  376.694
 180  293.5447
 181  303.5823
 182  312.542
 183  174.7085
 184  141.974
 185  231.5279
 186  285.9003
 187  193.1243
 188  200.475
 189  391.3652
 190  343.9574
 191  209.7159
 192  33.12539
 193  165.4567
 194  289.9613
 195  373.5073
 196  299.9066
 197  181.4854
 198  221.7848
 199  242.5215
 200  245.8855
 201  286.6649
 202  536.8294
 203  466.559
 204  313.69
 205  83.31363
 206  47.30399
 207  27.92543
 208  54.49047
 209  158.1088
 210  186.1712
 211  266.118
 212  244.2669
 213  231.0365
 214  257.0118
 215  338.9306
 216  351.8067
 217  255.8756
 218  261.0247
 219  351.1458
 220  348.7494
 221  146.0192
 222  37.34824
 223  -86.85947
 224  11.2235
 225  73.40656
 226  310.5623
 227  295.2457
 228  266.8318
 229  279.6124
 230  184.9685
 231  -87.52368
 232  -253.5536
 233  -124.9077
 234  63.4962
 235  106.4114
 236  179.1866
 237  180.5515
 238  196.4421
 239  174.3814
 240  126.6114
 241  34.42589
 242  -99.35954
 243  -104.1597
 244  49.16174
 245  145.1074
 246  133.5577
 247  72.4897
 248  183.2563
 249  153.4077
 250  9.785707
 251  -134.7832
 252  -159.3296
 253  21.863
 254  137.5017
 255  198.2733
 256  123.7216
 257  116.8917
 258  225.7218
 259  292.8157
 260  306.3889
 261  227.8237
 262  277.4484
 263  233.4098
 264  141.1009
 265  61.48046
 266  128.4753
 267  113.6005
 268  65.30999
 269  46.77884
 270  154.7037
 271  154.8176
 272  61.43764
 273  67.75658
 274  116.6773
 275  220.5655
 276  228.1258
 277  140.7054
 278  -26.0285
 279  -44.30107
 280  109.6982
 281  178.3923
 282  171.8734
 283  203.5778
 284  329.7606
 285  256.7336
 286  142.5045
 287  89.13937
 288  57.72981
 289  55.83772
 290  83.59102
 291  99.41672
 292  161.0328
 293  67.06049
 294  114.8613
 295  81.6918
 296  115.4672
 297  -16.91167
 298  16.85275
 299  81.37995
 300  82.3474
 301  -66.0835
 302  -80.8462
 303  -28.78124
 304  -22.98321
 305  64.44985
 306  139.9175
 307  196.4781
 308  136.7612
 309  196.7494
 310  186.2043
 311  127.1491
 312  21.98406
 313  74.89203
 314  186.9019
 315  192.6423
 316  134.1587
 317  183.4426
 318  268.4935
 319  253.2236
 320  195.4743
 321  133.9659
 322  134.395
 323  54.17478
 324  12.35676
 325  17.53342
 326  16.01139
 327  54.71971
 328  13.94347
 329  37.72525
 330  43.77566
 331  73.46278
 332  105.2329
 333  90.40377
 334  99.29599
 335  149.7244
 336  237.9198
 337  202.0914
 338  30.91819
 339  -4.669857
 340  120.3547
 341  230.6692
 342  145.1809
 343  95.14612
 344  53.7088
 345  91.64304
 346  106.6921
 347  171.1233
 348  120.0489
 349  193.4462
 350  243.9209
 351  398.4866
 352  342.4528
 353  243.1677
 354  118.0218
 355  117.2136
 356  250.0233
 357  320.8343
 358  336.717
 359  240.7528
 360  211.1944
 361  107.4613
 362  93.08418
 363  107.8707
 364  333.1929
 365  396.7908
 366  289.1161
 367  153.046
 368  181.5843
 369  265.5017
 370  296.6828
 371  265.2298
 372  295.6311
 373  266.3548
 374  204.3836
 375  113.1214
 376  121.6308
 377  128.625
 378  138.4133
 379  97.498
 380  68.21642
 381  18.44204
 382  107.7395
 383  126.4887
 384  105.0853
 385  16.89598
 386  110.085
 387  188.0292
 388  116.6315
 389  113.2221
 390  237.3615
 391  280.0367
 392  208.8541
 393  88.94735
 394  119.38
 395  109.1723
 396  110.8224
 397  64.86027
 398  59.28396
 399  22.42568
 400  95.17802
 401  169.3607
 402  175.0995
 403  102.4499
 404  11.00512
 405  -23.68354
 406  14.03535
 407  -61.13778
 408  69.57111
 409  114.7459
 410  192.536
 411  80.78599
 412  21.49885
 413  -21.89649
 414  -41.65307
 415  -65.72856
 416  -37.03592
 417  34.20396
 418  43.86443
 419  29.42776
 420  -18.11639
 421  -16.10144
 422  25.06256
 423  167.2348
 424  176.0986
 425  116.8714
 426  -121.5715
 427  -176.2018
 428  -116.9787
 429  102.3051
 430  134.2639
 431  163.4586
 432  59.09325
 433  181.8868
 434  189.4783
 435  316.0714
 436  229.8203
 437  235.7689
 438  228.7335
 439  314.1865
 440  165.668
 441  10.31737
 442  44.3354
 443  135.6423
 444  211.2749
 445  94.18005
 446  132.1985
 447  170.2271
 448  235.9437
 449  250.1295
 450  277.3223
 451  309.3249
 452  290.8382
 453  189.8616
 454  52.18182
 455  72.93114
 456  21.96448
 457  66.37126
 458  23.68203
 459  242.6902
 460  379.5392
 461  242.0585
 462  182.4969
 463  88.07359
 464  204.0422
 465  146.5168
 466  169.4897
 467  56.58304
 468  43.79867
 469  82.16856
 470  146.1321
 471  177.1116
 472  351.5462
 473  438.3359
 474  424.2755
 475  313.2726
 476  171.1315
 477  93.04634
 478  -72.73486
 479  -94.24016
 480  -44.19862
 481  95.50022
 482  86.55825
 483  53.7245
 484  48.68732
 485  40.28093
 486  0.07480712
 487  -78.36307
 488  10.5956
 489  63.66793
 490  137.0205
 491  60.67241
 492  37.17167
 493  84.39785
 494  133.5124
 495  175.1743
 496  161.3824
 497  129.8075
 498  65.28059
 499  0.7416914
 500  19.27833
 501  105.5414
 502  252.1131
 503  291.3778
 504  292.0353
 505  324.6635
 506  281.3262
 507  225.5284
 508  60.96604
 509  143.735
 510  161.8564
 511  264.6699
 512  277.234
 513  224.0038
 514  178.5984
 515  173.5965
 516  297.8786
 517  339.3196
 518  372.3264
 519  326.2368
 520  288.8668
 521  356.1719
 522  367.6083
 523  336.206
 524  158.4232
 525  173.4529
 526  272.6439
 527  296.2303
 528  284.7488
 529  265.6511
 530  282.7035
 531  303.5142
 532  193.171
 533  218.7859
 534  197.4824
 535  206.0837
 536  141.8511
 537  94.32172
 538  126.5257
 539  182.28
 540  118.0202
 541  101.6063
 542  139.8704
 543  256.4319
 544  247.441
 545  176.0783
 546  108.1153
 547  106.0701
 548  -59.28746
 549  -19.26534
 550  15.74065
 551  79.08002
 552  154.6694
 553  237.4756
 554  372.1267
 555  287.9486
 556  292.3338
 557  329.6616
 558  283.4214
 559  292.3679
 560  402.1719
 561  408.2964
 562  245.2786
 563  154.4517
 564  182.8928
 565  259.107
 566  174.4255
 567  105.6845
 568  -2.985426
 569  47.12424
 570  111.875
 571  79.91741
 572  138.4007
 573  173.9831
 574  289.9669
 575  285.732
 576  122.4357
 577  105.7913
 578  164.1
 579  227.4143
 580  225.7602
 581  246.1575
 582  357.3364
 583  327.125
 584  401.6328
 585  423.3779
 586  491.3998
 587  469.2061
 588  469.1288
 589  450.5653
 590  481.959
 591  345.33
 592  317.6734
 593  392.2455
 594  616.9691
 595  692.4297
 596  765.9076
 597  959.8398
 598  1080.014
 599  1089.164
 600  945.8252
 601  941.5674
 602  935.0756
 603  771.1772
 604  576.3318
 605  407.055
 606  393.8019
 607  314.4464
 608  332.7856
 609  318.7616
 610  385.5508
 611  256.1252
 612  245.7915
 613  162.3113
 614  357.6648
 615  411.2951
 616  407.7175
 617  381.9128
 618  269.3164
 619  196.1476
 620  108.0991
 621  125.4523
 622  96.72373
 623  99.97414
 624  181.2629
 625  352.4216
 626  347.7882
 627  185.5753
 628  94.54945
 629  66.49361
 630  153.7126
 631  44.20905
 632  59.18425
 633  48.5512
 634  68.74628
 635  97.6542
 636  99.21645
 637  118.8236
 638  92.5149
 639  114.7909
 640  149.0696
 641  182.7711
 642  174.1429
 643  93.54854
 644  120.1116
 645  64.45282
 646  118.6143
 647  38.29448
 648  90.38174
 649  68.16645
 650  75.35184
 651  40.10406
 652  122.2315
 653  155.3419
 654  184.8257
 655  110.1523
 656  97.01523
 657  7.094444
 658  -12.57841
 659  13.16632
 660  111.8219
 661  19.19462
 662  39.22328
 663  81.83528
 664  189.5672
 665  69.10699
 666  -16.69151
 667  -230.7311
 668  -153.4078
 669  -35.85667
 670  91.47623
 671  121.0387
 672  193.8572
 673  174.9016
 674  140.1849
 675  200.4917
 676  242.0827
 677  168.4917
 678  59.85685
 679  66.97717
 680  153.4689
 681  131.824
 682  52.25254
 683  0.1423227
 684  104.2286
 685  172.4554
 686  110.6813
 687  -45.98552
 688  -89.15337
 689  -16.22575
 690  103.0864
 691  114.8953
 692  97.80212
 693  23.43902
 694  6.093469
 695  -70.71966
 696  -34.33344
 697  122.7602
 698  275.0571
 699  276.0025
 700  202.0933
 701  71.97881
 702  65.32021
 703  -16.44034
 704  12.74648
 705  86.05824
 706  87.48605
 707  136.6062
 708  150.4168
 709  124.1824
 710  96.54421
 711  83.30087
 712  124.7838
 713  88.99807
 714  62.71181
 715  -2.169716
 716  6.750456
 717  137.3091
 718  200.963
 719  140.5798
 720  74.0696
 721  24.37327
 722  -11.05604
 723  -78.21682
 724  23.03289
 725  84.73493
 726  82.71564
 727  88.01181
 728  171.5302
 729  301.5145
 730  197.2912
 731  125.2196
 732  62.61261
 733  60.30166
 734  33.05282
 735  29.51674
 736  95.1738
 737  76.48829
 738  144.6141
 739  136.0537
 740  129.0604
 741  58.89428
 742  53.47393
 743  55.08949
 744  -26.03357
 745  -51.14313
 746  -11.17472
 747  149.1673
 748  183.9563
 749  152.4909
 750  75.24955
 751  38.87647
 752  -63.31627
 753  -44.52544
 754  26.30094
 755  168.9081
 756  262.144
 757  211.9792
 758  167.6347
 759  78.03387
 760  58.93295
 761  -0.4407876
 762  27.3775
 763  69.59983
 764  163.7352
 765  200.4763
 766  241.6024
 767  204.4648
 768  186.3926
 769  146.8233
 770  234.1564
 771  290.3345
 772  298.2655
 773  234.6712
 774  189.6688
 775  130.799
 776  246.6356
 777  298.6881
 778  498.9516
 779  443.2799
 780  494.1124
 781  378.4174
 782  224.8824
 783  96.99862
 784  100.7449
 785  129.0694
 786  254.9009
 787  333.2284
 788  373.9703
 789  204.5592
 790  101.134
 791  125.8026
 792  174.3813
 793  258.3857
 794  269.6521
 795  278.0131
 796  181.3798
 797  195.3084
 798  202.5677
 799  295.0303
 800  196.7799
 801  179.9168
 802  90.91112
 803  168.8994
 804  219.0399
 805  165.4738
 806  29.56803
 807  -51.63117
 808  124.6468
 809  41.92156
 810  -52.12609
 811  -104.6576
 812  114.1036
 813  67.03534
 814  75.57487
 815  60.55882
 816  122.5943
 817  128.4279
 818  186.7044
 819  304.1821
 820  257.3144
 821  160.3889
 822  94.81595
 823  47.25185
 824  93.4483
 825  46.02111
 826  66.28551
 827  6.878843
 828  30.49869
 829  32.28755
 830  127.9103
 831  189.9565
 832  207.0522
 833  143.7931
 834  68.39712
 835  54.08737
 836  116.0726
 837  203.7886
 838  200.8671
 839  206.8022
 840  120.3816
 841  135.5282
 842  112.7892
 843  92.35651
 844  143.9801
 845  218.3856
 846  247.4995
 847  263.8809
 848  186.7914
 849  156.3037
 850  138.1938
 851  206.3194
 852  219.6535
 853  184.7936
 854  129.2081
 855  199.3626
 856  98.49375
 857  100.8828
 858  -0.8677254
 859  160.7937
 860  27.9815
 861  -64.78776
 862  -168.7657
 863  15.99859
 864  228.0045
 865  317.3721
 866  257.8164
 867  98.51755
 868  68.34618
 869  77.72587
 870  141.2706
 871  88.3662
 872  143.9216
 873  216.1354
 874  390.4322
 875  411.0145
 876  372.8335
 877  267.8732
 878  405.9075
 879  486.0313
 880  395.2004
 881  125.6303
 882  -58.21117
 883  60.86604
 884  51.92395
 885  109.2936
 886  18.94041
 887  99.36642
 888  82.75289
 889  106.7304
 890  143.8749
 891  182.518
 892  120.6657
 893  72.48828
 894  133.537
 895  149.7379
 896  129.3967
 897  66.53252
 898  117.564
 899  139.8558
 900  92.7943
 901  87.88622
 902  122.7088
 903  161.6698
 904  150.7387
 905  88.57825
 906  3.963833
 907  -65.39937
 908  -8.358242
 909  47.37286
 910  28.06392
 911  -51.94214
 912  55.47333
 913  15.99314
 914  -31.98634
 915  -169.2824
 916  -119.6974
 917  -64.54212
 918  86.26386
 919  99.98356
 920  145.4761
 921  201.4886
 922  180.096
 923  62.53878
 924  50.01744
 925  83.97107
 926  170.9639
 927  155.6275
 928  161.4057
 929  98.38146
 930  46.44238
 931  -4.761642
 932  79.32474
 933  70.03335
 934  96.84103
 935  53.51684
 936  99.88927
 937  52.34217
 938  97.16087
 939  215.1248
 940  179.1214
 941  138.2194
 942  87.45896
 943  158.0307
 944  45.73872
 945  78.72297
 946  44.4224
 947  165.2145
 948  177.0404
 949  200.6969
 950  114.1242
 951  98.55335
 952  171.0746
 953  189.089
 954  196.5795
 955  135.4458
 956  211.2046
 957  248.4286
 958  215.626
 959  182.2132
 960  244.5502
 961  313.3113
 962  312.3221
 963  243.0556
 964  191.0092
 965  209.3487
 966  170.4461
 967  200.0287
 968  169.6228
 969  189.4167
 970  127.0864
 971  45.98021
 972  11.54283
 973  19.19155
 974  78.41415
 975  190.6554
 976  245.4433
 977  257.2605
 978  66.27428
 979  68.59415
 980  179.8896
 981  355.6573
 982  339.9682
 983  215.4848
 984  221.4338
 985  99.87084
 986  123.7148
 987  83.45414
 988  57.17981
 989  39.47529
 990  -38.60613
 991  -68.00594
 992  4.69033
 993  30.54525
 994  165.3545
 995  94.27
 996  63.90425
 997  -6.402115
 998  -20.0113
 999  81.81316
1000  9.934151
1001  67.31103
1002  21.11635
1003  118.155
1004  62.43951
1005  5.095311
1006  -42.10478
1007  -78.04641
1008  -197.4078
1009  -326.4554
1010  -342.0739
1011  -172.14
1012  -74.78278
1013  14.46021
1014  89.67805
1015  10.53511
1016  -138.3662
1017  -260.615
1018  -259.3561
1019  -184.8902
1020  -113.4721
1021  -61.78002
1022  -94.57262
1023  -98.24822
