# Input file       =  1211715512.106801_cleaned.dat
# Candidate        =  PSR_0332+5434
# Telescope        =  AR
# Epoch_topo       =  58268.485313736121
# Epoch_bary       =  N/A
# T_sample         =  0.002
# Data Folded      =  7340032
# Data Avg         =  0.0603183667803283
# Data StdDev      =  2.90746318778432 
# Profile Bins     =  512
# Profile Avg      =  864.732925705372 
# Profile StdDev   =  348.119395627088 
# Reduced chi-sqr  =  1.116
# Prob(Noise)      <  0.0358   (~1.8 sigma)
# P_topo (ms)      =  714.518752445464  +/- 0.000357
# P'_topo (s/s)    =  -0                +/- 1.88e-10
# P''_topo (s/s^2) =  0                 +/- 8.31e-14
# P_bary (ms)      =  N/A
# P'_bary (s/s)    =  N/A
# P''_bary (s/s^2) =  N/A
# P_orb (s)        =  N/A
# asin(i)/c (s)    =  N/A
# eccentricity     =  N/A
# w (rad)          =  N/A
# T_peri           =  N/A
######################################################
   0  768.6078
   1  808.4012
   2  578.5001
   3  844.2339
   4  1106.722
   5  1098.913
   6  960.1584
   7  1090.337
   8  786.7642
   9  499.196
  10  877.4624
  11  1351.112
  12  1157.746
  13  937.1115
  14  942.5571
  15  769.4255
  16  846.4391
  17  1021.168
  18  736.5077
  19  763.8519
  20  1083.1
  21  1161.625
  22  853.8999
  23  811.0056
  24  883.5556
  25  1026.347
  26  722.1657
  27  972.8682
  28  802.8828
  29  823.2803
  30  1003.687
  31  675.9996
  32  834.7853
  33  929.9456
  34  1024.55
  35  809.2078
  36  892.2756
  37  1068.649
  38  872.5653
  39  1016.103
  40  988.3871
  41  1052.014
  42  1003.82
  43  1050.997
  44  479.6245
  45  475.3235
  46  729.2805
  47  828.9927
  48  798.2966
  49  532.2625
  50  456.1396
  51  651.7227
  52  1236.039
  53  1410.586
  54  1540.224
  55  1771.696
  56  2076.497
  57  2319.185
  58  2289.827
  59  2373.044
  60  1937.196
  61  1344.947
  62  918.9691
  63  589.2929
  64  805.4526
  65  758.1185
  66  598.5982
  67  916.5627
  68  953.9844
  69  722.6412
  70  654.4324
  71  366.7272
  72  545.2403
  73  813.5231
  74  657.3404
  75  437.4603
  76  688.6011
  77  835.3651
  78  637.8585
  79  524.6749
  80  819.8196
  81  708.1389
  82  968.1703
  83  896.6284
  84  905.4515
  85  775.2161
  86  731.614
  87  469.8138
  88  550.8021
  89  822.5569
  90  773.84
  91  716.3868
  92  760.8763
  93  648.4272
  94  988.9792
  95  753.7955
  96  336.1894
  97  380.3358
  98  599.9053
  99  533.6445
 100  592.2358
 101  709.025
 102  832.251
 103  887.8246
 104  1099.708
 105  962.9529
 106  559.5811
 107  701.8403
 108  645.9379
 109  722.2739
 110  803.7576
 111  855.8416
 112  754.4077
 113  686.3704
 114  811.2028
 115  1056.966
 116  1455.84
 117  1420.177
 118  1260.847
 119  1101.547
 120  1425.315
 121  974.1887
 122  1047.239
 123  1094.066
 124  931.8682
 125  854.9274
 126  861.879
 127  960.9928
 128  838.8281
 129  940.0744
 130  465.5087
 131  503.6707
 132  939.3187
 133  1200.591
 134  1071.849
 135  765.865
 136  515.7433
 137  695.5246
 138  1035.874
 139  986.7819
 140  954.2843
 141  1065.239
 142  689.481
 143  440.3688
 144  708.2559
 145  916.7943
 146  549.1907
 147  758.3669
 148  820.2061
 149  1076.509
 150  940.0876
 151  604.4931
 152  424.9283
 153  554.9522
 154  677.9463
 155  516.2262
 156  734.9636
 157  656.0296
 158  576.891
 159  674.7007
 160  503.9789
 161  736.7844
 162  455.0282
 163  587.1393
 164  897.8318
 165  527.5514
 166  415.8871
 167  792.8069
 168  720.1674
 169  632.2507
 170  857.5571
 171  487.0225
 172  429.7767
 173  532.5019
 174  996.6656
 175  566.1785
 176  822.1263
 177  1004.536
 178  563.4671
 179  472.3985
 180  488.192
 181  660.5295
 182  605.2343
 183  754.5373
 184  861.6133
 185  940.6362
 186  764.7451
 187  1046.689
 188  994.9227
 189  574.0673
 190  605.8148
 191  1012.944
 192  1123.841
 193  1067.384
 194  973.8597
 195  872.294
 196  942.846
 197  880.3662
 198  690.478
 199  922.9682
 200  949.3853
 201  1211.087
 202  1209.656
 203  778.4388
 204  790.8828
 205  938.8812
 206  593.2841
 207  612.084
 208  766.8203
 209  1010.824
 210  941.6824
 211  900.7707
 212  857.1664
 213  635.4865
 214  912.6142
 215  1152.291
 216  860.2725
 217  993.0414
 218  759.0553
 219  590.1396
 220  342.7861
 221  498.2426
 222  453.4641
 223  674.1951
 224  679.705
 225  828.1974
 226  890.5577
 227  1086.028
 228  701.6174
 229  755.7571
 230  1153.335
 231  977.2994
 232  528.1531
 233  510.5554
 234  748.4646
 235  1272.575
 236  1157.911
 237  933.6388
 238  909.9451
 239  590.8006
 240  717.2644
 241  847.8417
 242  714.2154
 243  645.4573
 244  870.2329
 245  810.6382
 246  899.9703
 247  802.0529
 248  956.4477
 249  996.7946
 250  827.0991
 251  793.1215
 252  1014.757
 253  949.5903
 254  960.8098
 255  916.8184
 256  640.8096
 257  447.0264
 258  679.5586
 259  589.0703
 260  448.4275
 261  743.3741
 262  687.4592
 263  601.6599
 264  668.2209
 265  522.8881
 266  307.2376
 267  650.2234
 268  985.3395
 269  810.7409
 270  716.7828
 271  678.1855
 272  841.9664
 273  802.9743
 274  1042.86
 275  948.3374
 276  714.0509
 277  753.3488
 278  767.1968
 279  694.3572
 280  578.6593
 281  835.4496
 282  945.5593
 283  992.5074
 284  809.0321
 285  580.4214
 286  1049.025
 287  1246.025
 288  985.6228
 289  781.4965
 290  750.1436
 291  849.2209
 292  823.9822
 293  1056.055
 294  1012.709
 295  604.4224
 296  585.8173
 297  939.5118
 298  1062.073
 299  713.9906
 300  721.0877
 301  638.1022
 302  559.1156
 303  615.4139
 304  393.9769
 305  537.0672
 306  516.0011
 307  1004.606
 308  1504.252
 309  1243.328
 310  1438.495
 311  1158.83
 312  945.9589
 313  885.092
 314  724.3463
 315  889.9822
 316  1187.938
 317  1088.446
 318  1114.133
 319  1247.926
 320  1211.29
 321  973.0438
 322  806.2665
 323  1103.666
 324  1097.376
 325  1317.905
 326  1179.87
 327  805.1965
 328  742.8745
 329  1403.47
 330  1402.202
 331  1119.726
 332  1014.328
 333  1028.05
 334  857.5281
 335  734.7124
 336  1032.416
 337  1089.721
 338  1232.055
 339  897.6974
 340  860.1511
 341  889.7474
 342  937.1042
 343  1078.649
 344  1187.956
 345  865.6056
 346  669.7264
 347  593.7123
 348  668.6189
 349  817.2698
 350  491.6983
 351  596.5891
 352  548.6303
 353  724.0295
 354  828.4534
 355  756.8524
 356  673.3971
 357  399.7519
 358  471.2354
 359  716.9562
 360  592.496
 361  879.5872
 362  997.4825
 363  1116.782
 364  781.2448
 365  611.2944
 366  790.1534
 367  805.7381
 368  638.176
 369  1138.867
 370  913.7992
 371  475.9582
 372  796.4546
 373  656.5547
 374  431.6506
 375  596.8013
 376  810.59
 377  916.3492
 378  693.48
 379  1066.384
 380  1083.689
 381  590.8307
 382  745.8325
 383  853.5257
 384  931.7591
 385  891.1163
 386  921.1707
 387  746.3572
 388  695.5838
 389  604.3586
 390  751.8206
 391  1113.853
 392  1040.171
 393  1024.715
 394  1178.725
 395  1009.428
 396  860.2358
 397  863.8616
 398  1040.438
 399  1005.847
 400  947.6789
 401  532.3651
 402  496.9216
 403  627.5371
 404  630.4572
 405  690.611
 406  676.0722
 407  957.4548
 408  834.7244
 409  1026.706
 410  1130.675
 411  1221.999
 412  893.9935
 413  843.1606
 414  828.7597
 415  738.7933
 416  850.053
 417  851.4794
 418  847.3609
 419  1303.326
 420  1167.906
 421  1010.432
 422  823.3928
 423  995.0886
 424  1139.245
 425  924.8488
 426  1154.903
 427  963.7811
 428  668.6903
 429  717.8857
 430  638.5303
 431  691.4821
 432  788.9518
 433  847.305
 434  804.6714
 435  945.4487
 436  1108.371
 437  863.7595
 438  731.4471
 439  901.9058
 440  1074.126
 441  712.8218
 442  792.4971
 443  803.3408
 444  1097.129
 445  904.9766
 446  779.9073
 447  560.9371
 448  882.9981
 449  1426.501
 450  1344.978
 451  1130.387
 452  806.6396
 453  588.4647
 454  279.5392
 455  702.9922
 456  944.8848
 457  824.368
 458  1036.441
 459  647.054
 460  780.4261
 461  617.9426
 462  764.5447
 463  961.2684
 464  595.4019
 465  618.8244
 466  977.3583
 467  944.485
 468  918.5123
 469  1062.315
 470  1204.148
 471  913.3831
 472  1154.858
 473  1224.118
 474  1009.632
 475  960.2361
 476  1166.933
 477  1094.415
 478  733.1707
 479  859.3678
 480  950.2321
 481  1073.877
 482  878.8215
 483  1074.232
 484  1522.33
 485  1022.178
 486  864.8814
 487  1036.294
 488  1168.534
 489  893.3453
 490  610.6165
 491  830.5713
 492  1026.214
 493  1214.917
 494  1151.823
 495  1022.816
 496  589.3308
 497  918.7426
 498  1043.47
 499  1049.878
 500  1079.914
 501  1249.393
 502  1232.21
 503  1110.835
 504  1137.921
 505  953.5647
 506  1067.862
 507  1097.219
 508  991.1628
 509  927.8373
 510  1065.778
 511  1157.676
