# Input file       =  1211341354.116035_cleaned.dat
# Candidate        =  PSR_0332+5434
# Telescope        =  AR
# Epoch_topo       =  58264.154781435587
# Epoch_bary       =  N/A
# T_sample         =  0.002
# Data Folded      =  7208960
# Data Avg         =  0.135277663962915
# Data StdDev      =  4.78388677239244 
# Profile Bins     =  1024
# Profile Avg      =  952.33517247576  
# Profile StdDev   =  401.390622042347 
# Reduced chi-sqr  =  0.839
# Prob(Noise)      <  1   (~0.0 sigma)
# P_topo (ms)      =  714.522638458274  +/- 3.53e-05
# P'_topo (s/s)    =  -0                +/- 1.9e-11
# P''_topo (s/s^2) =  0                 +/- 8.53e-15
# P_bary (ms)      =  N/A
# P'_bary (s/s)    =  N/A
# P''_bary (s/s^2) =  N/A
# P_orb (s)        =  N/A
# asin(i)/c (s)    =  N/A
# eccentricity     =  N/A
# w (rad)          =  N/A
# T_peri           =  N/A
######################################################
   0  1170.615
   1  1219.649
   2  1109.883
   3  1144.541
   4  1169.093
   5  1111.982
   6  991.8759
   7  981.1272
   8  1014.469
   9  1003.247
  10  860.8951
  11  869.2589
  12  733.7576
  13  688.7831
  14  495.0045
  15  575.5544
  16  672.5676
  17  857.2129
  18  960.8888
  19  1092.27
  20  1071.422
  21  1022.298
  22  877.0671
  23  866.4274
  24  899.0442
  25  977.2538
  26  958.4162
  27  1023.673
  28  1065.971
  29  1116.122
  30  926.2694
  31  810.4727
  32  798.562
  33  928.6991
  34  975.3138
  35  1055.728
  36  1070.736
  37  1159.297
  38  1194.995
  39  1131.368
  40  942.1459
  41  792.8129
  42  991.8779
  43  980.2037
  44  1029.771
  45  948.4156
  46  924.4025
  47  813.7231
  48  814.0942
  49  906.334
  50  883.7169
  51  978.6858
  52  1089.387
  53  1116.579
  54  1079.015
  55  1093.094
  56  1005.387
  57  1002.472
  58  1066.237
  59  1171.527
  60  1265.137
  61  1210.074
  62  1110.812
  63  912.0807
  64  968.0391
  65  1140.003
  66  1241.853
  67  1219.275
  68  1233.25
  69  1224.529
  70  1185.095
  71  978.4875
  72  891.7119
  73  822.0331
  74  815.5258
  75  845.2982
  76  977.2664
  77  1063.538
  78  1024.887
  79  912.7463
  80  846.9652
  81  869.4866
  82  853.336
  83  1089.939
  84  1313.334
  85  1412.299
  86  1310.142
  87  1241.644
  88  1268.621
  89  1145.955
  90  1036.465
  91  1069.708
  92  1124.92
  93  1189.934
  94  1123.094
  95  1075.347
  96  965.6618
  97  1020.696
  98  1056.92
  99  1155.582
 100  1242.107
 101  1358.161
 102  1389.952
 103  1381.191
 104  1255.669
 105  1215.145
 106  1088.898
 107  935.9181
 108  828.9477
 109  889.9818
 110  1071.395
 111  1122.671
 112  1218.449
 113  1227.833
 114  1124.921
 115  893.3082
 116  883.9897
 117  845.2025
 118  985.8482
 119  1053.04
 120  1077.348
 121  834.8928
 122  656.8027
 123  802.2231
 124  984.554
 125  1367.199
 126  1499.907
 127  1426.467
 128  1006.878
 129  862.7847
 130  958.4667
 131  1068.872
 132  1134.758
 133  1045.735
 134  1080.415
 135  989.6254
 136  962.0663
 137  957.7379
 138  855.327
 139  820.9589
 140  725.9051
 141  923.2069
 142  1050.859
 143  1098.24
 144  1148.568
 145  1131.624
 146  1143.538
 147  985.1615
 148  1018.996
 149  1187.997
 150  1260.907
 151  1184.612
 152  1057.609
 153  977.2484
 154  883.6542
 155  938.6576
 156  1097.701
 157  1123.124
 158  1225.331
 159  1256.211
 160  1266.774
 161  1105.68
 162  1040.313
 163  1017.366
 164  992.3846
 165  1027.303
 166  1167.693
 167  1405.731
 168  1363.206
 169  1352.022
 170  1280.65
 171  1169.603
 172  967.8159
 173  925.1129
 174  963.0615
 175  1186.688
 176  1230.794
 177  1218.523
 178  888.7012
 179  899.7822
 180  941.4379
 181  1165.85
 182  1306.458
 183  1340.622
 184  1320.072
 185  1176.163
 186  1134.898
 187  969.462
 188  900.5528
 189  881.8098
 190  993.1724
 191  1046.861
 192  1048.786
 193  905.2197
 194  783.6028
 195  641.3641
 196  759.5982
 197  1002.043
 198  1123.802
 199  1232.356
 200  1336.389
 201  1447.524
 202  1197.864
 203  1011.604
 204  883.5678
 205  901.047
 206  767.3482
 207  637.4105
 208  654.8672
 209  724.2216
 210  874.2816
 211  871.5667
 212  794.7428
 213  762.9776
 214  971.7952
 215  1188.212
 216  1201.84
 217  1210.314
 218  1154.029
 219  1054.507
 220  779.7222
 221  736.4214
 222  824.8102
 223  962.1277
 224  1066.246
 225  1046.596
 226  971.8613
 227  910.9493
 228  878.8456
 229  945.5604
 230  1091.392
 231  1275.423
 232  1305.779
 233  1102.756
 234  1108.348
 235  1071.471
 236  1067.982
 237  952.7576
 238  874.0963
 239  905.7667
 240  788.5507
 241  826.2099
 242  881.2567
 243  983.5234
 244  916.5676
 245  808.5566
 246  755.0174
 247  732.6249
 248  817.0662
 249  1013.989
 250  1264.47
 251  1504.095
 252  1551.618
 253  1378.402
 254  1122.335
 255  948.4048
 256  907.6753
 257  951.6811
 258  986.0474
 259  967.9265
 260  913.7587
 261  816.8505
 262  939.5886
 263  1007.588
 264  1142.799
 265  1126.898
 266  1227.097
 267  1187.157
 268  1081.479
 269  1041.696
 270  954.6953
 271  899.095
 272  781.5521
 273  876.8718
 274  898.283
 275  1006.216
 276  1076.545
 277  1032.642
 278  977.843
 279  921.6542
 280  880.3569
 281  728.9892
 282  742.9686
 283  948.1127
 284  949.3655
 285  841.8936
 286  746.7415
 287  850.9653
 288  925.0032
 289  1028.327
 290  1058.57
 291  1157.688
 292  1164.519
 293  1078.85
 294  881.5291
 295  875.2639
 296  813.5515
 297  883.3325
 298  799.2454
 299  830.3881
 300  759.3672
 301  771.297
 302  723.2649
 303  633.4808
 304  520.8539
 305  512.4718
 306  632.9572
 307  780.5184
 308  956.9935
 309  947.0026
 310  1022.422
 311  978.3513
 312  974.446
 313  854.1285
 314  845.5951
 315  888.9584
 316  1002.675
 317  882.8038
 318  674.6257
 319  635.4664
 320  718.03
 321  763.7393
 322  773.6051
 323  881.3325
 324  950.9791
 325  950.5776
 326  908.1608
 327  781.2692
 328  627.2443
 329  683.4324
 330  884.0392
 331  1154.199
 332  1169.722
 333  1109.216
 334  1004.711
 335  828.0997
 336  659.915
 337  598.3408
 338  699.928
 339  810.9354
 340  874.4908
 341  819.8876
 342  821.2656
 343  762.454
 344  709.001
 345  692.8282
 346  719.6638
 347  886.3287
 348  961.9263
 349  925.5198
 350  873.1353
 351  754.2904
 352  795.8666
 353  735.0638
 354  772.8402
 355  671.4379
 356  653.1235
 357  726.9699
 358  828.7454
 359  842.2162
 360  969.6968
 361  979.4845
 362  1033.194
 363  1018.835
 364  1113.554
 365  1141.496
 366  1009.275
 367  930.097
 368  771.7858
 369  721.2735
 370  665.4805
 371  854.2612
 372  798.2695
 373  743.9253
 374  717.4807
 375  782.1198
 376  741.8076
 377  499.0873
 378  678.5228
 379  843.7515
 380  1079.116
 381  1065.305
 382  1107.958
 383  1142.426
 384  1173.149
 385  1077.169
 386  926.1864
 387  877.0616
 388  942.6948
 389  855.5988
 390  631.5973
 391  549.5505
 392  602.8902
 393  718.6784
 394  680.7877
 395  624.2773
 396  698.0065
 397  858.4233
 398  1061.055
 399  1166.53
 400  1187.642
 401  1237.392
 402  983.8082
 403  846.1912
 404  679.8875
 405  692.7064
 406  747.6339
 407  720.3284
 408  764.0471
 409  568.0226
 410  519.7148
 411  352.6303
 412  539.0433
 413  641.087
 414  795.8455
 415  968.5947
 416  1012.536
 417  1020.779
 418  798.9001
 419  720.1774
 420  702.009
 421  904.9398
 422  994.7977
 423  1010.426
 424  821.1198
 425  830.2086
 426  765.704
 427  856.9612
 428  939.2503
 429  965.1147
 430  910.1522
 431  796.0908
 432  800.5568
 433  714.5891
 434  765.9484
 435  910.2407
 436  885.7712
 437  776.2364
 438  711.0204
 439  791.0495
 440  770.231
 441  800.1048
 442  802.0145
 443  826.8402
 444  694.4483
 445  652.89
 446  667.7156
 447  686.6935
 448  805.0464
 449  894.6409
 450  931.2086
 451  915.0885
 452  826.2104
 453  952.5359
 454  1083.284
 455  1116.072
 456  1028.786
 457  875.8063
 458  893.444
 459  830.1362
 460  805.8268
 461  837.853
 462  893.7493
 463  1026.521
 464  1031.883
 465  1161.611
 466  1067.635
 467  881.4095
 468  704.5084
 469  538.9776
 470  441.075
 471  504.4639
 472  712.2548
 473  860.0477
 474  816.188
 475  834.8814
 476  817.0853
 477  787.7641
 478  752.2465
 479  793.3724
 480  1019.04
 481  1104.449
 482  1114.819
 483  886.3337
 484  757.4337
 485  664.616
 486  851.6066
 487  892.466
 488  903.9755
 489  953.9742
 490  1049.725
 491  924.7286
 492  798.566
 493  825.3807
 494  865.3175
 495  981.3742
 496  1145.744
 497  1160.016
 498  982.1238
 499  768.0422
 500  820.7751
 501  714.4147
 502  628.777
 503  590.0765
 504  756.6658
 505  862.2692
 506  1041.571
 507  982.0522
 508  816.0403
 509  603.392
 510  616.2167
 511  816.2811
 512  952.0798
 513  1173.449
 514  1293.943
 515  1245.93
 516  1078.87
 517  969.0034
 518  937.6668
 519  873.2079
 520  932.1705
 521  1047.709
 522  1064.65
 523  997.4756
 524  941.0953
 525  803.7073
 526  821.7919
 527  804.5153
 528  1038.462
 529  1128.99
 530  1342.462
 531  1370.236
 532  1215.441
 533  1035.932
 534  867.9235
 535  717.3934
 536  647.491
 537  718.086
 538  948.4852
 539  1023.045
 540  869.3254
 541  768.4229
 542  782.4825
 543  893.0912
 544  929.6437
 545  1057.009
 546  1126.707
 547  1211.513
 548  1171.836
 549  1025.562
 550  756.3062
 551  639.555
 552  640.2144
 553  781.3708
 554  976.7303
 555  1067.76
 556  1005.524
 557  930.413
 558  936.438
 559  1000.836
 560  998.4262
 561  1142.703
 562  1214.505
 563  1227.122
 564  1253.222
 565  1334.591
 566  1226.171
 567  929.1262
 568  760.9535
 569  766.8359
 570  801.1833
 571  710.6763
 572  619.8596
 573  529.2399
 574  615.9296
 575  681.6575
 576  792.3845
 577  794.567
 578  979.4461
 579  1096.353
 580  1147.499
 581  1213.702
 582  1106.842
 583  1007.528
 584  855.262
 585  1025.431
 586  1086.075
 587  1182.274
 588  1174.736
 589  1272.674
 590  1298.256
 591  1284.456
 592  1208.273
 593  1235.334
 594  1425.956
 595  1770.687
 596  1833.921
 597  1956.081
 598  1937.307
 599  1963.58
 600  1791.404
 601  1646.302
 602  1631.032
 603  1603.463
 604  1397.35
 605  1175.833
 606  1028.487
 607  972.5403
 608  895.6886
 609  761.775
 610  698.8899
 611  708.0302
 612  1050.738
 613  1224.051
 614  1355.716
 615  1205.84
 616  1069.522
 617  924.9822
 618  905.9382
 619  980.7729
 620  978.4705
 621  985.5289
 622  978.0086
 623  970.0166
 624  1006.045
 625  934.9405
 626  1032.082
 627  1068.134
 628  1113.952
 629  1077.808
 630  1170.263
 631  1173.327
 632  1061.72
 633  945.1431
 634  948.9392
 635  984.8163
 636  1032.14
 637  1079.172
 638  1080.57
 639  960.6277
 640  728.8115
 641  690.418
 642  748.9447
 643  895.6162
 644  923.9805
 645  1041.633
 646  1172.119
 647  1109.828
 648  1026.992
 649  968.0136
 650  973.5948
 651  922.8362
 652  919.9925
 653  793.442
 654  865.9806
 655  868.9045
 656  897.8275
 657  716.675
 658  719.4476
 659  902.2662
 660  999.9624
 661  981.6861
 662  1062.211
 663  1120.865
 664  1061.911
 665  992.2691
 666  968.0884
 667  910.205
 668  725.4642
 669  753.8331
 670  837.8494
 671  922.3875
 672  869.8768
 673  740.5057
 674  715.7319
 675  712.322
 676  925.8058
 677  995.048
 678  1031.895
 679  1011.349
 680  1108.019
 681  907.6793
 682  777.8181
 683  729.6468
 684  863.0279
 685  936.0969
 686  777.8401
 687  686.1573
 688  587.4955
 689  662.5035
 690  825.4716
 691  932.3691
 692  914.0385
 693  836.0115
 694  993.7419
 695  1000.72
 696  958.7037
 697  817.9065
 698  792.2756
 699  753.4276
 700  677.7154
 701  644.9033
 702  620.7395
 703  680.1978
 704  625.2592
 705  772.9039
 706  887.1427
 707  809.3369
 708  663.2401
 709  636.2061
 710  761.5922
 711  903.8218
 712  1075.14
 713  1133.533
 714  961.7604
 715  833.8758
 716  706.4576
 717  701.9656
 718  541.7839
 719  722.2484
 720  958.2642
 721  1121.612
 722  998.2397
 723  794.5334
 724  794.8381
 725  831.1973
 726  1042.181
 727  1214.965
 728  1303.478
 729  1093.732
 730  928.0493
 731  743.9546
 732  634.7664
 733  554.5222
 734  583.6288
 735  621.9088
 736  649.541
 737  725.4032
 738  698.9892
 739  580.4665
 740  528.931
 741  471.5683
 742  479.2348
 743  618.8445
 744  831.9607
 745  1000.2
 746  982.6635
 747  965.5947
 748  910.6868
 749  801.6368
 750  669.741
 751  748.3701
 752  802.0648
 753  829.7469
 754  667.8333
 755  633.9249
 756  583.6677
 757  685.0757
 758  678.6314
 759  627.0754
 760  575.3669
 761  819.1152
 762  976.8798
 763  1079.86
 764  1024.214
 765  1023.526
 766  907.0485
 767  909.7637
 768  946.8721
 769  852.7334
 770  752.48
 771  701.2061
 772  755.0333
 773  724.2126
 774  597.1665
 775  620.8336
 776  849.7321
 777  1044.125
 778  1073.563
 779  1053.037
 780  888.4947
 781  785.9073
 782  853.0412
 783  1009.972
 784  988.2152
 785  820.968
 786  842.0201
 787  898.2113
 788  947.5549
 789  1020.721
 790  925.5488
 791  914.753
 792  991.1073
 793  1091.907
 794  1004.015
 795  855.5665
 796  898.9778
 797  838.4521
 798  816.5106
 799  748.4869
 800  769.3671
 801  667.1721
 802  690.4929
 803  767.5524
 804  863.4792
 805  789.3708
 806  756.3936
 807  803.0074
 808  862.3947
 809  853.1837
 810  922.647
 811  1085.385
 812  1120.823
 813  1046.5
 814  857.0753
 815  691.9782
 816  772.8824
 817  792.2392
 818  1096.491
 819  1225.531
 820  1323.39
 821  1183.814
 822  1059.419
 823  895.0641
 824  896.0951
 825  1164.219
 826  1327.225
 827  1166.607
 828  1129.596
 829  1053.337
 830  1100.572
 831  943.8406
 832  951.6209
 833  945.6165
 834  855.497
 835  849.5637
 836  882.2482
 837  986.4441
 838  931.467
 839  743.5608
 840  967.9304
 841  1094.348
 842  1268.279
 843  1097.678
 844  1128.139
 845  1060.252
 846  1058.622
 847  1115.645
 848  1052.527
 849  995.6712
 850  942.5693
 851  1055.619
 852  1050.285
 853  1015.018
 854  1021.35
 855  901.0053
 856  872.9791
 857  1038.968
 858  1201.05
 859  1212.695
 860  1200.181
 861  1185.543
 862  1268.949
 863  1156.555
 864  1324.079
 865  1335.741
 866  1161.338
 867  1073.21
 868  1139.488
 869  1341.704
 870  1160.041
 871  1068.483
 872  954.3236
 873  976.4509
 874  916.8699
 875  1048.29
 876  1112.942
 877  1161.106
 878  901.0696
 879  825.6363
 880  709.0118
 881  769.7579
 882  613.3039
 883  676.1618
 884  733.1956
 885  1016.693
 886  1062.363
 887  1046.541
 888  873.2105
 889  698.2348
 890  921.8099
 891  1122.748
 892  1296.984
 893  1252.642
 894  1298.99
 895  1356.609
 896  1337.596
 897  1199.21
 898  1044.914
 899  934.9343
 900  927.0451
 901  835.7089
 902  873.3787
 903  858.7867
 904  919.4964
 905  893.8281
 906  961.2396
 907  978.3998
 908  1002.683
 909  1180.643
 910  1296.485
 911  1304.956
 912  1199.836
 913  1026.288
 914  942.2662
 915  920.6793
 916  1070.431
 917  1193.492
 918  1273.471
 919  1273.91
 920  1082.543
 921  1017.056
 922  1038.9
 923  999.124
 924  963.9556
 925  951.7576
 926  981.4014
 927  1043.027
 928  1091.143
 929  1107.858
 930  976.0682
 931  908.5375
 932  822.4879
 933  893.8135
 934  978.1955
 935  1115.067
 936  1022.362
 937  1021.941
 938  897.9636
 939  868.2076
 940  742.7374
 941  809.829
 942  994.0465
 943  1053.875
 944  1118.136
 945  1074.531
 946  1039.427
 947  915.6652
 948  856.4763
 949  812.5674
 950  735.6025
 951  784.0318
 952  853.1802
 953  931.9738
 954  765.449
 955  856.4161
 956  1064.812
 957  1130.704
 958  1178.551
 959  1197.793
 960  1305.765
 961  1121.085
 962  1110.307
 963  1074.172
 964  968.6
 965  715.0781
 966  628.453
 967  736.5513
 968  874.5239
 969  881.1562
 970  962.7883
 971  847.6812
 972  710.4131
 973  631.0814
 974  773.9698
 975  920.5379
 976  1033.755
 977  1106.791
 978  976.086
 979  724.547
 980  663.9985
 981  756.9689
 982  857.4974
 983  995.4445
 984  1174.517
 985  1193.758
 986  1077.346
 987  1084.722
 988  1058.631
 989  1005.52
 990  929.8168
 991  909.7101
 992  995.463
 993  903.0685
 994  978.5731
 995  929.9693
 996  884.1923
 997  752.3253
 998  835.0717
 999  919.855
1000  981.3275
1001  1038.665
1002  1064.556
1003  1051.154
1004  896.2537
1005  793.3141
1006  714.9173
1007  774.7449
1008  875.8766
1009  922.8839
1010  1057.689
1011  1053.463
1012  1034.489
1013  975.9678
1014  990.6156
1015  903.4724
1016  876.3411
1017  945.5489
1018  1021.148
1019  1041.691
1020  1055.851
1021  942.8063
1022  805.9819
1023  890.0334
