# Input file       =  1211629359.111562_cleaned.dat
# Candidate        =  PSR_0332+5434
# Telescope        =  AR
# Epoch_topo       =  58267.488172587524
# Epoch_bary       =  N/A
# T_sample         =  0.002
# Data Folded      =  7340032
# Data Avg         =  0.0967818617303106
# Data StdDev      =  3.24630119381343 
# Profile Bins     =  512
# Profile Avg      =  1387.33843307086 
# Profile StdDev   =  388.689498928803 
# Reduced chi-sqr  =  1.288
# Prob(Noise)      <  1.13e-05   (~4.2 sigma)
# P_topo (ms)      =  714.519725676053  +/- 0.000216
# P'_topo (s/s)    =  -0                +/- 1.14e-10
# P''_topo (s/s^2) =  0                 +/- 5.04e-14
# P_bary (ms)      =  N/A
# P'_bary (s/s)    =  N/A
# P''_bary (s/s^2) =  N/A
# P_orb (s)        =  N/A
# asin(i)/c (s)    =  N/A
# eccentricity     =  N/A
# w (rad)          =  N/A
# T_peri           =  N/A
######################################################
   0  1423.219
   1  1667.774
   2  1644.392
   3  1349.471
   4  1287.786
   5  1389.433
   6  1328.138
   7  1600.625
   8  1600.2
   9  1130.241
  10  1468.085
  11  1647.446
  12  1340.973
  13  1690.675
  14  1673.334
  15  1478.496
  16  1789.146
  17  1664.95
  18  1552.065
  19  1315.933
  20  1598.548
  21  1491.777
  22  1361.784
  23  1616.842
  24  1745.469
  25  1645.542
  26  1408.123
  27  1468.238
  28  1481.443
  29  1374.244
  30  1464.985
  31  1858.825
  32  1910.764
  33  1754.512
  34  1480.445
  35  1426.198
  36  1484.228
  37  1408.333
  38  1335.281
  39  1449.976
  40  1388.259
  41  1365.421
  42  1055.916
  43  1302.938
  44  1384.574
  45  1715.471
  46  1667.753
  47  1502.373
  48  1710.969
  49  1624.546
  50  1474.142
  51  1128.312
  52  1193.623
  53  1703.076
  54  1591.007
  55  1334.575
  56  1246.572
  57  998.1642
  58  1189.775
  59  926.1696
  60  975.9145
  61  1004.472
  62  986.1545
  63  1395.901
  64  1352.397
  65  1155.633
  66  1099.885
  67  859.7776
  68  965.5198
  69  1077.573
  70  935.745
  71  1003.287
  72  1152.434
  73  1157.713
  74  1005.997
  75  876.2034
  76  1123.014
  77  1185.594
  78  1328.104
  79  1206.599
  80  1331.841
  81  1316.922
  82  1326.22
  83  1418.205
  84  1403.045
  85  1547.063
  86  1662.794
  87  1379.011
  88  1459.93
  89  1462.323
  90  1507.042
  91  1375.716
  92  1566.445
  93  1583.736
  94  1426.461
  95  1444.037
  96  1536.666
  97  1225.71
  98  1493.4
  99  1371.083
 100  1156.067
 101  1298.663
 102  1453.293
 103  1757.5
 104  1669.89
 105  1505.326
 106  1253.957
 107  970.0211
 108  1297.529
 109  1100.972
 110  1606.087
 111  1700.721
 112  1337.594
 113  1094.933
 114  1336.152
 115  1304.367
 116  1087.221
 117  1201.931
 118  915.5969
 119  1232.146
 120  1539.906
 121  1561.701
 122  1250.219
 123  1381.354
 124  1269.949
 125  885.0907
 126  1208.255
 127  1299.584
 128  1393.707
 129  1285.427
 130  983.924
 131  1230.846
 132  1225.203
 133  929.3718
 134  984.8072
 135  1446.35
 136  1553.798
 137  1364.387
 138  1377.697
 139  1516.476
 140  1294.505
 141  1057.769
 142  1283.54
 143  1796.548
 144  1632.065
 145  1404.671
 146  1191.039
 147  938.5249
 148  883.3049
 149  1328.396
 150  1152.466
 151  1270.911
 152  1557.387
 153  1743.666
 154  1650.616
 155  1494.291
 156  1727.599
 157  1592.022
 158  1243.936
 159  974.5272
 160  1282.003
 161  1516.321
 162  1519.36
 163  1346.239
 164  1673.805
 165  1547.772
 166  1428.985
 167  1473.496
 168  1717.296
 169  1375.741
 170  1125.109
 171  1106.675
 172  1463.992
 173  1409.943
 174  1455.437
 175  1590.49
 176  1680.731
 177  1606.558
 178  1458.489
 179  1562.095
 180  1305.642
 181  1305.995
 182  1854.203
 183  1781.581
 184  1699.263
 185  1629.55
 186  1812.893
 187  1574.871
 188  1475.448
 189  1608.893
 190  1296.949
 191  1491.494
 192  1457.618
 193  1573.662
 194  1319.871
 195  1487.299
 196  1821.907
 197  1299.28
 198  1564.688
 199  1370.002
 200  1027.572
 201  1019.26
 202  1535.159
 203  1701.413
 204  1336.77
 205  1304.177
 206  1205.143
 207  1219.207
 208  1226.231
 209  1161.506
 210  1292.174
 211  1143.186
 212  1246.723
 213  1669.778
 214  1687.302
 215  1478.334
 216  1422.036
 217  1250.74
 218  1594.799
 219  1511.021
 220  1418.11
 221  1146.761
 222  1358.318
 223  1232.485
 224  1339.168
 225  1021.987
 226  888.6353
 227  1188.155
 228  1252.367
 229  1194.503
 230  1072.71
 231  992.5908
 232  1346.762
 233  1523.558
 234  1517.816
 235  1272.019
 236  1239.87
 237  1344.241
 238  1581.047
 239  1138.919
 240  733.7397
 241  958.6017
 242  1170.536
 243  1301.094
 244  1294.529
 245  1256.8
 246  1318.32
 247  1174.522
 248  1165.872
 249  1172.104
 250  1214.703
 251  1387.208
 252  1651.603
 253  1105.171
 254  864.0775
 255  734.3883
 256  961.4442
 257  1136.88
 258  1372.213
 259  1399.281
 260  1303.634
 261  1385.87
 262  1172.369
 263  815.4668
 264  995.3322
 265  1220.947
 266  1005.699
 267  1102.165
 268  1306.111
 269  1140.997
 270  1102.441
 271  957.7909
 272  1248.069
 273  1102.267
 274  1084.256
 275  1031.751
 276  1181.19
 277  847.4759
 278  887.1931
 279  943.3779
 280  904.3941
 281  1120.156
 282  1125.373
 283  1403.08
 284  1449.34
 285  1468.441
 286  1191.071
 287  1235.548
 288  1210.945
 289  1327.802
 290  1212.501
 291  1257.917
 292  1494.408
 293  1647.169
 294  1454.707
 295  1599.204
 296  1373.901
 297  1214.175
 298  1293.282
 299  884.0789
 300  830.3151
 301  1108.069
 302  1303.275
 303  1178.506
 304  821.4265
 305  530.8083
 306  1086.64
 307  1423.393
 308  1178.496
 309  1146.035
 310  1229.69
 311  1151.673
 312  729.9376
 313  756.8311
 314  1093.987
 315  1227.68
 316  1363.696
 317  1753.895
 318  1524.041
 319  1467.577
 320  1250.799
 321  1122.439
 322  1533.618
 323  1624.372
 324  1595.745
 325  1021.428
 326  1400.967
 327  1511.56
 328  847.5996
 329  988.7977
 330  1272.078
 331  796.8964
 332  851.1407
 333  847.9284
 334  1230.139
 335  1263.794
 336  1176.484
 337  1163.027
 338  1229.795
 339  1252.741
 340  1241.758
 341  1289.144
 342  1248.546
 343  1624.676
 344  1080.907
 345  1068.016
 346  1282.765
 347  1366.694
 348  1417.803
 349  1428.37
 350  1630.207
 351  1663.778
 352  1487.502
 353  1418.922
 354  1401.727
 355  1362.41
 356  1423.152
 357  1520.085
 358  1549.698
 359  1397.026
 360  1794.68
 361  1251.292
 362  1057.567
 363  1020.656
 364  1235.8
 365  1092.492
 366  1433.661
 367  1226.961
 368  998.7502
 369  1151.394
 370  1307.124
 371  1759.944
 372  1667.176
 373  1675.358
 374  1480.202
 375  1264.631
 376  1374.217
 377  1482.762
 378  1535.348
 379  1341.942
 380  1146.786
 381  1514.52
 382  1428.186
 383  1329.344
 384  1452.151
 385  1576.747
 386  1679.361
 387  1836.241
 388  1157.328
 389  1338.659
 390  1827.245
 391  1743.274
 392  1468.61
 393  1254.159
 394  1468.557
 395  1574.053
 396  1757.534
 397  1736.377
 398  1500.203
 399  1598.078
 400  1831.422
 401  1533.234
 402  1006.28
 403  1223.755
 404  1334.763
 405  1443.295
 406  1329.864
 407  1384.534
 408  1156.882
 409  1179.956
 410  1157.517
 411  1368.358
 412  1405.877
 413  1183.542
 414  1094.534
 415  1293.74
 416  1244.554
 417  1259.596
 418  1162.212
 419  1269.531
 420  1444.796
 421  1450.139
 422  1413.259
 423  1229.904
 424  1265.074
 425  1214.152
 426  1211.225
 427  1440.262
 428  1308.042
 429  1355.071
 430  1409.589
 431  1295.531
 432  1441.992
 433  1261.417
 434  1118.021
 435  1132.141
 436  1645.845
 437  1548.095
 438  1335.591
 439  1410.33
 440  1491.402
 441  1230.471
 442  1467.926
 443  1519.232
 444  1534.849
 445  1373.499
 446  1551.231
 447  1298.75
 448  1369.7
 449  1845.407
 450  1890.951
 451  1894.38
 452  2443.742
 453  2696.697
 454  3304.062
 455  3616.114
 456  3019.817
 457  2507.232
 458  2469.527
 459  2143.951
 460  1940.301
 461  2105.117
 462  1731.337
 463  1868.635
 464  1617.55
 465  1566.13
 466  1693.265
 467  1966.489
 468  2221.418
 469  2085.225
 470  2258.823
 471  2176.538
 472  1982.714
 473  2098.755
 474  1720.232
 475  1711.598
 476  1660.737
 477  1645.251
 478  1246.034
 479  1603.159
 480  1900.987
 481  1762.804
 482  1662.4
 483  1686.946
 484  1670.502
 485  1682.646
 486  1989.882
 487  1722.152
 488  1555.9
 489  1506.995
 490  1225.033
 491  1419.654
 492  1572.496
 493  1627.486
 494  1478.215
 495  1469.278
 496  1005.598
 497  1157.508
 498  1201.47
 499  948.3977
 500  989.9589
 501  1148.829
 502  1240.255
 503  1554.93
 504  1681.153
 505  1434.115
 506  1024.906
 507  967.6781
 508  1352.862
 509  1610.579
 510  1360.532
 511  1580.948
