# Input file       =  1211030064.097827_cleaned.dat
# Candidate        =  PSR_0332+5434
# Telescope        =  AR
# Epoch_topo       =  58260.551887706330
# Epoch_bary       =  N/A
# T_sample         =  0.002
# Data Folded      =  7340032
# Data Avg         =  0.0956807983617338
# Data StdDev      =  1.00025393465471 
# Profile Bins     =  512
# Profile Avg      =  1371.73687968543 
# Profile StdDev   =  119.763440744016 
# Reduced chi-sqr  =  1.166
# Prob(Noise)      <  0.00564   (~2.5 sigma)
# P_topo (ms)      =  714.526617488635  +/- 5.68e-05
# P'_topo (s/s)    =  -0                +/- 3e-11
# P''_topo (s/s^2) =  0                 +/- 1.32e-14
# P_bary (ms)      =  N/A
# P'_bary (s/s)    =  N/A
# P''_bary (s/s^2) =  N/A
# P_orb (s)        =  N/A
# asin(i)/c (s)    =  N/A
# eccentricity     =  N/A
# w (rad)          =  N/A
# T_peri           =  N/A
######################################################
   0  1791.711
   1  1749.705
   2  1521.342
   3  1338.809
   4  1234.162
   5  1350.638
   6  1374.848
   7  1408.619
   8  1361.281
   9  1373.967
  10  1293.779
  11  1223.915
  12  1271.371
  13  1361.949
  14  1413.508
  15  1386.763
  16  1340.587
  17  1184.05
  18  1185.53
  19  1254.053
  20  1346.011
  21  1385.853
  22  1362.195
  23  1411.507
  24  1394.606
  25  1244.421
  26  1240.413
  27  1301.981
  28  1321.072
  29  1329.449
  30  1403.853
  31  1399.337
  32  1317.037
  33  1393.452
  34  1478.243
  35  1448.224
  36  1397.593
  37  1429.756
  38  1357.854
  39  1458.198
  40  1489.966
  41  1466.764
  42  1456.817
  43  1450.584
  44  1433.106
  45  1368.97
  46  1288.412
  47  1350.65
  48  1436.916
  49  1484.788
  50  1330.083
  51  1265.389
  52  1245.798
  53  1381.143
  54  1455.607
  55  1499.142
  56  1477.492
  57  1335.397
  58  1374.798
  59  1495.165
  60  1490.75
  61  1467.691
  62  1420.21
  63  1365.807
  64  1423.882
  65  1316.688
  66  1384.044
  67  1544.319
  68  1549.202
  69  1489.51
  70  1360.257
  71  1308.006
  72  1296.492
  73  1403.378
  74  1468.589
  75  1453.63
  76  1460.068
  77  1309.503
  78  1259.079
  79  1268.249
  80  1367.196
  81  1456.333
  82  1343.913
  83  1236.355
  84  1255.431
  85  1288.523
  86  1363.564
  87  1475.888
  88  1491.066
  89  1426.989
  90  1387.124
  91  1316.298
  92  1377.012
  93  1377.261
  94  1373.585
  95  1467.319
  96  1440.261
  97  1394.22
  98  1334.559
  99  1415.521
 100  1394.75
 101  1403.756
 102  1420.689
 103  1326.722
 104  1269.314
 105  1269.563
 106  1282.663
 107  1444.892
 108  1564.78
 109  1456.046
 110  1427.706
 111  1375.082
 112  1313.598
 113  1342.621
 114  1458.032
 115  1418.091
 116  1412.617
 117  1423.236
 118  1349.344
 119  1362.444
 120  1465.6
 121  1344.949
 122  1394.244
 123  1424.16
 124  1306.756
 125  1286.432
 126  1433.249
 127  1537.35
 128  1523.568
 129  1416.856
 130  1388.226
 131  1367.632
 132  1369.475
 133  1355.447
 134  1437.326
 135  1454.004
 136  1433.016
 137  1391.601
 138  1376.945
 139  1445.56
 140  1441.249
 141  1440.634
 142  1378.961
 143  1371.071
 144  1434.238
 145  1607.236
 146  1607.884
 147  1543.881
 148  1464.704
 149  1355.086
 150  1288.596
 151  1282.906
 152  1456.905
 153  1511.821
 154  1525.284
 155  1560.153
 156  1469.582
 157  1471.66
 158  1382.913
 159  1263.664
 160  1385.059
 161  1469.908
 162  1436.404
 163  1496.461
 164  1321.221
 165  1164.452
 166  1239.717
 167  1272.886
 168  1302.099
 169  1359.926
 170  1415.461
 171  1406.832
 172  1399.074
 173  1405.655
 174  1475.102
 175  1456.046
 176  1479.39
 177  1306.144
 178  1379.139
 179  1498.572
 180  1518.599
 181  1539.564
 182  1567.516
 183  1458.641
 184  1305.267
 185  1359.767
 186  1461.584
 187  1475.205
 188  1470.988
 189  1410.147
 190  1322.09
 191  1284.678
 192  1378.018
 193  1470.334
 194  1424.256
 195  1383.639
 196  1425.186
 197  1439.39
 198  1421.036
 199  1483.764
 200  1534.974
 201  1594.411
 202  1493.1
 203  1383.734
 204  1379.096
 205  1303.041
 206  1346.994
 207  1436.873
 208  1512.968
 209  1525.365
 210  1441.046
 211  1416.921
 212  1444.229
 213  1473.752
 214  1467.235
 215  1383.987
 216  1435.79
 217  1465.766
 218  1540.069
 219  1466.223
 220  1435.403
 221  1375.941
 222  1302.796
 223  1429.38
 224  1526.202
 225  1459.447
 226  1424.518
 227  1403.335
 228  1397.513
 229  1473.878
 230  1466.209
 231  1466.097
 232  1426.898
 233  1386.547
 234  1443.151
 235  1468.989
 236  1375.098
 237  1349.388
 238  1369.749
 239  1301.603
 240  1285.603
 241  1405.561
 242  1414.511
 243  1387.004
 244  1259.928
 245  1266.598
 246  1310.603
 247  1286.569
 248  1287.097
 249  1446.506
 250  1462.245
 251  1444.771
 252  1386.15
 253  1411.575
 254  1454.95
 255  1340.781
 256  1385.59
 257  1374.976
 258  1366.517
 259  1399.174
 260  1420.229
 261  1417.876
 262  1345.375
 263  1344.258
 264  1323.913
 265  1350.857
 266  1337.69
 267  1369.937
 268  1349.523
 269  1481.074
 270  1441.049
 271  1414.937
 272  1282.337
 273  1307.821
 274  1428.092
 275  1413.118
 276  1454.276
 277  1228.069
 278  1189.714
 279  1285.109
 280  1340.98
 281  1370.133
 282  1376.408
 283  1409.423
 284  1412.854
 285  1364.756
 286  1337.053
 287  1419.03
 288  1307.51
 289  1328.973
 290  1380.804
 291  1395.097
 292  1338.4
 293  1276.026
 294  1317.142
 295  1292.207
 296  1264.935
 297  1282.76
 298  1432.677
 299  1349.866
 300  1314.272
 301  1335.552
 302  1367.698
 303  1357.013
 304  1346.424
 305  1372.043
 306  1370.327
 307  1493.769
 308  1451.187
 309  1534.501
 310  1371.218
 311  1262.043
 312  1212.501
 313  1304.215
 314  1454.463
 315  1375.719
 316  1375.53
 317  1390.156
 318  1272.91
 319  1239.188
 320  1409.865
 321  1390.254
 322  1381.342
 323  1327.227
 324  1316.661
 325  1284.489
 326  1354.081
 327  1392.199
 328  1403.494
 329  1399.77
 330  1369.604
 331  1498.208
 332  1446.305
 333  1331.91
 334  1432.351
 335  1463.163
 336  1339.895
 337  1351.883
 338  1391.194
 339  1317.28
 340  1315.395
 341  1320.121
 342  1356.689
 343  1246.364
 344  1216.812
 345  1191.012
 346  1217.279
 347  1345.016
 348  1392.221
 349  1463.839
 350  1442.136
 351  1379.947
 352  1266.144
 353  1382.81
 354  1451.118
 355  1282.466
 356  1285.219
 357  1288.734
 358  1330.908
 359  1355.659
 360  1416.455
 361  1342.191
 362  1286.148
 363  1315.15
 364  1466.649
 365  1467.292
 366  1499.863
 367  1532.211
 368  1494.92
 369  1442.137
 370  1287.397
 371  1288.23
 372  1291.368
 373  1363.734
 374  1418.725
 375  1337.204
 376  1260.365
 377  1270.65
 378  1187.868
 379  1255.913
 380  1262.338
 381  1356.195
 382  1367.484
 383  1235.748
 384  1246.037
 385  1367.446
 386  1481.573
 387  1379.382
 388  1327.376
 389  1352.008
 390  1402.651
 391  1299.78
 392  1241.286
 393  1235.913
 394  1304.576
 395  1411.073
 396  1375.512
 397  1336.459
 398  1216.755
 399  1234.55
 400  1280.092
 401  1375.434
 402  1347.324
 403  1296.555
 404  1303.705
 405  1275.93
 406  1333.503
 407  1404.221
 408  1379.715
 409  1438.351
 410  1339.877
 411  1191.692
 412  1259.945
 413  1316.743
 414  1415.825
 415  1514.574
 416  1486.872
 417  1304.153
 418  1230.542
 419  1326.168
 420  1489.044
 421  1412.326
 422  1321.156
 423  1270.615
 424  1386.669
 425  1400.524
 426  1384.632
 427  1409.937
 428  1354.904
 429  1223.918
 430  1202.957
 431  1218.169
 432  1302.137
 433  1505.637
 434  1470.412
 435  1340.069
 436  1244.004
 437  1260.843
 438  1326.766
 439  1383.269
 440  1287.638
 441  1258.218
 442  1326.069
 443  1313.627
 444  1297.675
 445  1286.036
 446  1295.818
 447  1374.405
 448  1426.519
 449  1423.259
 450  1338.575
 451  1313.77
 452  1331.013
 453  1347.38
 454  1398.292
 455  1385.852
 456  1348.356
 457  1333.637
 458  1308.646
 459  1241.704
 460  1282.726
 461  1215.992
 462  1187.259
 463  1254.982
 464  1201.16
 465  1242.94
 466  1183.958
 467  1292.43
 468  1397.912
 469  1288.258
 470  1238.938
 471  1232.526
 472  1319.495
 473  1349.115
 474  1390.788
 475  1372.562
 476  1341.128
 477  1191.457
 478  1104.248
 479  1207.656
 480  1274.964
 481  1368.848
 482  1423.648
 483  1287.136
 484  1190.602
 485  1190.472
 486  1151.474
 487  1267.41
 488  1279.017
 489  1206.488
 490  1264.943
 491  1281.346
 492  1358.774
 493  1264.87
 494  1298.136
 495  1244.56
 496  1250.161
 497  1213.226
 498  1331.799
 499  1424.241
 500  1443.248
 501  1439.974
 502  1334.995
 503  1298.742
 504  1234.722
 505  1312.865
 506  1392.509
 507  1507.438
 508  1623.887
 509  1691.745
 510  1684.782
 511  1701.526
