# Input file       =  1211944410.106287_cleaned.dat
# Candidate        =  PSR_0332+5434
# Telescope        =  AR
# Epoch_topo       =  58271.134596137585
# Epoch_bary       =  N/A
# T_sample         =  0.002
# Data Folded      =  7208960
# Data Avg         =  0.0725419663016795
# Data StdDev      =  1.00007148411417 
# Profile Bins     =  512
# Profile Avg      =  1021.33252778954 
# Profile StdDev   =  118.6676580396   
# Reduced chi-sqr  =  1.195
# Prob(Noise)      <  0.00159   (~2.9 sigma)
# P_topo (ms)      =  714.515826413654  +/- 0.000205
# P'_topo (s/s)    =  -0                +/- 1.1e-10
# P''_topo (s/s^2) =  0                 +/- 4.94e-14
# P_bary (ms)      =  N/A
# P'_bary (s/s)    =  N/A
# P''_bary (s/s^2) =  N/A
# P_orb (s)        =  N/A
# asin(i)/c (s)    =  N/A
# eccentricity     =  N/A
# w (rad)          =  N/A
# T_peri           =  N/A
######################################################
   0  1590.717
   1  1470.651
   2  1360.32
   3  1192.036
   4  1082.949
   5  1080.721
   6  976.5392
   7  976.8492
   8  1049.436
   9  1098.912
  10  1084.782
  11  943.7615
  12  1021.734
  13  981.1632
  14  960.9225
  15  929.9532
  16  998.7895
  17  1047.305
  18  1022.487
  19  959.3113
  20  930.9459
  21  937.1138
  22  1011.754
  23  1093.047
  24  1065.187
  25  961.7549
  26  1032.688
  27  1062.468
  28  1017.966
  29  942.8609
  30  996.5645
  31  1113.772
  32  1049.609
  33  934.3527
  34  915.8778
  35  1021.758
  36  1015.773
  37  1030.404
  38  1014.849
  39  949.5261
  40  899.9614
  41  875.6213
  42  1082.394
  43  1050.08
  44  994.6602
  45  970.9217
  46  1103.039
  47  1092.58
  48  1001.047
  49  1006.793
  50  1006.867
  51  951.698
  52  1022.235
  53  1180.907
  54  1043.797
  55  995.4716
  56  959.2672
  57  931.3339
  58  974.5598
  59  1032.882
  60  1012.445
  61  1042.656
  62  936.243
  63  977.7255
  64  993.298
  65  964.5582
  66  979.8157
  67  955.5607
  68  955.8485
  69  958.5213
  70  1020.89
  71  1069.929
  72  941.5056
  73  888.413
  74  1076.95
  75  1165.043
  76  1142.35
  77  981.1527
  78  1100.766
  79  1162.686
  80  1172.373
  81  1031.268
  82  998.6664
  83  1090.75
  84  1109.492
  85  1035.693
  86  909.8657
  87  941.5801
  88  1073.251
  89  1032.673
  90  1046.184
  91  1057.541
  92  1119.657
  93  1024.991
  94  977.2011
  95  1112.259
  96  1095.399
  97  1073.025
  98  957.9286
  99  892.1716
 100  974.5526
 101  1117.317
 102  1120.245
 103  1087.183
 104  1009.51
 105  1078.585
 106  1071.834
 107  1017.184
 108  950.6785
 109  1052.809
 110  1047.892
 111  1136.168
 112  1161.556
 113  1200.979
 114  986.2264
 115  1057.881
 116  1039.246
 117  916.2053
 118  910.4954
 119  973.5062
 120  1017.956
 121  1046.928
 122  1171.832
 123  1161.473
 124  979.5973
 125  1105.871
 126  985.3742
 127  1070.293
 128  1044.923
 129  1030.315
 130  946.9531
 131  940.7596
 132  983.7747
 133  1075.277
 134  1048.378
 135  1022.755
 136  1037.862
 137  1005.233
 138  963.3758
 139  867.4464
 140  902.001
 141  1037.933
 142  1016.916
 143  1038.312
 144  931.6356
 145  858.1293
 146  991.0212
 147  972.0082
 148  958.7529
 149  1001.364
 150  929.0437
 151  974.2629
 152  962.4737
 153  1020.863
 154  945.8455
 155  862.5403
 156  814.1159
 157  955.6728
 158  894.0334
 159  932.0127
 160  956.8596
 161  985.1801
 162  1090.029
 163  928.8344
 164  936.6286
 165  813.782
 166  819.7805
 167  800.1973
 168  923.3872
 169  900.9213
 170  884.9227
 171  934.8905
 172  1011.496
 173  874.3301
 174  897.4568
 175  940.9062
 176  926.056
 177  959.7826
 178  993.6011
 179  977.4036
 180  916.9146
 181  902.3171
 182  912.9567
 183  1046.545
 184  970.3238
 185  1059.898
 186  1026.934
 187  906.5851
 188  848.3022
 189  929.1819
 190  891.9865
 191  949.3381
 192  986.6767
 193  1110.477
 194  1124.267
 195  1040.147
 196  944.6968
 197  908.3729
 198  924.0662
 199  969.5772
 200  1118.511
 201  1114.795
 202  1052.178
 203  990.7261
 204  1096.776
 205  981.8639
 206  1061.873
 207  1048.996
 208  1087.641
 209  1054.081
 210  984.8845
 211  940.6813
 212  1032.09
 213  1099.205
 214  1032.1
 215  949.6113
 216  957.4756
 217  1030.947
 218  872.717
 219  861.5806
 220  1038.403
 221  1024.479
 222  1093.23
 223  1173.397
 224  1051.764
 225  1053.026
 226  1098.391
 227  1083.012
 228  1067.409
 229  1005.613
 230  921.6541
 231  948.4609
 232  1039.593
 233  1039.662
 234  918.7217
 235  1023.341
 236  1044.223
 237  958.1185
 238  936.9401
 239  1031.135
 240  978.6529
 241  925.1736
 242  1078.105
 243  1215.351
 244  1151.319
 245  1131.38
 246  1119.781
 247  1058.616
 248  1089.129
 249  1163.417
 250  1111.667
 251  971.8925
 252  1022.905
 253  1145.37
 254  1016.209
 255  1032.362
 256  1055.144
 257  1075.727
 258  1003.331
 259  1044.124
 260  1086.03
 261  970.2716
 262  966.9363
 263  1100.772
 264  1172.022
 265  1083.118
 266  983.6791
 267  932.6714
 268  1016.038
 269  1062.679
 270  1088.865
 271  999.6052
 272  1024.249
 273  1080.655
 274  1059.667
 275  983.3256
 276  967.9523
 277  937.5524
 278  1027.524
 279  1043.985
 280  1149.624
 281  1046.437
 282  1071.855
 283  1088.28
 284  1076.842
 285  1058.128
 286  922.5742
 287  869.8224
 288  918.3869
 289  884.9517
 290  1039.583
 291  1065.343
 292  951.6153
 293  1046.205
 294  1204.712
 295  1144.549
 296  1231.647
 297  1117.313
 298  980.6119
 299  855.1855
 300  934.5014
 301  1012.484
 302  1006.834
 303  921.1277
 304  980.3989
 305  986.4323
 306  1031.763
 307  1107.547
 308  1034.305
 309  967.42
 310  969.1871
 311  982.4661
 312  966.0143
 313  966.2715
 314  1040.661
 315  989.6434
 316  953.9981
 317  998.7354
 318  1040.97
 319  1010.259
 320  963.5752
 321  955.3148
 322  1116.027
 323  1085.478
 324  1015.593
 325  1069.61
 326  1065.796
 327  1063.206
 328  1018.959
 329  1005.636
 330  1042.676
 331  1108.647
 332  1019.686
 333  1064.115
 334  1119.005
 335  1045.301
 336  961.0457
 337  916.8014
 338  995.1135
 339  968.6735
 340  1060.729
 341  1113.528
 342  1096.01
 343  1111.063
 344  1117.702
 345  1087.448
 346  1067.578
 347  1086.906
 348  1018.618
 349  1040.282
 350  979.0212
 351  959.1458
 352  934.817
 353  1018.323
 354  1123.644
 355  1115.999
 356  1059.331
 357  981.4023
 358  925.3378
 359  1060.165
 360  1172.546
 361  1147.338
 362  1138.788
 363  1129.958
 364  1050.413
 365  1023.33
 366  999.6501
 367  1036.791
 368  949.7798
 369  1030.742
 370  1011.291
 371  1018.714
 372  1140.003
 373  1064.997
 374  1049.15
 375  1074.192
 376  1007.058
 377  996.2191
 378  982.3598
 379  1029.694
 380  1009.134
 381  890.6678
 382  945.4432
 383  948.248
 384  995.6064
 385  1123.664
 386  1026.083
 387  938.7883
 388  926.4148
 389  932.6093
 390  982.0867
 391  1049.439
 392  1078.843
 393  1182.628
 394  1188.638
 395  1041.459
 396  1031.927
 397  955.9346
 398  874.3961
 399  897.3469
 400  923.0312
 401  972.9908
 402  965.2227
 403  999.216
 404  997.0805
 405  994.8361
 406  929.1713
 407  934.0265
 408  952.2622
 409  1051.68
 410  985.4597
 411  942.6198
 412  924.6531
 413  949.1047
 414  1032.365
 415  1001.688
 416  991.8274
 417  1002.537
 418  1018.071
 419  1001.462
 420  1003.737
 421  1097.236
 422  1021.559
 423  927.353
 424  874.4586
 425  981.9261
 426  1128.751
 427  1035.823
 428  1037.428
 429  951.4225
 430  999.6494
 431  986.7551
 432  929.6191
 433  948.2012
 434  1005.106
 435  1001.209
 436  936.4395
 437  982.2941
 438  1029.828
 439  975.6267
 440  951.3536
 441  1112.035
 442  1067.423
 443  1033.907
 444  1126.007
 445  1010.941
 446  889.1025
 447  984.3837
 448  1015.401
 449  882.2932
 450  1030.744
 451  1018.932
 452  880.7285
 453  877.887
 454  1036.212
 455  1040.797
 456  882.92
 457  996.0014
 458  1098.14
 459  1075.657
 460  980.8148
 461  991.3126
 462  1101.089
 463  1131.024
 464  1012.322
 465  984.0833
 466  1029.961
 467  1016.244
 468  999.4081
 469  950.5476
 470  946.448
 471  983.2374
 472  943.597
 473  938.3051
 474  948.8983
 475  1001.622
 476  1096.799
 477  1115.697
 478  1087.691
 479  943.7745
 480  908.3425
 481  1013.094
 482  1061.278
 483  908.1156
 484  962.7694
 485  1065.939
 486  1024.473
 487  1089.65
 488  1034.392
 489  954.0639
 490  1007.822
 491  1102.874
 492  1188.864
 493  1153.543
 494  1035.4
 495  1001.748
 496  1041.999
 497  1067.907
 498  978.4702
 499  1104.455
 500  1023.002
 501  1107.055
 502  1086.014
 503  1165.297
 504  1145.56
 505  1132.11
 506  1195.713
 507  1133.365
 508  1227.848
 509  1465.074
 510  1618.267
 511  1605.931
