# Input file       =  1211599777.101234_cleaned.dat
# Candidate        =  PSR_0332+5434
# Telescope        =  AR
# Epoch_topo       =  58267.145788208727
# Epoch_bary       =  N/A
# T_sample         =  0.002
# Data Folded      =  7208960
# Data Avg         =  0.0471396376719111
# Data StdDev      =  1.00004250539094 
# Profile Bins     =  512
# Profile Avg      =  663.722678614235 
# Profile StdDev   =  118.664219448186 
# Reduced chi-sqr  =  1.436
# Prob(Noise)      <  3.38e-10   (~6.2 sigma)
# P_topo (ms)      =  714.519713351792  +/- 7.42e-05
# P'_topo (s/s)    =  -0                +/- 3.99e-11
# P''_topo (s/s^2) =  0                 +/- 1.79e-14
# P_bary (ms)      =  N/A
# P'_bary (s/s)    =  N/A
# P''_bary (s/s^2) =  N/A
# P_orb (s)        =  N/A
# asin(i)/c (s)    =  N/A
# eccentricity     =  N/A
# w (rad)          =  N/A
# T_peri           =  N/A
######################################################
   0  1348.765
   1  1181.152
   2  1016.054
   3  784.1651
   4  879.3837
   5  722.0936
   6  610.2057
   7  681.6315
   8  658.6039
   9  670.4559
  10  626.0911
  11  688.1992
  12  672.2231
  13  631.8851
  14  815.2678
  15  799.6199
  16  768.8603
  17  733.4625
  18  676.6197
  19  625.2749
  20  688.1413
  21  735.058
  22  679.4619
  23  793.1452
  24  775.3131
  25  684.0676
  26  670.2323
  27  633.6812
  28  771.0558
  29  688.4941
  30  627.9611
  31  726.0798
  32  671.2729
  33  549.7451
  34  399.9555
  35  491.5296
  36  649.7557
  37  724.9404
  38  595.4705
  39  549.5629
  40  638.628
  41  627.621
  42  702.0538
  43  538.9661
  44  521.662
  45  586.9224
  46  570.9905
  47  621.9537
  48  683.2687
  49  691.9329
  50  612.6976
  51  629.1411
  52  647.9743
  53  586.772
  54  420.4836
  55  496.3354
  56  512.7471
  57  553.5705
  58  660.1293
  59  504.5395
  60  541.2451
  61  506.8648
  62  435.4315
  63  494.9177
  64  543.0202
  65  645.9594
  66  695.0193
  67  541.5109
  68  465.0145
  69  500.0763
  70  586.4968
  71  495.763
  72  430.0698
  73  653.1082
  74  707.1365
  75  645.0386
  76  589.5016
  77  606.5563
  78  458.554
  79  472.9654
  80  629.5774
  81  731.3002
  82  710.5453
  83  616.0549
  84  646.8981
  85  620.6624
  86  679.0502
  87  641.936
  88  707.1914
  89  596.0704
  90  684.8757
  91  575.8625
  92  514.2361
  93  577.3112
  94  551.8267
  95  504.5186
  96  497.8719
  97  502.1519
  98  613.1208
  99  616.0863
 100  569.3682
 101  593.2593
 102  621.8065
 103  501.6784
 104  486.5381
 105  564.0599
 106  638.1234
 107  656.8899
 108  665.7635
 109  604.8386
 110  539.8788
 111  478.5264
 112  498.0404
 113  602.8134
 114  682.7037
 115  733.0389
 116  625.7748
 117  611.8083
 118  539.2039
 119  542.6942
 120  483.0352
 121  600.8624
 122  746.3419
 123  819.8367
 124  782.5734
 125  661.2046
 126  627.7169
 127  550.4169
 128  511.2782
 129  593.8158
 130  585.5594
 131  699.2181
 132  625.9042
 133  610.6666
 134  628.4222
 135  682.489
 136  586.8999
 137  659.6539
 138  653.5502
 139  614.5743
 140  686.8244
 141  698.1222
 142  612.8733
 143  557.6039
 144  588.9213
 145  489.8221
 146  547.3115
 147  678.2522
 148  703.1686
 149  772.7036
 150  757.5492
 151  769.4094
 152  676.617
 153  516.9725
 154  602.7693
 155  843.7482
 156  932.7767
 157  748.1833
 158  609.1693
 159  717.2318
 160  725.3467
 161  595.1472
 162  644.9012
 163  688.4368
 164  732.8059
 165  771.7822
 166  798.1887
 167  855.3069
 168  649.4961
 169  617.0872
 170  634.399
 171  705.0121
 172  785.9944
 173  733.0814
 174  720.7773
 175  760.0071
 176  733.1527
 177  702.6656
 178  723.1675
 179  698.4089
 180  712.8837
 181  822.7607
 182  871.4485
 183  810.6621
 184  822.646
 185  810.9326
 186  759.2073
 187  617.1927
 188  576.8952
 189  755.5154
 190  617.0311
 191  591.1343
 192  608.4064
 193  708.9158
 194  684.4554
 195  621.3264
 196  728.9732
 197  732.8854
 198  704.7309
 199  749.5859
 200  686.0406
 201  644.7808
 202  700.5325
 203  592.976
 204  544.0414
 205  573.228
 206  580.9038
 207  553.1038
 208  531.1096
 209  705.8884
 210  642.6624
 211  519.8598
 212  508.655
 213  608.9396
 214  682.4911
 215  832.2995
 216  818.766
 217  722.9403
 218  589.2101
 219  608.5881
 220  624.4631
 221  553.6276
 222  786.8818
 223  752.4081
 224  782.6685
 225  671.436
 226  583.4212
 227  579.502
 228  603.1627
 229  620.0575
 230  632.9175
 231  726.6055
 232  799.1058
 233  811.7446
 234  667.2291
 235  662.0939
 236  662.4498
 237  659.0543
 238  643.9337
 239  658.3827
 240  819.9158
 241  734.5923
 242  589.6609
 243  663.5026
 244  646.3077
 245  649.275
 246  689.4734
 247  811.2933
 248  705.4105
 249  694.8164
 250  650.2382
 251  704.1428
 252  713.6902
 253  695.6735
 254  664.653
 255  654.1814
 256  710.7681
 257  708.921
 258  670.3632
 259  798.8283
 260  842.3424
 261  725.5916
 262  685.6523
 263  760.6815
 264  732.88
 265  702.2034
 266  732.169
 267  681.3842
 268  724.1968
 269  818.5495
 270  841.1822
 271  753.749
 272  774.2976
 273  696.3236
 274  675.1974
 275  694.7687
 276  736.152
 277  605.6337
 278  631.7092
 279  689.7294
 280  699.6282
 281  720.7598
 282  657.7245
 283  710.0737
 284  701.7158
 285  709.2112
 286  780.2779
 287  771.7711
 288  703.3533
 289  719.3386
 290  752.6123
 291  698.223
 292  687.3227
 293  650.9042
 294  653.3926
 295  680.971
 296  792.9278
 297  735.4837
 298  605.9282
 299  659.7857
 300  667.5443
 301  631.6109
 302  583.5525
 303  647.4619
 304  800.0855
 305  805.9911
 306  762.4109
 307  865.0986
 308  685.5936
 309  587.3395
 310  597.2024
 311  546.7219
 312  688.2438
 313  639.9698
 314  712.9421
 315  718.1812
 316  605.5007
 317  652.4872
 318  598.7769
 319  630.0054
 320  655.9468
 321  620.3267
 322  822.9811
 323  686.4323
 324  612.7648
 325  674.8591
 326  667.2047
 327  601.9809
 328  641.9393
 329  759.1611
 330  728.3712
 331  665.2759
 332  723.8675
 333  821.8535
 334  818.1696
 335  664.2947
 336  701.2134
 337  705.1047
 338  745.5273
 339  720.2194
 340  621.4575
 341  544.6838
 342  600.2239
 343  640.0392
 344  564.3181
 345  673.8011
 346  739.8488
 347  749.6411
 348  676.1189
 349  643.2737
 350  560.2126
 351  591.35
 352  565.7957
 353  548.3735
 354  603.9171
 355  735.1823
 356  723.3358
 357  631.308
 358  584.1241
 359  583.8927
 360  679.8613
 361  831.9069
 362  814.1501
 363  740.8647
 364  616.6689
 365  677.5745
 366  785.287
 367  691.408
 368  632.6294
 369  602.3861
 370  581.9155
 371  673.8544
 372  703.7432
 373  688.4055
 374  579.6577
 375  724.959
 376  598.8331
 377  532.9717
 378  615.2325
 379  659.3537
 380  549.2507
 381  533.7623
 382  664.5685
 383  657.9853
 384  551.0776
 385  527.273
 386  586.8859
 387  547.1282
 388  645.6683
 389  612.7616
 390  602.0184
 391  550.3469
 392  520.6089
 393  517.3536
 394  562.7904
 395  654.662
 396  834.5906
 397  699.2084
 398  727.4849
 399  690.3776
 400  678.2321
 401  600.6255
 402  631.8755
 403  657.2966
 404  657.908
 405  621.9776
 406  525.0076
 407  575.0132
 408  540.4758
 409  547.7977
 410  540.2107
 411  615.8519
 412  761.418
 413  738.1252
 414  669.7743
 415  784.6218
 416  675.7254
 417  622.1497
 418  608.041
 419  453.8351
 420  544.1276
 421  659.1675
 422  700.3687
 423  685.6367
 424  689.0878
 425  639.9348
 426  697.5654
 427  719.546
 428  694.7532
 429  714.4379
 430  654.1644
 431  745.2153
 432  658.9818
 433  693.0963
 434  742.6158
 435  694.69
 436  773.496
 437  738.3238
 438  699.1196
 439  629.2797
 440  608.8357
 441  671.7373
 442  644.4182
 443  558.4169
 444  580.72
 445  629.1462
 446  684.2927
 447  592.4654
 448  695.4452
 449  695.3434
 450  621.0793
 451  652.9355
 452  602.1057
 453  640.3095
 454  716.6785
 455  718.942
 456  684.5121
 457  616.5012
 458  586.5292
 459  663.294
 460  798.9268
 461  787.6042
 462  700.9235
 463  708.4861
 464  585.6741
 465  688.501
 466  664.0747
 467  634.4988
 468  627.5961
 469  662.0299
 470  704.4954
 471  740.5008
 472  834.0989
 473  672.335
 474  572.5689
 475  609.5344
 476  548.2922
 477  527.1915
 478  603.3846
 479  724.055
 480  601.0414
 481  552.5087
 482  603.4454
 483  593.0868
 484  536.9608
 485  657.7083
 486  699.4536
 487  735.7562
 488  663.8738
 489  647.2671
 490  652.8461
 491  536.2428
 492  469.3159
 493  683.3995
 494  727.4229
 495  603.7811
 496  747.6817
 497  723.5714
 498  723.8722
 499  665.366
 500  744.1252
 501  564.3752
 502  619.918
 503  725.1229
 504  657.8252
 505  670.0095
 506  622.1629
 507  858.3858
 508  922.994
 509  957.4565
 510  1100.877
 511  1299.524
