# Input file       =  1211113075.123591_cleaned.dat
# Candidate        =  PSR_0332+5434
# Telescope        =  AR
# Epoch_topo       =  58261.512663467489
# Epoch_bary       =  N/A
# T_sample         =  0.002
# Data Folded      =  7340032
# Data Avg         =  0.241058583963811
# Data StdDev      =  4.7503827756255  
# Profile Bins     =  1024
# Profile Avg      =  1727.92096585802 
# Profile StdDev   =  402.186606613434 
# Reduced chi-sqr  =  0.558
# Prob(Noise)      <  1   (~0.0 sigma)
# P_topo (ms)      =  714.525594379606  +/- 0.000189
# P'_topo (s/s)    =  -0                +/- 9.97e-11
# P''_topo (s/s^2) =  0                 +/- 4.4e-14
# P_bary (ms)      =  N/A
# P'_bary (s/s)    =  N/A
# P''_bary (s/s^2) =  N/A
# P_orb (s)        =  N/A
# asin(i)/c (s)    =  N/A
# eccentricity     =  N/A
# w (rad)          =  N/A
# T_peri           =  N/A
######################################################
   0  1799.769
   1  1854.087
   2  1805.098
   3  1783.564
   4  1766.383
   5  1902.714
   6  1882.066
   7  1809.539
   8  1771.754
   9  1877.308
  10  1953.355
  11  1837.902
  12  1787.385
  13  1841.578
  14  1912.083
  15  1780.248
  16  1738.04
  17  1722.475
  18  1692.939
  19  1703.567
  20  1779.018
  21  1737.8
  22  1624.765
  23  1506.126
  24  1485.051
  25  1528.174
  26  1808.837
  27  2008.515
  28  1907.631
  29  1696.364
  30  1557.963
  31  1590.562
  32  1539.636
  33  1650.838
  34  1656.488
  35  1796.96
  36  1909.69
  37  2037.111
  38  1975.728
  39  1921.58
  40  1925.731
  41  1790.568
  42  1568.405
  43  1568.237
  44  1570.342
  45  1558.892
  46  1565.565
  47  1623.735
  48  1595.18
  49  1593.241
  50  1707.857
  51  1736.359
  52  1691.316
  53  1626.932
  54  1665.197
  55  1638.329
  56  1678.958
  57  1659.016
  58  1605.933
  59  1620.934
  60  1638.489
  61  1693.646
  62  1667.343
  63  1749.195
  64  1814.028
  65  1805.371
  66  1725.579
  67  1618.426
  68  1612.641
  69  1706.172
  70  1895.497
  71  1991.878
  72  1904.37
  73  1756.028
  74  1673.49
  75  1742.218
  76  1792.828
  77  1688.483
  78  1658.389
  79  1810.335
  80  1940.781
  81  1943.58
  82  1966.668
  83  1953.549
  84  1966.662
  85  1828.257
  86  1860.755
  87  1823.466
  88  1791.343
  89  1678.14
  90  1699.599
  91  1662.816
  92  1700.298
  93  1599.536
  94  1622.867
  95  1794.08
  96  1985.648
  97  1977.015
  98  1811.886
  99  1745.122
 100  1856.252
 101  1911.969
 102  1862.68
 103  1729.295
 104  1718.106
 105  1713.451
 106  1678.229
 107  1706.173
 108  1768.097
 109  1913.487
 110  1907.634
 111  1846.521
 112  1732.173
 113  1702.71
 114  1775.799
 115  1755.17
 116  1753.058
 117  1841.018
 118  1794.376
 119  1650.37
 120  1471.323
 121  1601.641
 122  1880.698
 123  1945.966
 124  1849.272
 125  1754.915
 126  1842.761
 127  1831.147
 128  1853.749
 129  1835.834
 130  1902.289
 131  1780.988
 132  1649.676
 133  1662.373
 134  1688.611
 135  1677.788
 136  1597.831
 137  1490.49
 138  1397.174
 139  1435.602
 140  1634.984
 141  1610.596
 142  1537.021
 143  1582.689
 144  1674.977
 145  1755.006
 146  1659.909
 147  1563.373
 148  1533.244
 149  1512.734
 150  1611.16
 151  1643.922
 152  1687.764
 153  1695.905
 154  1723.638
 155  1769.77
 156  1630.916
 157  1501.73
 158  1621.094
 159  1901.366
 160  1963.646
 161  1727.668
 162  1627.639
 163  1668.531
 164  1845.748
 165  1927.823
 166  2067.177
 167  1944.555
 168  1737.282
 169  1659.302
 170  1623.469
 171  1694.865
 172  1721.779
 173  1693.723
 174  1692.551
 175  1498.564
 176  1496.617
 177  1424.355
 178  1448.544
 179  1555.478
 180  1585.575
 181  1600.003
 182  1584.44
 183  1636.861
 184  1758.867
 185  1687.279
 186  1648.73
 187  1626.101
 188  1740.342
 189  1788.583
 190  1703.147
 191  1627.172
 192  1497.649
 193  1497.822
 194  1561.525
 195  1650.901
 196  1767.418
 197  1800.032
 198  1924.482
 199  1876.154
 200  1823.54
 201  1814.33
 202  1930.583
 203  1905.417
 204  1810.508
 205  1622.46
 206  1561.541
 207  1626.696
 208  1751.956
 209  1902.306
 210  1886.711
 211  1889.263
 212  1805.425
 213  1813.642
 214  1716.153
 215  1711.529
 216  1758.408
 217  1758.389
 218  1761.474
 219  1618.701
 220  1552.414
 221  1462.846
 222  1492.278
 223  1616.15
 224  1677.285
 225  1678.664
 226  1751.54
 227  1853.668
 228  1923.25
 229  1828.757
 230  1770.949
 231  1856.77
 232  1842.683
 233  1831.163
 234  1819.625
 235  1986.067
 236  2026.388
 237  1911.361
 238  1817.368
 239  1829.941
 240  1868.468
 241  1767.147
 242  1747.592
 243  1691.539
 244  1680.938
 245  1692.094
 246  1872.363
 247  2029.134
 248  1852.874
 249  1635.431
 250  1583.172
 251  1775.245
 252  1918.054
 253  1950.979
 254  1808.54
 255  1704.515
 256  1601.7
 257  1651.996
 258  1702.771
 259  1617.116
 260  1513.8
 261  1543.644
 262  1564.36
 263  1593.862
 264  1674.8
 265  1861.931
 266  1867.161
 267  1871.618
 268  1954.182
 269  1892.229
 270  1861.648
 271  1797.215
 272  1697.666
 273  1618.863
 274  1485.184
 275  1609.615
 276  1599.846
 277  1780.445
 278  1813.364
 279  1879.385
 280  1893.404
 281  1832.687
 282  1950.143
 283  1927.546
 284  1879.648
 285  1741.819
 286  1829.663
 287  1913.321
 288  1871.624
 289  1758.53
 290  1756.084
 291  1794.516
 292  1819.448
 293  1776.614
 294  1803.148
 295  1822.857
 296  1793.999
 297  1745.438
 298  1850.821
 299  1942.215
 300  1992.115
 301  1872.996
 302  1811.625
 303  1777.714
 304  1722.593
 305  1612.149
 306  1548.828
 307  1535.377
 308  1626.249
 309  1671.928
 310  1732.175
 311  1684.685
 312  1656.588
 313  1703.706
 314  1696.71
 315  1641.369
 316  1477.567
 317  1548.854
 318  1564.811
 319  1579.411
 320  1551.268
 321  1580.099
 322  1643.242
 323  1678.919
 324  1531.84
 325  1494.669
 326  1442.749
 327  1546.181
 328  1589.948
 329  1690.361
 330  1781.894
 331  1783.543
 332  1701.874
 333  1643.213
 334  1742.199
 335  1716.991
 336  1738.765
 337  1799.255
 338  1764.062
 339  1772.072
 340  1842.238
 341  1924.874
 342  1845.074
 343  1698.954
 344  1788.007
 345  1868.421
 346  1854.262
 347  1834.591
 348  1867.172
 349  2088.4
 350  2198.533
 351  2221.344
 352  2008.932
 353  1802.621
 354  1687.948
 355  1623.231
 356  1614.054
 357  1579.091
 358  1747.294
 359  1799.666
 360  1730.162
 361  1664.612
 362  1549.408
 363  1496.601
 364  1490.652
 365  1736.068
 366  1761.315
 367  1758.931
 368  1556.435
 369  1574.464
 370  1520.899
 371  1486.976
 372  1434.338
 373  1508.995
 374  1596.253
 375  1608.467
 376  1643.387
 377  1533.591
 378  1400.272
 379  1404.564
 380  1500.32
 381  1598.011
 382  1467.624
 383  1587.996
 384  1635.082
 385  1660.786
 386  1673.682
 387  1513.035
 388  1449.187
 389  1393.305
 390  1521.023
 391  1500.11
 392  1409.822
 393  1334.483
 394  1458.95
 395  1686.654
 396  1685.235
 397  1623.482
 398  1620.666
 399  1720.603
 400  1649.194
 401  1697.28
 402  1625.354
 403  1611.362
 404  1639.528
 405  1656.485
 406  1725.029
 407  1641.173
 408  1733.76
 409  1816.817
 410  1990.462
 411  1949.25
 412  1807.484
 413  1741.38
 414  1640.046
 415  1647.629
 416  1671.819
 417  1707.24
 418  1757.338
 419  1696.077
 420  1710.18
 421  1565.909
 422  1620.524
 423  1669.374
 424  1701.353
 425  1514.321
 426  1464.422
 427  1449.442
 428  1513.231
 429  1558.441
 430  1580.058
 431  1588.481
 432  1587.966
 433  1472.22
 434  1415.471
 435  1362.463
 436  1426.228
 437  1369.418
 438  1266.164
 439  1267.19
 440  1284.805
 441  1279.319
 442  1534.479
 443  1668.99
 444  1782.091
 445  1749.398
 446  1690.989
 447  1765.089
 448  1721.07
 449  1740.021
 450  1757.247
 451  1821.071
 452  1859.266
 453  1787.218
 454  1780.689
 455  1825.833
 456  1742.7
 457  1678.252
 458  1626.573
 459  1537.937
 460  1562.33
 461  1616.013
 462  1792.704
 463  1834.901
 464  1835.471
 465  1851.638
 466  2013.372
 467  2072.95
 468  1949.469
 469  1786.871
 470  1560.058
 471  1505.167
 472  1595.742
 473  1648.971
 474  1602.707
 475  1560.408
 476  1651.828
 477  1747.126
 478  1721.558
 479  1776.807
 480  1748.921
 481  1742.635
 482  1842.134
 483  2059.789
 484  2135.124
 485  2107.933
 486  1959.824
 487  1841.9
 488  1686.176
 489  1683.489
 490  1714.06
 491  1593.545
 492  1468.315
 493  1438.953
 494  1528.022
 495  1619.48
 496  1675.486
 497  1912.972
 498  1835.366
 499  1930.205
 500  1919.062
 501  1955.907
 502  1888.284
 503  1766.337
 504  1889.364
 505  2048.506
 506  1992.409
 507  1764.533
 508  1630.818
 509  1602.961
 510  1688.994
 511  1633.154
 512  1554.49
 513  1606.129
 514  1703.382
 515  1777.954
 516  1754.694
 517  1736.348
 518  1784.27
 519  1875.429
 520  1875.533
 521  1877.763
 522  1867.61
 523  1885.237
 524  1881.571
 525  1760.673
 526  1815.087
 527  1917.202
 528  1848.786
 529  1855.794
 530  1812.558
 531  1734.552
 532  1696.79
 533  1667.51
 534  1761.245
 535  1786.967
 536  1716.561
 537  1750.162
 538  1769.755
 539  1823.904
 540  1778.445
 541  1867.207
 542  2018.739
 543  1921.828
 544  1663.783
 545  1538.567
 546  1668.538
 547  1836.185
 548  1888.228
 549  1844.738
 550  1703.595
 551  1776.289
 552  1795.124
 553  1796.86
 554  1745.858
 555  1664.977
 556  1737.739
 557  1823.289
 558  1944.044
 559  1855.243
 560  1863.601
 561  1689.346
 562  1750.362
 563  1788.02
 564  1946.149
 565  1931.037
 566  1891.414
 567  1944.742
 568  1871.956
 569  1934.748
 570  1966.508
 571  2025.154
 572  2036.282
 573  1987.556
 574  2017.16
 575  1902.359
 576  1762.083
 577  1708.344
 578  1829.965
 579  1909.594
 580  1925.363
 581  1835.405
 582  1847.17
 583  1884.066
 584  1897.339
 585  1700.852
 586  1650.098
 587  1527.199
 588  1635.773
 589  1710.567
 590  1798.224
 591  1691.998
 592  1748.524
 593  1783.918
 594  1791.809
 595  1745.413
 596  1924.448
 597  2290.451
 598  2511.24
 599  2615.428
 600  2550.422
 601  2507.519
 602  2420.883
 603  2085.99
 604  1856.812
 605  1602.248
 606  1539.625
 607  1581.604
 608  1480.021
 609  1467.208
 610  1424.009
 611  1528.786
 612  1568.982
 613  1532.691
 614  1477.956
 615  1515.761
 616  1565.69
 617  1658.002
 618  1629.43
 619  1673.214
 620  1711.879
 621  1694.567
 622  1690.405
 623  1670.099
 624  1661.31
 625  1623.234
 626  1526.643
 627  1625.693
 628  1656.714
 629  1700.82
 630  1769.517
 631  1863.641
 632  1865.456
 633  1788.83
 634  1713.487
 635  1685.033
 636  1580.26
 637  1637.627
 638  1774.326
 639  1851.989
 640  1778.921
 641  1637.743
 642  1649.291
 643  1646.782
 644  1575.212
 645  1524.997
 646  1442.307
 647  1476.942
 648  1570.762
 649  1629.23
 650  1721.201
 651  1631.569
 652  1651.192
 653  1582.036
 654  1700.782
 655  1766.992
 656  1802.749
 657  1632.889
 658  1532.508
 659  1444.464
 660  1437.014
 661  1379.089
 662  1473.659
 663  1584.796
 664  1660.893
 665  1586.951
 666  1694.606
 667  1727.278
 668  1689.572
 669  1543.719
 670  1618.412
 671  1587.755
 672  1530.324
 673  1461.547
 674  1602.581
 675  1707.296
 676  1674.245
 677  1632.112
 678  1611.87
 679  1713.561
 680  1730.025
 681  1824.469
 682  1748.188
 683  1572.106
 684  1433.843
 685  1447.888
 686  1630.916
 687  1690.243
 688  1711.459
 689  1685.32
 690  1577.359
 691  1525.828
 692  1449.095
 693  1461.209
 694  1417.603
 695  1576.821
 696  1779.632
 697  1872.929
 698  1864.256
 699  1838.702
 700  1652.51
 701  1514.37
 702  1457.039
 703  1498.352
 704  1368.914
 705  1332.502
 706  1442.353
 707  1599.212
 708  1620.67
 709  1425.751
 710  1369.277
 711  1429.252
 712  1599.947
 713  1640.766
 714  1670.76
 715  1522.323
 716  1392.841
 717  1416.687
 718  1519.096
 719  1575.39
 720  1516.3
 721  1407.686
 722  1498.191
 723  1513.198
 724  1603.947
 725  1527.901
 726  1635.99
 727  1738.934
 728  1864.572
 729  1784.205
 730  1675.611
 731  1800.371
 732  1856.219
 733  1913.504
 734  1738.964
 735  1685.598
 736  1572.121
 737  1472.154
 738  1396.962
 739  1562.193
 740  1731.219
 741  1823.475
 742  1782.232
 743  1780.309
 744  1848.363
 745  1841.776
 746  1920.024
 747  2010.656
 748  2035.801
 749  2013.058
 750  1972.872
 751  1826.989
 752  1874.581
 753  1827.018
 754  1826.771
 755  1804.251
 756  1932.527
 757  2001.511
 758  1894.352
 759  1892.463
 760  1738.988
 761  1847.996
 762  1948.603
 763  2067.002
 764  2060.523
 765  2055.987
 766  2096.909
 767  2018.179
 768  1981.315
 769  1940.611
 770  2018.82
 771  2004.52
 772  2068.353
 773  2056.82
 774  1964.808
 775  1868.445
 776  1791.789
 777  1917.281
 778  2067.5
 779  2038.288
 780  2117.299
 781  2068.217
 782  2068.566
 783  1958.176
 784  1910.208
 785  1934.365
 786  1992.056
 787  1967.447
 788  1838.567
 789  1786.072
 790  1786.784
 791  1863.59
 792  1765.741
 793  1711.782
 794  1767.969
 795  1909.047
 796  1853.316
 797  1824.414
 798  1832.379
 799  1902.88
 800  1738.267
 801  1716.88
 802  1825.08
 803  1808.916
 804  1748.62
 805  1623.786
 806  1641.336
 807  1627.626
 808  1512.307
 809  1569.162
 810  1669.695
 811  1679.257
 812  1580.395
 813  1593.82
 814  1656.76
 815  1692.882
 816  1621.531
 817  1641.916
 818  1688.063
 819  1688.246
 820  1604.011
 821  1527.1
 822  1701.687
 823  1757.95
 824  1876.867
 825  1708.543
 826  1747.7
 827  1733.031
 828  1736.534
 829  1776.903
 830  1828.343
 831  1993.961
 832  1967.617
 833  1819.245
 834  1784.087
 835  1679.748
 836  1736.208
 837  1798.399
 838  1834.993
 839  1721.533
 840  1487.112
 841  1451.135
 842  1448.921
 843  1574.384
 844  1692.964
 845  1724.201
 846  1785.39
 847  1711.397
 848  1771.643
 849  1727.635
 850  1706.115
 851  1624.112
 852  1620.342
 853  1703.45
 854  1773.031
 855  1608.737
 856  1509.258
 857  1505.045
 858  1555.393
 859  1606.277
 860  1505.417
 861  1540.269
 862  1464.039
 863  1361.908
 864  1389.358
 865  1563.277
 866  1760.427
 867  1710.974
 868  1627.04
 869  1660.387
 870  1804.313
 871  1761.932
 872  1715.302
 873  1621.314
 874  1717.689
 875  1680.806
 876  1675.95
 877  1762.391
 878  1873.116
 879  1984.067
 880  1957.392
 881  1931.003
 882  1847.346
 883  1789.133
 884  1765.147
 885  1740.628
 886  1782.803
 887  1891.06
 888  1941.505
 889  1947.057
 890  1837.398
 891  1706.422
 892  1672.6
 893  1736.971
 894  1815.997
 895  1781.76
 896  1849.657
 897  1913.626
 898  2002.571
 899  2038.408
 900  2020.854
 901  1921.354
 902  1928.983
 903  1951.959
 904  1830.356
 905  1712.592
 906  1585.932
 907  1497.432
 908  1521.828
 909  1654.477
 910  1705.329
 911  1646.638
 912  1688.9
 913  1702.076
 914  1723.057
 915  1652.43
 916  1636.481
 917  1617.101
 918  1515.738
 919  1560.837
 920  1573.684
 921  1736.529
 922  1671.098
 923  1540.892
 924  1458.454
 925  1430.195
 926  1534.632
 927  1540.576
 928  1635.731
 929  1688.966
 930  1864.155
 931  1772.023
 932  1755.559
 933  1599.724
 934  1614.891
 935  1592.113
 936  1769.647
 937  1920.793
 938  1901.164
 939  1818.011
 940  1891.995
 941  1889.305
 942  1812.921
 943  1664.389
 944  1752.189
 945  1870.98
 946  1933.714
 947  1898.929
 948  1748.703
 949  1622.89
 950  1734.383
 951  1935.989
 952  2016.861
 953  1973.798
 954  1928.936
 955  1972.165
 956  1813.191
 957  1623.444
 958  1545.358
 959  1705.458
 960  1772.901
 961  1733.125
 962  1794.089
 963  1962.987
 964  2048.633
 965  1862.792
 966  1710.507
 967  1665.538
 968  1734.453
 969  1835.769
 970  1747.602
 971  1670.485
 972  1573.797
 973  1562.44
 974  1686.042
 975  1624.484
 976  1623.154
 977  1616.557
 978  1675.06
 979  1709.833
 980  1621.193
 981  1526.534
 982  1612.04
 983  1606.685
 984  1625.058
 985  1593.307
 986  1708.803
 987  1795.133
 988  1705.235
 989  1594.263
 990  1523.962
 991  1665.239
 992  1840.579
 993  1738.061
 994  1667.231
 995  1669.023
 996  1832.687
 997  1742.341
 998  1674.126
 999  1697.984
1000  1735.389
1001  1851.968
1002  1811.534
1003  1818.745
1004  1790.065
1005  1698.608
1006  1744.964
1007  1765.552
1008  1747.54
1009  1667.703
1010  1557.835
1011  1693.26
1012  1800.95
1013  1936.056
1014  1770.946
1015  1694.552
1016  1711.992
1017  1752.444
1018  1842.091
1019  1971.858
1020  1944.538
1021  1755.783
1022  1631.762
1023  1690.793
