# Input file       =  1211513688.100121_cleaned.dat
# Candidate        =  PSR_0332+5434
# Telescope        =  AR
# Epoch_topo       =  58266.149387732883
# Epoch_bary       =  N/A
# T_sample         =  0.002
# Data Folded      =  7143424
# Data Avg         =  0.063706393754876
# Data StdDev      =  1.00015883139117 
# Profile Bins     =  512
# Profile Avg      =  888.833522351922 
# Profile StdDev   =  118.137345420963 
# Reduced chi-sqr  =  1.635
# Prob(Noise)      <  4.92e-18   (~8.6 sigma)
# P_topo (ms)      =  714.520685819475  +/- 8.89e-05
# P'_topo (s/s)    =  -0                +/- 4.82e-11
# P''_topo (s/s^2) =  0                 +/- 2.19e-14
# P_bary (ms)      =  N/A
# P'_bary (s/s)    =  N/A
# P''_bary (s/s^2) =  N/A
# P_orb (s)        =  N/A
# asin(i)/c (s)    =  N/A
# eccentricity     =  N/A
# w (rad)          =  N/A
# T_peri           =  N/A
######################################################
   0  1573.399
   1  1615.434
   2  1323.062
   3  1027.592
   4  902.6213
   5  890.962
   6  834.9993
   7  864.6387
   8  904.8151
   9  961.3459
  10  967.2701
  11  875.3488
  12  849.4608
  13  911.1232
  14  970.7232
  15  964.7722
  16  965.025
  17  874.3181
  18  929.9666
  19  940.2618
  20  734.015
  21  765.3938
  22  911.8185
  23  898.91
  24  920.1182
  25  901.6227
  26  975.0513
  27  974.8522
  28  863.0702
  29  772.8502
  30  716.3901
  31  859.2545
  32  996.2659
  33  994.2836
  34  1031.986
  35  1112.991
  36  980.5263
  37  913.6816
  38  977.0475
  39  1022.903
  40  1001.757
  41  975.8703
  42  1108.486
  43  1001.865
  44  1038.791
  45  866.4247
  46  893.4355
  47  872.2827
  48  1058.554
  49  1051.885
  50  907.84
  51  942.3462
  52  927.0892
  53  956.4664
  54  950.4259
  55  934.1155
  56  969.4267
  57  916.7464
  58  921.867
  59  878.7535
  60  960.1863
  61  915.2094
  62  861.7448
  63  879.5037
  64  834.9794
  65  821.1401
  66  907.6703
  67  933.9477
  68  917.3714
  69  967.7746
  70  910.1932
  71  910.2387
  72  1026.764
  73  976.4063
  74  998.3427
  75  1003.172
  76  968.1785
  77  937.9874
  78  934.1035
  79  926.0983
  80  800.5505
  81  811.5939
  82  936.0875
  83  1024.792
  84  965.4682
  85  1001.527
  86  1028.335
  87  1086.447
  88  986.3375
  89  874.1428
  90  921.8464
  91  1056.944
  92  971.9248
  93  956.9719
  94  909.1436
  95  883.3832
  96  946.7286
  97  928.7344
  98  880.6826
  99  867.2919
 100  1065.377
 101  1004.943
 102  827.9623
 103  977.5178
 104  1055.054
 105  1070.14
 106  1026.844
 107  1007.217
 108  952.8862
 109  1083.751
 110  947.2076
 111  916.6189
 112  884.1935
 113  963.1414
 114  1033.53
 115  943.6157
 116  1060.281
 117  1037.363
 118  1115.984
 119  901.2695
 120  824.818
 121  944.1077
 122  932.3508
 123  913.147
 124  993.6959
 125  925.5999
 126  856.3774
 127  940.106
 128  974.2376
 129  876.9966
 130  862.0706
 131  920.0767
 132  939.6887
 133  1029.978
 134  919.2924
 135  851.2684
 136  923.6743
 137  1094.878
 138  991.3611
 139  946.2149
 140  906.0709
 141  833.3213
 142  934.1356
 143  1054.708
 144  937.801
 145  1002.157
 146  933.1815
 147  1026.01
 148  938.8346
 149  955.8504
 150  976.3556
 151  950.1664
 152  937.7875
 153  1072.384
 154  1056.545
 155  1041.57
 156  855.109
 157  961.8522
 158  1083.621
 159  1081.716
 160  1032.11
 161  1014.085
 162  1009.016
 163  872.1403
 164  852.1491
 165  925.7115
 166  937.6346
 167  961.1382
 168  1026.601
 169  889.869
 170  834.7493
 171  859.6263
 172  941.933
 173  933.7999
 174  1044.737
 175  905.3148
 176  994.1918
 177  967.3707
 178  830.7291
 179  816.9208
 180  929.1124
 181  1040.984
 182  1019.661
 183  968.3426
 184  919.2451
 185  910.4579
 186  908.2172
 187  838.3391
 188  911.1604
 189  1022.878
 190  924.1871
 191  922.9595
 192  921.0885
 193  906.8342
 194  854.1284
 195  812.0101
 196  904.1418
 197  834.2637
 198  884.7633
 199  976.208
 200  1128.613
 201  989.3706
 202  981.7025
 203  947.959
 204  892.1464
 205  891.409
 206  823.9359
 207  840.864
 208  887.0228
 209  843.4335
 210  921.6779
 211  931.5837
 212  898.876
 213  825.062
 214  847.2711
 215  927.9987
 216  975.7904
 217  894.7048
 218  910.1432
 219  965.2937
 220  835.6908
 221  858.5084
 222  940.0707
 223  939.1301
 224  1059.644
 225  979.6473
 226  906.7059
 227  892.2646
 228  831.7529
 229  865.6774
 230  850.3795
 231  843.472
 232  940.1679
 233  807.877
 234  859.3293
 235  911.0331
 236  949.8804
 237  967.2099
 238  796.7076
 239  757.5985
 240  889.5453
 241  845.1282
 242  858.183
 243  699.7717
 244  687.1683
 245  747.3474
 246  837.0317
 247  958.3118
 248  853.5132
 249  832.7651
 250  1006.497
 251  878.9857
 252  706.2612
 253  801.6586
 254  938.6948
 255  1000.657
 256  895.2921
 257  856.3914
 258  905.2275
 259  856.2545
 260  730.8477
 261  695.1566
 262  810.5381
 263  785.575
 264  751.4899
 265  779.7903
 266  793.484
 267  657.2875
 268  766.8
 269  908.4476
 270  926.0225
 271  786.7682
 272  941.1631
 273  986.7332
 274  814.6547
 275  765.3709
 276  796.2474
 277  722.5594
 278  768.8226
 279  876.667
 280  946.7773
 281  930.1329
 282  938.0538
 283  893.2306
 284  775.8981
 285  848.8216
 286  860.3349
 287  745.1493
 288  748.2964
 289  857.3182
 290  855.5791
 291  921.993
 292  862.3585
 293  806.9268
 294  725.7982
 295  860.5825
 296  788.058
 297  843.5785
 298  916.0745
 299  815.6516
 300  876.5676
 301  947.3049
 302  893.1947
 303  899.8833
 304  768.7623
 305  934.177
 306  937.1504
 307  895.4684
 308  796.329
 309  762.391
 310  773.8242
 311  811.9934
 312  816.0137
 313  858.2197
 314  858.9003
 315  839.5224
 316  764.8459
 317  687.8863
 318  732.1426
 319  729.5275
 320  753.1746
 321  838.5831
 322  817.1907
 323  784.6108
 324  817.215
 325  810.5247
 326  715.6708
 327  683.1458
 328  787.6949
 329  810.0479
 330  828.4333
 331  918.3703
 332  967.1468
 333  780.265
 334  782.4792
 335  803.6093
 336  818.0837
 337  840.6108
 338  859.9463
 339  807.9628
 340  701.8508
 341  848.002
 342  818.2234
 343  752.2922
 344  779.751
 345  786.4792
 346  834.3098
 347  810.4303
 348  921.3198
 349  1016.452
 350  903.713
 351  764.7256
 352  877.8511
 353  909.192
 354  997.7399
 355  1047.263
 356  1013.318
 357  772.3286
 358  828.8587
 359  778.483
 360  804.882
 361  791.3268
 362  728.9262
 363  803.29
 364  804.2665
 365  942.4287
 366  874.3347
 367  799.7762
 368  833.4932
 369  831.2346
 370  713.4143
 371  795.4977
 372  894.143
 373  994.9545
 374  953.5707
 375  812.8348
 376  818.2811
 377  792.4971
 378  871.4878
 379  788.3165
 380  777.4769
 381  815.189
 382  847.8423
 383  744.8064
 384  753.2678
 385  891.3086
 386  758.6321
 387  816.5752
 388  911.3867
 389  895.7502
 390  913.3265
 391  923.9799
 392  829.6559
 393  794.0779
 394  891.7548
 395  920.5673
 396  735.8689
 397  875.7591
 398  954.67
 399  908.1934
 400  832.5427
 401  720.6816
 402  850.0347
 403  790.3699
 404  740.1115
 405  769.1753
 406  802.6024
 407  819.801
 408  758.5628
 409  751.7619
 410  754.955
 411  769.2733
 412  756.9539
 413  898.562
 414  847.9765
 415  909.857
 416  906.9398
 417  792.2629
 418  872.899
 419  846.0331
 420  887.746
 421  896.2233
 422  1009.758
 423  1036.13
 424  889.3408
 425  883.459
 426  821.9628
 427  896.5441
 428  871.4103
 429  852.2392
 430  905.8544
 431  951.3445
 432  894.8387
 433  792.8849
 434  830.6202
 435  839.8585
 436  754.6552
 437  929.6496
 438  893.7306
 439  768.6151
 440  768.7344
 441  757.5855
 442  686.4839
 443  658.829
 444  698.1953
 445  722.7007
 446  764.3059
 447  796.39
 448  752.0098
 449  755.7427
 450  862.4282
 451  858.7563
 452  712.9247
 453  816.0579
 454  851.3921
 455  825.4474
 456  866.0223
 457  701.6351
 458  673.1287
 459  757.5276
 460  705.8801
 461  772.1954
 462  839.5302
 463  922.3871
 464  958.3441
 465  771.5713
 466  720.5593
 467  786.9753
 468  731.0115
 469  782.412
 470  894.2303
 471  945.4303
 472  898.6129
 473  877.7181
 474  805.2336
 475  751.2103
 476  697.2704
 477  694.0512
 478  688.3041
 479  842.8766
 480  997.3991
 481  947.476
 482  776.9045
 483  877.155
 484  879.2343
 485  901.9359
 486  1029.603
 487  910.5511
 488  870.5217
 489  843.1582
 490  826.4083
 491  886.6953
 492  840.0663
 493  835.6852
 494  879.7347
 495  851.2449
 496  884.9169
 497  795.7484
 498  774.0966
 499  907.6142
 500  929.7419
 501  1004.131
 502  947.7787
 503  910.2214
 504  912.9406
 505  906.2059
 506  890.4282
 507  959.7503
 508  1033.822
 509  1174.618
 510  1304.527
 511  1456.928
