# Input file       =  1211457068.105972_cleaned.dat
# Candidate        =  PSR_0332+5434
# Telescope        =  AR
# Epoch_topo       =  58265.494063726532
# Epoch_bary       =  N/A
# T_sample         =  0.002
# Data Folded      =  7340032
# Data Avg         =  0.0367703838698173
# Data StdDev      =  1.00010242057708 
# Profile Bins     =  512
# Profile Avg      =  527.158475001504 
# Profile StdDev   =  119.745299503447 
# Reduced chi-sqr  =  1.092
# Prob(Noise)      <  0.0732   (~1.5 sigma)
# P_topo (ms)      =  714.521675372993  +/- 0.000381
# P'_topo (s/s)    =  -0                +/- 2.01e-10
# P''_topo (s/s^2) =  0                 +/- 8.87e-14
# P_bary (ms)      =  N/A
# P'_bary (s/s)    =  N/A
# P''_bary (s/s^2) =  N/A
# P_orb (s)        =  N/A
# asin(i)/c (s)    =  N/A
# eccentricity     =  N/A
# w (rad)          =  N/A
# T_peri           =  N/A
######################################################
   0  418.2872
   1  348.3507
   2  460.4612
   3  496.7449
   4  473.0595
   5  498.4134
   6  493.1157
   7  402.9334
   8  383.6661
   9  426.0106
  10  422.5724
  11  445.2394
  12  470.6665
  13  498.6318
  14  468.6979
  15  521.7104
  16  515.2415
  17  394.2661
  18  460.5038
  19  636.4293
  20  561.5533
  21  422.0567
  22  423.9892
  23  465.8193
  24  523.1996
  25  462.7422
  26  421.4551
  27  504.5031
  28  473.2665
  29  556.0158
  30  609.2605
  31  565.83
  32  502.6203
  33  448.6529
  34  469.5441
  35  540.1154
  36  484.0508
  37  558.2733
  38  555.5129
  39  530.5413
  40  483.2657
  41  576.0953
  42  510.6642
  43  619.712
  44  626.4029
  45  547.2717
  46  528.5046
  47  435.1794
  48  512.0818
  49  590.7701
  50  473.722
  51  444.3098
  52  380.8859
  53  417.9162
  54  469.9452
  55  340.2452
  56  470.782
  57  531.9857
  58  474.9234
  59  470.1148
  60  453.8471
  61  452.9529
  62  549.0479
  63  555.635
  64  505.7408
  65  475.135
  66  479.4914
  67  474.1121
  68  605.2453
  69  651.0847
  70  440.6138
  71  384.8755
  72  432.8635
  73  444.1114
  74  524.8134
  75  511.584
  76  553.147
  77  465.4484
  78  391.4458
  79  393.6992
  80  415.3214
  81  587.2647
  82  536.6244
  83  352.2921
  84  379.111
  85  512.0289
  86  557.454
  87  491.8138
  88  376.4161
  89  495.5666
  90  570.1613
  91  530.4721
  92  569.5089
  93  525.2167
  94  481.9673
  95  504.192
  96  528.7284
  97  416.2354
  98  438.7238
  99  460.734
 100  454.3517
 101  483.6239
 102  468.2282
 103  488.5641
 104  451.519
 105  378.9407
 106  409.0452
 107  385.8677
 108  521.1797
 109  411.5421
 110  379.5143
 111  415.4873
 112  439.4999
 113  442.7745
 114  438.8906
 115  452.3146
 116  510.8058
 117  546.0826
 118  527.2995
 119  544.3704
 120  508.4042
 121  474.51
 122  457.2259
 123  462.7644
 124  503.0629
 125  564.8411
 126  602.7899
 127  647.025
 128  622.2548
 129  629.713
 130  524.1286
 131  599.7125
 132  603.0043
 133  539.8767
 134  434.1481
 135  479.6922
 136  516.0188
 137  517.926
 138  497.4473
 139  552.9394
 140  517.7251
 141  510.3189
 142  516.6149
 143  484.2464
 144  501.3767
 145  505.0804
 146  524.7845
 147  421.1958
 148  407.586
 149  500.7772
 150  547.6425
 151  451.0034
 152  564.5127
 153  583.1225
 154  605.5363
 155  568.2774
 156  491.5008
 157  553.8751
 158  601.3417
 159  488.3517
 160  495.8026
 161  458.5921
 162  452.9039
 163  499.013
 164  551.6863
 165  541.2469
 166  405.0602
 167  583.6799
 168  634.4871
 169  595.326
 170  551.3501
 171  486.3722
 172  505.3175
 173  540.2518
 174  607.5695
 175  553.7762
 176  512.4951
 177  517.338
 178  527.8217
 179  630.1381
 180  474.0409
 181  356.4908
 182  407.7947
 183  466.0228
 184  451.7679
 185  381.1873
 186  374.7966
 187  355.9706
 188  341.3105
 189  365.5424
 190  338.814
 191  457.2451
 192  532.3423
 193  547.789
 194  562.5078
 195  529.9841
 196  477.9931
 197  491.9161
 198  508.0202
 199  490.8665
 200  468.0887
 201  405.0115
 202  461.0338
 203  431.7079
 204  539.031
 205  420.8828
 206  441.8281
 207  421.1198
 208  557.5328
 209  605.9847
 210  485.1513
 211  575.0887
 212  557.7986
 213  605.5793
 214  595.0954
 215  505.4572
 216  619.7723
 217  633.4156
 218  540.4796
 219  510.271
 220  612.7168
 221  587.2611
 222  624.9309
 223  561.0674
 224  555.3262
 225  616.8895
 226  706.6592
 227  718.5364
 228  671.9872
 229  668.1964
 230  611.563
 231  681.3603
 232  605.593
 233  522.601
 234  499.4631
 235  591.7059
 236  578.0528
 237  667.1623
 238  702.7311
 239  629.8373
 240  600.8366
 241  597.6603
 242  591.8972
 243  569.7991
 244  454.5757
 245  530.5258
 246  623.0732
 247  630.9269
 248  646.9213
 249  470.4392
 250  490.88
 251  503.1031
 252  577.2686
 253  574.239
 254  638.9877
 255  604.0451
 256  631.9471
 257  581.0615
 258  509.3172
 259  529.188
 260  545.6385
 261  517.6702
 262  523.9125
 263  488.4939
 264  508.009
 265  534.71
 266  540.7719
 267  488.4068
 268  473.523
 269  526.4705
 270  520.4597
 271  527.5422
 272  562.6918
 273  514.9203
 274  594.7334
 275  529.4473
 276  450.9462
 277  457.8154
 278  541.5969
 279  476.2951
 280  435.1728
 281  433.1476
 282  306.5338
 283  341.2946
 284  465.1958
 285  523.3751
 286  416.6089
 287  456.6132
 288  327.2334
 289  413.5884
 290  384.1978
 291  430.9716
 292  470.1533
 293  400.9899
 294  498.8204
 295  450.9863
 296  489.2678
 297  621.3365
 298  574.3674
 299  561.0917
 300  557.6569
 301  538.6282
 302  565.9116
 303  364.4197
 304  400.4196
 305  494.7686
 306  499.1906
 307  536.4747
 308  467.4922
 309  533.9224
 310  608.7121
 311  632.2013
 312  673.1179
 313  513.1967
 314  475.2099
 315  488.3923
 316  550.595
 317  551.2975
 318  566.7681
 319  551.928
 320  531.9729
 321  576.9264
 322  626.3422
 323  590.9782
 324  578.371
 325  612.3171
 326  607.7256
 327  595.1506
 328  566.6677
 329  458.8104
 330  517.4323
 331  676.7451
 332  600.0536
 333  584.0456
 334  529.1267
 335  490.8334
 336  585.5253
 337  606.5359
 338  674.4575
 339  545.3965
 340  601.0609
 341  625.4017
 342  549.2123
 343  583.265
 344  692.8348
 345  645.6779
 346  644.6119
 347  630.651
 348  571.9637
 349  608.3541
 350  524.473
 351  527.5959
 352  590.5645
 353  578.3528
 354  590.0451
 355  582.611
 356  487.3164
 357  519.8548
 358  625.0172
 359  526.5287
 360  488.9894
 361  519.8026
 362  478.0043
 363  522.6118
 364  541.9786
 365  552.833
 366  524.6718
 367  363.9989
 368  292.9504
 369  398.6245
 370  525.1185
 371  436.2434
 372  535.8018
 373  599.7691
 374  622.8709
 375  543.2889
 376  513.1392
 377  591.218
 378  603.6152
 379  525.1464
 380  571.7217
 381  529.5299
 382  525.2977
 383  543.9785
 384  492.9617
 385  464.713
 386  491.2951
 387  567.5336
 388  646.5994
 389  636.662
 390  655.8976
 391  545.9123
 392  493.0202
 393  432.562
 394  492.233
 395  585.7851
 396  540.45
 397  610.4329
 398  559.7904
 399  503.4495
 400  631.4888
 401  584.4957
 402  510.731
 403  440.3732
 404  403.5808
 405  412.9281
 406  602.0976
 407  570.238
 408  476.3418
 409  526.5476
 410  570.0125
 411  531.8128
 412  496.0065
 413  525.1348
 414  504.9901
 415  517.4529
 416  675.5732
 417  654.0588
 418  473.4857
 419  372.9506
 420  444.5444
 421  546.0602
 422  593.8585
 423  653.0715
 424  607.0128
 425  535.6745
 426  513.4089
 427  557.0254
 428  575.2681
 429  600.4937
 430  610.4318
 431  574.0616
 432  574.9095
 433  536.1936
 434  602.5125
 435  610.9938
 436  622.9536
 437  593.6934
 438  520.4352
 439  563.3736
 440  490.7935
 441  472.0116
 442  464.3157
 443  503.5215
 444  405.1366
 445  361.1755
 446  500.938
 447  483.4167
 448  417.7266
 449  460.7923
 450  429.1802
 451  422.1584
 452  416.1661
 453  366.7714
 454  485.6371
 455  486.2979
 456  534.1685
 457  548.9429
 458  562.0651
 459  658.2997
 460  540.8032
 461  474.0166
 462  564.5671
 463  620.0693
 464  672.4654
 465  574.193
 466  500.0393
 467  602.7509
 468  656.1937
 469  527.7702
 470  581.468
 471  577.6979
 472  668.0361
 473  645.1624
 474  615.8078
 475  673.6305
 476  636.8416
 477  625.2335
 478  545.7115
 479  412.2674
 480  633.9191
 481  618.0344
 482  473.4584
 483  487.0361
 484  482.0772
 485  358.1354
 486  475.6057
 487  588.4728
 488  631.2943
 489  557.0645
 490  492.3227
 491  524.798
 492  496.3387
 493  443.9355
 494  520.3613
 495  566.4318
 496  677.2433
 497  601.7532
 498  536.796
 499  632.2856
 500  727.5656
 501  797.0292
 502  949.9863
 503  1032.681
 504  1119.158
 505  956.1666
 506  755.8627
 507  625.8898
 508  537.1476
 509  530.6559
 510  582.2144
 511  527.2256
