# Input file       =  1211959054.109565_cleaned.dat
# Candidate        =  PSR_0332+5434
# Telescope        =  AR
# Epoch_topo       =  58271.304086916265
# Epoch_bary       =  N/A
# T_sample         =  0.002
# Data Folded      =  7340032
# Data Avg         =  0.0837414732034501
# Data StdDev      =  2.96252228764842 
# Profile Bins     =  512
# Profile Avg      =  1200.4816268599  
# Profile StdDev   =  354.711788833989 
# Reduced chi-sqr  =  1.323
# Prob(Noise)      <  1.19e-06   (~4.7 sigma)
# P_topo (ms)      =  714.515673388696  +/- 0.000541
# P'_topo (s/s)    =  -0                +/- 2.86e-10
# P''_topo (s/s^2) =  0                 +/- 1.26e-13
# P_bary (ms)      =  N/A
# P'_bary (s/s)    =  N/A
# P''_bary (s/s^2) =  N/A
# P_orb (s)        =  N/A
# asin(i)/c (s)    =  N/A
# eccentricity     =  N/A
# w (rad)          =  N/A
# T_peri           =  N/A
######################################################
   0  1074.834
   1  1240.492
   2  1163.162
   3  867.6804
   4  999.3824
   5  925.4927
   6  1117.723
   7  1314.799
   8  1361.734
   9  1542.389
  10  1305.211
  11  1046.482
  12  1082.375
  13  1308.873
  14  1400.565
  15  1436.681
  16  1327.399
  17  1226.396
  18  1141.129
  19  915.4984
  20  1126.736
  21  1118.253
  22  1106.912
  23  1377.932
  24  1458.768
  25  1136.453
  26  1262.849
  27  1140.041
  28  1101.646
  29  1196.435
  30  819.3032
  31  780.8554
  32  1132.464
  33  1492.688
  34  1323.104
  35  1277.985
  36  1619.156
  37  1373.623
  38  1248.927
  39  1174.318
  40  1338.33
  41  1497.967
  42  1156.795
  43  1120.369
  44  1092.306
  45  1250.403
  46  1053.902
  47  779.8944
  48  690.3488
  49  831.5739
  50  990.6129
  51  1030.079
  52  858.3188
  53  773.5702
  54  795.2292
  55  1056.301
  56  1083.392
  57  1345.469
  58  1049.635
  59  1145.924
  60  1213.662
  61  1206.395
  62  1304.85
  63  1355.419
  64  1085.889
  65  984.2264
  66  1131.039
  67  974.8295
  68  1187.562
  69  1421.436
  70  1309.377
  71  1253.068
  72  1081.778
  73  1517.031
  74  1136.909
  75  907.9394
  76  1082.302
  77  866.6243
  78  1073.87
  79  1229.879
  80  1263.14
  81  1246.743
  82  939.5047
  83  626.2291
  84  830.2299
  85  1181.954
  86  1203.957
  87  924.8915
  88  989.7238
  89  1098.95
  90  1005.704
  91  1021.916
  92  777.7407
  93  539.0773
  94  1082.433
  95  1226.267
  96  845.2482
  97  783.2444
  98  626.7373
  99  521.0284
 100  704.1025
 101  1074.028
 102  1022.284
 103  934.1308
 104  868.4495
 105  1142.697
 106  912.2356
 107  998.8637
 108  879.9755
 109  942.3831
 110  984.5906
 111  1207.528
 112  1092.431
 113  1076.54
 114  1219.275
 115  994.9196
 116  1032.804
 117  1119.674
 118  1302.784
 119  1405.368
 120  1120.049
 121  939.9735
 122  1068.115
 123  1029.647
 124  1334.877
 125  1451.68
 126  1589.436
 127  1199.553
 128  1161.545
 129  1267.79
 130  1145.461
 131  880.8093
 132  964.6942
 133  887.6622
 134  977.976
 135  861.062
 136  941.2563
 137  900.7466
 138  1154.912
 139  985.8007
 140  1153.395
 141  1228.12
 142  1305.561
 143  1252.422
 144  1241.541
 145  1456.31
 146  1318.648
 147  1485.14
 148  1575.885
 149  1558.058
 150  1547.431
 151  1343.286
 152  1314.558
 153  1195.416
 154  1399.526
 155  1540.64
 156  1446.337
 157  1401.227
 158  1284.815
 159  908.5319
 160  1017.969
 161  991.1497
 162  1068.181
 163  1009.245
 164  859.8807
 165  1058.28
 166  1290.317
 167  980.3857
 168  982.8922
 169  1221.139
 170  1137.01
 171  742.05
 172  920.694
 173  1168.454
 174  1025.985
 175  773.5063
 176  784.2501
 177  1072.056
 178  1342.866
 179  1084.842
 180  1041.642
 181  1408.095
 182  1579.408
 183  1376.942
 184  965.0203
 185  1039.566
 186  1213.64
 187  1125.249
 188  1068.43
 189  622.661
 190  942.2268
 191  1273.372
 192  1087.824
 193  1248.988
 194  1193.209
 195  1188.822
 196  991.314
 197  1053.382
 198  1198.431
 199  1019.588
 200  958.5707
 201  1115.916
 202  1177.815
 203  1268.875
 204  1186.689
 205  1288.93
 206  1432.72
 207  1234.522
 208  1162.783
 209  1139.961
 210  1062.963
 211  1070.024
 212  1078.455
 213  1031.028
 214  1088.497
 215  1221.719
 216  1031.819
 217  937.8737
 218  1089.009
 219  1373.896
 220  1284.858
 221  1538.789
 222  1512.982
 223  1344.867
 224  1470.022
 225  1253.399
 226  1421.234
 227  1270.67
 228  1241.53
 229  1126.721
 230  1379.417
 231  1424.878
 232  1500.889
 233  1279.738
 234  1432.479
 235  1624.974
 236  1598.212
 237  1441.62
 238  1197.361
 239  1444.271
 240  1299.04
 241  1183.185
 242  1402.172
 243  1443.068
 244  1500.051
 245  1229.754
 246  969.5916
 247  722.0694
 248  811.407
 249  1144.684
 250  1343.193
 251  1502.451
 252  1536.991
 253  1410.441
 254  1082.799
 255  960.5554
 256  1030.545
 257  1255.857
 258  889.657
 259  1056.374
 260  1287.288
 261  1150.808
 262  1138.363
 263  1005.573
 264  684.3188
 265  812.6663
 266  900.0695
 267  1008.309
 268  1004.74
 269  1028.092
 270  1098.624
 271  809.3029
 272  1129.608
 273  1268.489
 274  1540.668
 275  1508.081
 276  1273.932
 277  1237.05
 278  1408.525
 279  1407.972
 280  1304.812
 281  1236.901
 282  1098.552
 283  926.4048
 284  1140.114
 285  1260.376
 286  1024.271
 287  1081.909
 288  1066.762
 289  1328.089
 290  1249.491
 291  1367.43
 292  1251.68
 293  1396.898
 294  1218.632
 295  802.757
 296  793.4728
 297  1136.087
 298  1215.61
 299  1130.072
 300  1139.452
 301  1135.109
 302  750.4777
 303  701.7166
 304  1138.16
 305  1382.84
 306  1053.531
 307  1088.457
 308  1367.817
 309  1379.552
 310  1705.81
 311  1318.739
 312  976.2626
 313  1069.23
 314  1251.573
 315  1357.181
 316  1467.985
 317  1225.559
 318  971.8985
 319  1013.033
 320  1233.244
 321  1528.542
 322  1465.324
 323  1125.885
 324  1187.315
 325  1195.867
 326  1028.688
 327  1364.379
 328  1172.969
 329  1016.076
 330  805.8245
 331  1132.849
 332  1304.46
 333  925.2529
 334  1075.697
 335  1188.307
 336  1017.929
 337  880.034
 338  964.0449
 339  1007.41
 340  952.4247
 341  849.8561
 342  958.6734
 343  1043.317
 344  1131.437
 345  1180.104
 346  897.2024
 347  987.4919
 348  1236.858
 349  1064.337
 350  829.7679
 351  1058.468
 352  1094.724
 353  1092.923
 354  1336.305
 355  1234.279
 356  1247.001
 357  1226.726
 358  1086.035
 359  1488.28
 360  1244.272
 361  878.0282
 362  1020.721
 363  1428.51
 364  1312.954
 365  1093.735
 366  1129.007
 367  1487.922
 368  1067.474
 369  839.313
 370  1183.544
 371  984.4526
 372  426.3952
 373  959.0224
 374  1288.575
 375  1445.51
 376  1342.782
 377  1209.701
 378  1039.522
 379  880.36
 380  861.4594
 381  769.1304
 382  949.5734
 383  1057.275
 384  954.616
 385  889.2496
 386  1288.14
 387  1344.604
 388  1279.074
 389  1146.747
 390  1164.722
 391  1048.342
 392  1009.475
 393  1061.88
 394  1017.76
 395  947.6284
 396  1053.93
 397  1090.81
 398  1477.291
 399  1418.211
 400  1221.432
 401  1295.97
 402  1318.228
 403  1306.398
 404  1393.765
 405  1613.029
 406  1554.312
 407  1476.058
 408  1512.887
 409  1473.962
 410  1323.745
 411  1269.382
 412  1268.731
 413  1271.04
 414  1361.171
 415  1509.628
 416  1305.821
 417  1481.158
 418  1736.382
 419  1528.57
 420  1415.06
 421  1351.734
 422  1555.945
 423  1369.893
 424  1230.336
 425  1596.853
 426  1868.848
 427  1872.984
 428  1950.59
 429  2105.021
 430  2424.252
 431  2836.264
 432  3097.144
 433  2991.022
 434  2918.694
 435  2486.257
 436  1837.384
 437  1984.89
 438  1688.582
 439  1334.946
 440  1106.866
 441  1390.183
 442  1504.352
 443  1471.806
 444  1550.417
 445  1504.193
 446  1649.16
 447  1909.708
 448  1729.875
 449  1710.238
 450  1679.401
 451  1535.871
 452  1369.946
 453  1265.239
 454  1384.125
 455  1292.406
 456  1625.539
 457  1278.825
 458  973.0968
 459  1076.748
 460  1320.571
 461  1240.034
 462  840.4665
 463  986.2106
 464  1453.151
 465  1062.18
 466  867.563
 467  1013.319
 468  900.8305
 469  781.5182
 470  1009.948
 471  1204.436
 472  1034
 473  925.7477
 474  1018.099
 475  964.2279
 476  862.917
 477  1200.775
 478  1383.443
 479  1442.261
 480  1228.711
 481  1396.727
 482  1331.575
 483  1239.572
 484  1126.083
 485  1287.992
 486  1481.375
 487  1068.886
 488  1188.6
 489  1250.729
 490  1619.941
 491  1647.023
 492  1590.063
 493  1091.081
 494  904.4228
 495  1263.071
 496  1436.054
 497  1324.764
 498  1272.858
 499  1228.976
 500  1122.105
 501  949.748
 502  1046.595
 503  1074.045
 504  1192.065
 505  1125.546
 506  1226.125
 507  1155.199
 508  1062.753
 509  1200.966
 510  1347.63
 511  1087.287
