# Input file       =  1211872896.115322_cleaned.dat
# Candidate        =  PSR_0332+5434
# Telescope        =  AR
# Epoch_topo       =  58270.306887908824
# Epoch_bary       =  N/A
# T_sample         =  0.002
# Data Folded      =  7340032
# Data Avg         =  0.42110538054839 
# Data StdDev      =  13.1090828786326 
# Profile Bins     =  512
# Profile Avg      =  6036.96170621985 
# Profile StdDev   =  1569.59029717336 
# Reduced chi-sqr  =  1.180
# Prob(Noise)      <  0.00307   (~2.7 sigma)
# P_topo (ms)      =  714.516643212001  +/- 0.000102
# P'_topo (s/s)    =  -0                +/- 5.37e-11
# P''_topo (s/s^2) =  0                 +/- 2.37e-14
# P_bary (ms)      =  N/A
# P'_bary (s/s)    =  N/A
# P''_bary (s/s^2) =  N/A
# P_orb (s)        =  N/A
# asin(i)/c (s)    =  N/A
# eccentricity     =  N/A
# w (rad)          =  N/A
# T_peri           =  N/A
######################################################
   0  5210.062
   1  6025.888
   2  6657.007
   3  4969.253
   4  5588.437
   5  7054.746
   6  7034.557
   7  6849.173
   8  6722.239
   9  5784.663
  10  5269.952
  11  5285.548
  12  5163.835
  13  5213.044
  14  5620.636
  15  6887.758
  16  6920.17
  17  6008.237
  18  6800.441
  19  5778.309
  20  5137.716
  21  6108.72
  22  6896.079
  23  4706.265
  24  4115.854
  25  4860.905
  26  6271.003
  27  7275.011
  28  8168.609
  29  7429.739
  30  5994.924
  31  4477.568
  32  6020.855
  33  7509.238
  34  6634.134
  35  4220.625
  36  4034.824
  37  3978.453
  38  5254.659
  39  5651.896
  40  5225.246
  41  4776.998
  42  5075.207
  43  3398.049
  44  5008.281
  45  6441.92
  46  7064.188
  47  6630.281
  48  5581.769
  49  4607.16
  50  4093.299
  51  5943.999
  52  10231.53
  53  8242.771
  54  7057.862
  55  6985.548
  56  5873.933
  57  6397.268
  58  7001.243
  59  8207.797
  60  6061.28
  61  5637.98
  62  6676.945
  63  6708.936
  64  4419.844
  65  4919.999
  66  4864.51
  67  5220.181
  68  5942.857
  69  5407.64
  70  4206.562
  71  5502.733
  72  7309.578
  73  6184.056
  74  6989.161
  75  5281.09
  76  3217.647
  77  4158.82
  78  6690.455
  79  6968.961
  80  6498.142
  81  5918.791
  82  4861.348
  83  5196.415
  84  6670.093
  85  6410.547
  86  5672.771
  87  5933.329
  88  6653.761
  89  5506.614
  90  6595.84
  91  5727.648
  92  6814.679
  93  6680.808
  94  8298.883
  95  7142.75
  96  5908.436
  97  6194.7
  98  7731.25
  99  7587.65
 100  7881.893
 101  6984.242
 102  6499.032
 103  6000.833
 104  8296.502
 105  7959.909
 106  8752.242
 107  7722.896
 108  6350.644
 109  7219.895
 110  7648.836
 111  8675.83
 112  7089.12
 113  6123.126
 114  7840.343
 115  6494.09
 116  6901.759
 117  7332.716
 118  8492.213
 119  7104.147
 120  7392.046
 121  6818.899
 122  6843.693
 123  6710.919
 124  5853.367
 125  5544.138
 126  5974.245
 127  6770.509
 128  6104.84
 129  6786.761
 130  6080.712
 131  6763.917
 132  6636.317
 133  6082.862
 134  6148.155
 135  4959.152
 136  5398.403
 137  6637.127
 138  7235.853
 139  6944.969
 140  6034.844
 141  6101.042
 142  6363.753
 143  4825.464
 144  6435.953
 145  6526.746
 146  7281.74
 147  6510.379
 148  5723.923
 149  5404.601
 150  3762.384
 151  3609.693
 152  5138.36
 153  7189.208
 154  9010.896
 155  7227.754
 156  6418.417
 157  5217.037
 158  5054.056
 159  7413.058
 160  7557.935
 161  5828.784
 162  5140.505
 163  5225.966
 164  5218.586
 165  5304.916
 166  5834.01
 167  4056.21
 168  3565.36
 169  4884.455
 170  6132.24
 171  6102.778
 172  6699.475
 173  4916.207
 174  4679.553
 175  4874.72
 176  6920.613
 177  6099.979
 178  6328.816
 179  5771.9
 180  6030.315
 181  5617.379
 182  7171.013
 183  7044.207
 184  5894.575
 185  6676.027
 186  7376.339
 187  5753.036
 188  6459.765
 189  7401.278
 190  7843.17
 191  7344.677
 192  7433.773
 193  7341.629
 194  6750.986
 195  5725.549
 196  7182.485
 197  6471.697
 198  6538.346
 199  6866.451
 200  7916.72
 201  6933.012
 202  7404.925
 203  6746.796
 204  4698.7
 205  2777.515
 206  5811.987
 207  7394.632
 208  7005.318
 209  5770.975
 210  5486.247
 211  4614.359
 212  5346.687
 213  6734.534
 214  5609.545
 215  5697.333
 216  4925.967
 217  4881.035
 218  4877.547
 219  4943.336
 220  3930.554
 221  2677.537
 222  3747.657
 223  4966.436
 224  5022.214
 225  4462.631
 226  4844.289
 227  5663.259
 228  6584.222
 229  4890.838
 230  4762.004
 231  5072.74
 232  5258.695
 233  5417.749
 234  4890.813
 235  3387.87
 236  5098.482
 237  5499.541
 238  5376.319
 239  6399.109
 240  4742.287
 241  3842.958
 242  4465.06
 243  6491.862
 244  7233.011
 245  6708.99
 246  4578.864
 247  4662.442
 248  5259.956
 249  6593.559
 250  6988.541
 251  6463.136
 252  5492.608
 253  5585.337
 254  6684.438
 255  6408.379
 256  6455.136
 257  7749.945
 258  7579.663
 259  5738.208
 260  5848.464
 261  4642.722
 262  4280.067
 263  5920.395
 264  5321.72
 265  5862.58
 266  4503.855
 267  4669.884
 268  4905.427
 269  3648.105
 270  3624.243
 271  4365.23
 272  6023.917
 273  7685.509
 274  7124.791
 275  5721.396
 276  4675.551
 277  4531.569
 278  5487.292
 279  4443.284
 280  4584.408
 281  3474.632
 282  4017.072
 283  3586.731
 284  4543.147
 285  4640.785
 286  5413.646
 287  4814.078
 288  4975.135
 289  2740.865
 290  3127.219
 291  4449.706
 292  6004.201
 293  5839.312
 294  4890.68
 295  5609.164
 296  7502.571
 297  7737.701
 298  9355.582
 299  6518.513
 300  7121.67
 301  7040.538
 302  7987.427
 303  7958.407
 304  7693.521
 305  5993.146
 306  6204.058
 307  6818.683
 308  7377.816
 309  6628.794
 310  5555.518
 311  6265.852
 312  5472.195
 313  5175.541
 314  5015.451
 315  6188.4
 316  5951.024
 317  6673.184
 318  6456.652
 319  6410.879
 320  4863.342
 321  4969.86
 322  5500.708
 323  6262.327
 324  6262.929
 325  5422.345
 326  3706.52
 327  5733.12
 328  5139.814
 329  5988.731
 330  6593.256
 331  5083.671
 332  6026.564
 333  6808.162
 334  4214.681
 335  3154.579
 336  3950.993
 337  7188.21
 338  8032.462
 339  8511.158
 340  7925.433
 341  5842.28
 342  4911.711
 343  6096.85
 344  4313.983
 345  5960
 346  7118.121
 347  5771.038
 348  5458.413
 349  4451.609
 350  3003.871
 351  4079.32
 352  5398.039
 353  7267.367
 354  7579.956
 355  5462.647
 356  5549.113
 357  5630.539
 358  5689.395
 359  5885.837
 360  5439.203
 361  5440.192
 362  6750.3
 363  6953.565
 364  6334.964
 365  7230.229
 366  5355.685
 367  5838.67
 368  5887.203
 369  6963.596
 370  7868.492
 371  7089.773
 372  7026.947
 373  7309.119
 374  7784.217
 375  8431.866
 376  7625.192
 377  6967.068
 378  6547.922
 379  6945.816
 380  7970.112
 381  7658.767
 382  7680.799
 383  6057.194
 384  6301.569
 385  5422.851
 386  5111.657
 387  5531.588
 388  5732.64
 389  6543.34
 390  8389.216
 391  8570.568
 392  8025.258
 393  8204.828
 394  7294.833
 395  6527.225
 396  7111.802
 397  8480.027
 398  6068.302
 399  4461.083
 400  4194.444
 401  5267.532
 402  5327.079
 403  3953.344
 404  5926.463
 405  7042.049
 406  4954.926
 407  5079.246
 408  5106.953
 409  4536.507
 410  3910.977
 411  4909.347
 412  6096.454
 413  5469.153
 414  6453.646
 415  5581.616
 416  4299.437
 417  4576.582
 418  4872.781
 419  3703.049
 420  4122.016
 421  5006.978
 422  7142.75
 423  7623.83
 424  4757.914
 425  3045.602
 426  4189.54
 427  5755.05
 428  5488.136
 429  4635.863
 430  5177.092
 431  6907.106
 432  6022.449
 433  7464.508
 434  8883.821
 435  7129.569
 436  5415.83
 437  4402.001
 438  4987.038
 439  4844.381
 440  4791.487
 441  6166.753
 442  6642.562
 443  6484.95
 444  6736.436
 445  5579.93
 446  3424.874
 447  4901.869
 448  7243.705
 449  7853.799
 450  7477.044
 451  6537.169
 452  5066.354
 453  5225.805
 454  7083.918
 455  6977.06
 456  5507.112
 457  5856.983
 458  5761.637
 459  6338.052
 460  8042.471
 461  6587.848
 462  6170.938
 463  7182.078
 464  7754.112
 465  6022.178
 466  5359.479
 467  6485.475
 468  6341.409
 469  7488.486
 470  6791.957
 471  5175.293
 472  4175.601
 473  4938.987
 474  7103.173
 475  8871.713
 476  8065.362
 477  5464.956
 478  5556.832
 479  7285.293
 480  5403.549
 481  5287.012
 482  7009.763
 483  7716.836
 484  7254.309
 485  6278.125
 486  6055.203
 487  6933.71
 488  5749.948
 489  5631.323
 490  6482.35
 491  6688.382
 492  6450.071
 493  6545.878
 494  7773.568
 495  7866.617
 496  5562.882
 497  6440.658
 498  6305.94
 499  7203.037
 500  7981.729
 501  7470.523
 502  6234.214
 503  6330.974
 504  6073.119
 505  6127.479
 506  5810.494
 507  5114.906
 508  7415.907
 509  8197.77
 510  8135.578
 511  6330.045
