# Input file       =  1211083018.094698_cleaned.dat
# Candidate        =  PSR_0332+5434
# Telescope        =  AR
# Epoch_topo       =  58261.164781188636
# Epoch_bary       =  N/A
# T_sample         =  0.002
# Data Folded      =  7405568
# Data Avg         =  0.295796998475671
# Data StdDev      =  11.1305597210198 
# Profile Bins     =  1024
# Profile Avg      =  2139.24395531949 
# Profile StdDev   =  946.555782494336 
# Reduced chi-sqr  =  0.722
# Prob(Noise)      <  1   (~0.0 sigma)
# P_topo (ms)      =  714.525568661565  +/- 9.45e-05
# P'_topo (s/s)    =  -0                +/- 4.94e-11
# P''_topo (s/s^2) =  0                 +/- 2.16e-14
# P_bary (ms)      =  N/A
# P'_bary (s/s)    =  N/A
# P''_bary (s/s^2) =  N/A
# P_orb (s)        =  N/A
# asin(i)/c (s)    =  N/A
# eccentricity     =  N/A
# w (rad)          =  N/A
# T_peri           =  N/A
######################################################
   0  2877.68
   1  2496.914
   2  2675.64
   3  2841.623
   4  2426.101
   5  2289.438
   6  2305.349
   7  2286.745
   8  2215.11
   9  2484.47
  10  2764.903
  11  2742.327
  12  2200.793
  13  2170.566
  14  1888.333
  15  1967.651
  16  1760.421
  17  1932.329
  18  2095.293
  19  2180.064
  20  2313.641
  21  2111.533
  22  1681.117
  23  1668.309
  24  2123.327
  25  2725.066
  26  2640.462
  27  2526.654
  28  2281.75
  29  2012.041
  30  1870.939
  31  1892.3
  32  2127.88
  33  2280.554
  34  2708.792
  35  2760.477
  36  2908.991
  37  2716.967
  38  3050.954
  39  2905.357
  40  2558.553
  41  2159.578
  42  2193.208
  43  2254.187
  44  1836.564
  45  2014.406
  46  2561.916
  47  3050.74
  48  2610.028
  49  2175.35
  50  1970.345
  51  1680.056
  52  1530.929
  53  1920.265
  54  2554.958
  55  2879.697
  56  2797.855
  57  2870.743
  58  2252.689
  59  2300.149
  60  2289.135
  61  2866.377
  62  2610.489
  63  2621.998
  64  2804.291
  65  2810.978
  66  2592.069
  67  2819.256
  68  2674.649
  69  2562.169
  70  2525.182
  71  2683.136
  72  2354.833
  73  1751.883
  74  1612.617
  75  1724.856
  76  1742.5
  77  1764.483
  78  1878.923
  79  2069.169
  80  2025.477
  81  2533.778
  82  2548.012
  83  2605.781
  84  2561.71
  85  2858.989
  86  2847.453
  87  2506.181
  88  2194.442
  89  1896.629
  90  1872.13
  91  1812.591
  92  2027.856
  93  2274.682
  94  2294.837
  95  2290.598
  96  1958.754
  97  1971.663
  98  2058.961
  99  2293.774
 100  2185.495
 101  1883.193
 102  1923.415
 103  1961.398
 104  2226.315
 105  2163.385
 106  2240.102
 107  2273.265
 108  2587.103
 109  2369.952
 110  2358.62
 111  2014.777
 112  1883.288
 113  1508.355
 114  1357.138
 115  1392.64
 116  1895.314
 117  2349.403
 118  2747.722
 119  2499.405
 120  2368.597
 121  2331.142
 122  2293.75
 123  2108.337
 124  1584.834
 125  1562.826
 126  1512.59
 127  1575.053
 128  1646.836
 129  1459.506
 130  1766.867
 131  1885.354
 132  2217.902
 133  1931.74
 134  1984.386
 135  1899.724
 136  1700.011
 137  1644.988
 138  2031.51
 139  2338.548
 140  2565.196
 141  2257.308
 142  2073.517
 143  2152.255
 144  2503.091
 145  2694.741
 146  2621.278
 147  2569.323
 148  2325.194
 149  2659.484
 150  2923.202
 151  3246.057
 152  3006.394
 153  2840.428
 154  2385.976
 155  1641.473
 156  1491.08
 157  1744.026
 158  2531.762
 159  2522.354
 160  2518.094
 161  1882.054
 162  1875.179
 163  1963.498
 164  2208.279
 165  1984.507
 166  1850.57
 167  2085.824
 168  2409.201
 169  2527.589
 170  2770.681
 171  2793.856
 172  2678.407
 173  2693.393
 174  2426.593
 175  2258.878
 176  1853.093
 177  1980.5
 178  2047.003
 179  2273.695
 180  2341.785
 181  2504.635
 182  2635.239
 183  2317.365
 184  1991.741
 185  2140.989
 186  2168.465
 187  1910.623
 188  1279.781
 189  1653.389
 190  1970.378
 191  1988.386
 192  1544.058
 193  1829.293
 194  2175.249
 195  2269.826
 196  2379.508
 197  2635.787
 198  2790.923
 199  2750.957
 200  2676.918
 201  2160.469
 202  1580.354
 203  1383.368
 204  2017.541
 205  2289.139
 206  2279.861
 207  2333.125
 208  2425.241
 209  2786.817
 210  2629.257
 211  2530.769
 212  2304.149
 213  1810.175
 214  1797.208
 215  1920.343
 216  2390.029
 217  2166.713
 218  2161.773
 219  2250.754
 220  2475.748
 221  2351.317
 222  2358.57
 223  2213.054
 224  1936.045
 225  1568.114
 226  1984.78
 227  2075.101
 228  2217.181
 229  2030.103
 230  2211.509
 231  1976.951
 232  1823.328
 233  1713.26
 234  1853.099
 235  1952.348
 236  2068.891
 237  2271.905
 238  2354.335
 239  2289.841
 240  2166.239
 241  1871.837
 242  1710.557
 243  1647.649
 244  1982.526
 245  1862.662
 246  1891.494
 247  2066.073
 248  2109.196
 249  1802.832
 250  1355.675
 251  1231.43
 252  1196.538
 253  961.3237
 254  897.2267
 255  1548.127
 256  1984.099
 257  2064.546
 258  2100.871
 259  2237.022
 260  2091.013
 261  1617.362
 262  1490.955
 263  1784.411
 264  1668.674
 265  1940.381
 266  2052.517
 267  2221.675
 268  2240.492
 269  2220.135
 270  2212.95
 271  2278.543
 272  2256.245
 273  2664.521
 274  2537.777
 275  2553.346
 276  2072.099
 277  2145.336
 278  2363.305
 279  2299.749
 280  2649.008
 281  2834.818
 282  2831.896
 283  2631.723
 284  2296.999
 285  2676.803
 286  2772.496
 287  2686.4
 288  2388.855
 289  2304.888
 290  2344.702
 291  2345.912
 292  2017.364
 293  1661.428
 294  1702.574
 295  1857.192
 296  1929.092
 297  1903.136
 298  2388.295
 299  2594.247
 300  2725.838
 301  2595.922
 302  2164.96
 303  1434.569
 304  1185.683
 305  2195.959
 306  3028.609
 307  2883.469
 308  2489.694
 309  2279.526
 310  2386.396
 311  2256.248
 312  2053.582
 313  2327.774
 314  2034.591
 315  1999.167
 316  1967.428
 317  1641.216
 318  1762.817
 319  1919.463
 320  2241.231
 321  2361.764
 322  2127.482
 323  2177.644
 324  1963.347
 325  2004.315
 326  2150.622
 327  2165.252
 328  2172.619
 329  2092.844
 330  1953.848
 331  1752.894
 332  1626.302
 333  1514.127
 334  1817.826
 335  1399.497
 336  1155.473
 337  1399.723
 338  1895.692
 339  1809.718
 340  1804.216
 341  1979.804
 342  2199.964
 343  1666.571
 344  1563.136
 345  1289.113
 346  1307.95
 347  1034.957
 348  1284.549
 349  1585.113
 350  1214.382
 351  1161.554
 352  1477.673
 353  2219.491
 354  2075.055
 355  1535.468
 356  1293.234
 357  1358.086
 358  1476.165
 359  1575.247
 360  2084.389
 361  2341.518
 362  2050.844
 363  1794.85
 364  1785.173
 365  1918.702
 366  2051.61
 367  2227.115
 368  2080.48
 369  1567.455
 370  2083.41
 371  2188.77
 372  2256.726
 373  1910.877
 374  1779.983
 375  1682.25
 376  1680.701
 377  1901.434
 378  1894.51
 379  1891.729
 380  1941.887
 381  2103.801
 382  2303.554
 383  1912.078
 384  1915.184
 385  1789.551
 386  1671.19
 387  1890.633
 388  1612.912
 389  1900.913
 390  1726.376
 391  1571.277
 392  1280.323
 393  952.0333
 394  1464.309
 395  1672.026
 396  2014.596
 397  2068.075
 398  2129.72
 399  2262.595
 400  2237.337
 401  2222.855
 402  2125.189
 403  2439.732
 404  2314.494
 405  2387.127
 406  2379.214
 407  2054.943
 408  2123.517
 409  2151.501
 410  2423.324
 411  2163.454
 412  1848.103
 413  1738.031
 414  1702.494
 415  1976.717
 416  2062.067
 417  2124.665
 418  1971.589
 419  1588.902
 420  1683.883
 421  1766.567
 422  1401.464
 423  1580.046
 424  1934.735
 425  2698.791
 426  1903.104
 427  1673.08
 428  1479.608
 429  1927.438
 430  1850.584
 431  1691.222
 432  1492.404
 433  1272.96
 434  1505.633
 435  2282.147
 436  2160.693
 437  1822.074
 438  1100.747
 439  1341.334
 440  934.801
 441  789.179
 442  1188.787
 443  1980.279
 444  2566.547
 445  2071.691
 446  2210.833
 447  2020.786
 448  2189.915
 449  1882.346
 450  1809.697
 451  1915.023
 452  1751.081
 453  2010.569
 454  1979.497
 455  2000.901
 456  1904.621
 457  2243.823
 458  2052.456
 459  1964.166
 460  1691.051
 461  1738.696
 462  1590.701
 463  1832.9
 464  1855.386
 465  1468.81
 466  1168.141
 467  1167.418
 468  2109.652
 469  2387.392
 470  2412.606
 471  2364.221
 472  2919.704
 473  3167.31
 474  2752.391
 475  2405.165
 476  1873.841
 477  1750.162
 478  1649.654
 479  1962.95
 480  1999.462
 481  2185.422
 482  2290.637
 483  2561.133
 484  2539.519
 485  2585.497
 486  2331.704
 487  2249.27
 488  1938.609
 489  1490.684
 490  1416.773
 491  1699.459
 492  2151.76
 493  2212.084
 494  2079.803
 495  1819.439
 496  1726.375
 497  1696.337
 498  1542.372
 499  1641.205
 500  1318.647
 501  1484.146
 502  1490.538
 503  1825.182
 504  1795.223
 505  1649.189
 506  1702.162
 507  1973.674
 508  1993.41
 509  2147.638
 510  2184.466
 511  2395.895
 512  2367.073
 513  2451.625
 514  2165.569
 515  2137.677
 516  2320.241
 517  2267.184
 518  2095.403
 519  1637.966
 520  1886.302
 521  1949.432
 522  2440.78
 523  2529.368
 524  2215.601
 525  2118.406
 526  1733.604
 527  1770.803
 528  1535.984
 529  1768.358
 530  1544.25
 531  1614.275
 532  1595.064
 533  1707.495
 534  1808.851
 535  1549.611
 536  1852.991
 537  1647.472
 538  2008.392
 539  1994.411
 540  2649.408
 541  2781.33
 542  2423.489
 543  2094.243
 544  1745.299
 545  1898.808
 546  1872.106
 547  2329.663
 548  2467.647
 549  1788.861
 550  1220.333
 551  1057.016
 552  1301.167
 553  1838.933
 554  2461.628
 555  2857.814
 556  2829.764
 557  2190.193
 558  2368.436
 559  2160.885
 560  2196.075
 561  2215.182
 562  2191.862
 563  2066.939
 564  1334.704
 565  1475.667
 566  1835.33
 567  2360.542
 568  2637.906
 569  2752.617
 570  2347.746
 571  1631.507
 572  1644.802
 573  1779.065
 574  2128.156
 575  2311.191
 576  2125.893
 577  2367.631
 578  2491.708
 579  2470.755
 580  2641.618
 581  2578.874
 582  2565.263
 583  2113.781
 584  2099.491
 585  2412.812
 586  2656.087
 587  2449.902
 588  1975.3
 589  1858.045
 590  1685.811
 591  1990.194
 592  2294.825
 593  2501.463
 594  2992.965
 595  3218.309
 596  3533.281
 597  3372.573
 598  3361.699
 599  3442.255
 600  3890.485
 601  3978.461
 602  3361.872
 603  2506.266
 604  2504.142
 605  2873.632
 606  2398.4
 607  1854.23
 608  1722.25
 609  2002.497
 610  2118.008
 611  1769.056
 612  1466.906
 613  1736.039
 614  2457.691
 615  2855.78
 616  2945.661
 617  2888.8
 618  2437.92
 619  2480.448
 620  2316.241
 621  2471.042
 622  2307.871
 623  2407.019
 624  2588.226
 625  2397.649
 626  2350.548
 627  2098.276
 628  2528.697
 629  2600.763
 630  2780.896
 631  2772.416
 632  2910.27
 633  3182.359
 634  2575.438
 635  2613.378
 636  2378.821
 637  2474.879
 638  2554.646
 639  2157.439
 640  2243.934
 641  2315.916
 642  2760.535
 643  2777.654
 644  2608.858
 645  2694.941
 646  2705.451
 647  2462.749
 648  2442.264
 649  2590.346
 650  2528.733
 651  2966.985
 652  2547.158
 653  2505.856
 654  2334.054
 655  2461.849
 656  2319.517
 657  2425.766
 658  2633.658
 659  2769.619
 660  2432.295
 661  2350.312
 662  2408.465
 663  2121.719
 664  1711.321
 665  1595.939
 666  1946.184
 667  1928.58
 668  1789.623
 669  2057.954
 670  2491.003
 671  2429.021
 672  2094.967
 673  2031.554
 674  2443.593
 675  2727.442
 676  2559.183
 677  2572.677
 678  2675.158
 679  2881.608
 680  2732.211
 681  2526.187
 682  2289.731
 683  1723.189
 684  1546.492
 685  1401.788
 686  1673.643
 687  1742.218
 688  1650.343
 689  1594.079
 690  1816.257
 691  1908.281
 692  2126.757
 693  2281.706
 694  2282.839
 695  2331.924
 696  2156.652
 697  2377.835
 698  2346.315
 699  2357.151
 700  1918.178
 701  1926.863
 702  2671.477
 703  2747.614
 704  2677.328
 705  2470.792
 706  2775.159
 707  2898.168
 708  2284.616
 709  2591.832
 710  2435.038
 711  2801.347
 712  2658.929
 713  2759.651
 714  2347.907
 715  2069.518
 716  2038.905
 717  2278.825
 718  2146.532
 719  1776.996
 720  1689.056
 721  1552.112
 722  1541.633
 723  1522.14
 724  1791.129
 725  1648.956
 726  1667.96
 727  2022.523
 728  2184.032
 729  2066.268
 730  1859.424
 731  2151.683
 732  2261.831
 733  2134.942
 734  1993.215
 735  1981.331
 736  1941.102
 737  2101.43
 738  2167.706
 739  1795.261
 740  1801.674
 741  2085.793
 742  2179.198
 743  1974.407
 744  1608.639
 745  1404.85
 746  1690.898
 747  1964.782
 748  2224.443
 749  2080.916
 750  1947.301
 751  1918.475
 752  2080.936
 753  2224.408
 754  2030.801
 755  1637.31
 756  1386.186
 757  1777.843
 758  2468.684
 759  2734.879
 760  2711.353
 761  2529.762
 762  2939.084
 763  2720.134
 764  2313.039
 765  1810.752
 766  1787.376
 767  2009.107
 768  2007.172
 769  1933.995
 770  1897.916
 771  2190.987
 772  2639.349
 773  2761.436
 774  2515.712
 775  1856.867
 776  1506.662
 777  1466.726
 778  1838.751
 779  1728.249
 780  1614.939
 781  1729.1
 782  2031.058
 783  1874.574
 784  1678.612
 785  1671.661
 786  1448.315
 787  1359.957
 788  1415.507
 789  1487.693
 790  1966.49
 791  2334.659
 792  2403.96
 793  2078.417
 794  1659.531
 795  2210.708
 796  1990.602
 797  1520.391
 798  1613.618
 799  1800.03
 800  2137.969
 801  1330.42
 802  1945.611
 803  1980.328
 804  2169.691
 805  2144.66
 806  2509.806
 807  2445.564
 808  1942.367
 809  2011.609
 810  2192.835
 811  2097.271
 812  1941.786
 813  1891.085
 814  1920.168
 815  2086.61
 816  1741.882
 817  1677.33
 818  1610.136
 819  1842.873
 820  1936.467
 821  2102.852
 822  2093.83
 823  1779.396
 824  1287.254
 825  1460.63
 826  1761.484
 827  2067.408
 828  2343.301
 829  2525.259
 830  2689.339
 831  2653.802
 832  2804.7
 833  2878.536
 834  2133.737
 835  1869.692
 836  1637.655
 837  2276.672
 838  2344.939
 839  2065.139
 840  1825.681
 841  2066.594
 842  2434.462
 843  2584.305
 844  2559.632
 845  2970.53
 846  2787.001
 847  2539.673
 848  2056.972
 849  1952.875
 850  1647.564
 851  1560.682
 852  1829.062
 853  2257.487
 854  2445.672
 855  2103.129
 856  1889.579
 857  2143.157
 858  2350.974
 859  2639.264
 860  2749.843
 861  2837.372
 862  2604.596
 863  2286.718
 864  1875.478
 865  1624.005
 866  1425.321
 867  1203.092
 868  1209.229
 869  1317.401
 870  1742.804
 871  2231.035
 872  2411.28
 873  2437.847
 874  2145.566
 875  2102.517
 876  2000.732
 877  1712.883
 878  1531.643
 879  1598.325
 880  2043.307
 881  2542.049
 882  2779.203
 883  2600.632
 884  2296.33
 885  2348.233
 886  2490.526
 887  2488.332
 888  1979.673
 889  1595.6
 890  1499.545
 891  1697.16
 892  2179.38
 893  2871.616
 894  2933.221
 895  2790.789
 896  2232.565
 897  2116.341
 898  2314.301
 899  2352.281
 900  2652.421
 901  2846.202
 902  3342.266
 903  2735.689
 904  2519.657
 905  2247.234
 906  2566.344
 907  2500.497
 908  2425.656
 909  2238.899
 910  1926.08
 911  1737.978
 912  1689.758
 913  1988.305
 914  2120.012
 915  2427.881
 916  2281.551
 917  2224.488
 918  1832.632
 919  1909.622
 920  2100.162
 921  2073.446
 922  1971.27
 923  1613.569
 924  1559.404
 925  1426.955
 926  1429.373
 927  1584.949
 928  2123.852
 929  2378.852
 930  2221.068
 931  2254.149
 932  2569.073
 933  2497.256
 934  2212.975
 935  2174.352
 936  1999.921
 937  1758.109
 938  2002.401
 939  2063.204
 940  1964.029
 941  1639.673
 942  2016.08
 943  2465.427
 944  2499.175
 945  2514.115
 946  2369.245
 947  2486.506
 948  2548.559
 949  2563.573
 950  2086.677
 951  1708.171
 952  1216.672
 953  1344.751
 954  1619.226
 955  1922.065
 956  2023.014
 957  2119.968
 958  2403.99
 959  2409.36
 960  2627.71
 961  2455.389
 962  1934.324
 963  1261.751
 964  1354.316
 965  1606.13
 966  1402.608
 967  1363.974
 968  1920.55
 969  2261.941
 970  2199.097
 971  2212.291
 972  2284.045
 973  2592.012
 974  2267.311
 975  2308.667
 976  1856.25
 977  1707.785
 978  1811.732
 979  2068.214
 980  2494.372
 981  2468.93
 982  2712.568
 983  2850.618
 984  2746.132
 985  2985.714
 986  2562.571
 987  2343.129
 988  2043.101
 989  2588.758
 990  2972.444
 991  2837.819
 992  2383.84
 993  2210.727
 994  2308.378
 995  1876.758
 996  2073.847
 997  2403.113
 998  2776.06
 999  2634.597
1000  2540.037
1001  2618.882
1002  2864.058
1003  3074.61
1004  3234.094
1005  2995.677
1006  2837.229
1007  2309.944
1008  2423.099
1009  2368.655
1010  2459.983
1011  2845.115
1012  2756.742
1013  2259.178
1014  1938.857
1015  2163.675
1016  2319.16
1017  2334.802
1018  2662.779
1019  3224.04
1020  2980.685
1021  2713.274
1022  2833.136
1023  3104.674
