# Input file       =  1211801664.116601_cleaned.dat
# Candidate        =  PSR_0332+5434
# Telescope        =  AR
# Epoch_topo       =  58269.482443479181
# Epoch_bary       =  N/A
# T_sample         =  0.002
# Data Folded      =  7340032
# Data Avg         =  0.0562928287877838
# Data StdDev      =  2.86646676483994 
# Profile Bins     =  512
# Profile Avg      =  806.95910475993  
# Profile StdDev   =  343.210769427372 
# Reduced chi-sqr  =  1.181
# Prob(Noise)      <  0.00296   (~2.8 sigma)
# P_topo (ms)      =  714.517780258355  +/- 0.000292
# P'_topo (s/s)    =  -0                +/- 1.54e-10
# P''_topo (s/s^2) =  0                 +/- 6.8e-14
# P_bary (ms)      =  N/A
# P'_bary (s/s)    =  N/A
# P''_bary (s/s^2) =  N/A
# P_orb (s)        =  N/A
# asin(i)/c (s)    =  N/A
# eccentricity     =  N/A
# w (rad)          =  N/A
# T_peri           =  N/A
######################################################
   0  1056.504
   1  341.6598
   2  602.8691
   3  1046.42
   4  1349.913
   5  870.6173
   6  849.4879
   7  970.6154
   8  882.3371
   9  847.7473
  10  730.6882
  11  708.3911
  12  827.1435
  13  1060.154
  14  1095.995
  15  729.6415
  16  846.7302
  17  1013.035
  18  837.9651
  19  532.4967
  20  772.5197
  21  936.2293
  22  699.4962
  23  846.574
  24  974.418
  25  805.2047
  26  803.9493
  27  699.3491
  28  968.6675
  29  1097.911
  30  1053.836
  31  861.2686
  32  543.3876
  33  838.3763
  34  619.4235
  35  153.6492
  36  226.036
  37  628.8492
  38  953.7842
  39  813.6814
  40  692.8458
  41  692.1536
  42  983.8796
  43  901.5872
  44  926.4681
  45  682.0046
  46  625.7045
  47  699.694
  48  589.1275
  49  797.1785
  50  678.2374
  51  797.3179
  52  872.9095
  53  801.7532
  54  729.2515
  55  964.1515
  56  438.3015
  57  503.224
  58  323.9124
  59  425.2458
  60  770.4096
  61  1129.152
  62  819.0977
  63  671.9904
  64  605.5358
  65  823.8954
  66  646.6716
  67  637.0569
  68  682.119
  69  633.7546
  70  501.2792
  71  319.6443
  72  586.8712
  73  670.7825
  74  889.4521
  75  1001.087
  76  1105.56
  77  970.9965
  78  601.4033
  79  797.1913
  80  922.8771
  81  993.5772
  82  1102.189
  83  918.0861
  84  725.4533
  85  767.506
  86  672.5222
  87  604.9048
  88  589.4227
  89  686.4589
  90  493.6208
  91  681.7654
  92  818.6743
  93  955.189
  94  1189.236
  95  841.8134
  96  572.1534
  97  397.1519
  98  586.1876
  99  474.6159
 100  655.4062
 101  1010.502
 102  804.8168
 103  850.8654
 104  832.6404
 105  762.1843
 106  739.2993
 107  1173.343
 108  1305.76
 109  799.1089
 110  790.4039
 111  1002.601
 112  672.2689
 113  549.587
 114  868.4106
 115  1254.811
 116  1388.175
 117  882.5493
 118  807.6755
 119  624.3661
 120  795.0909
 121  817.285
 122  906.0319
 123  883.8661
 124  759.8535
 125  917.2642
 126  835.6183
 127  868.0003
 128  1084.982
 129  979.5714
 130  786.3419
 131  831.9399
 132  1147.753
 133  944.1575
 134  815.7391
 135  934.1191
 136  964.7567
 137  795.8193
 138  1017.81
 139  1052.461
 140  506.739
 141  448.8003
 142  617.275
 143  645.8618
 144  617.743
 145  730.3914
 146  765.3373
 147  405.1152
 148  860.3395
 149  708.4714
 150  714.6101
 151  675.8856
 152  754.5499
 153  767.6406
 154  861.4284
 155  800.4037
 156  918.8268
 157  1266.645
 158  947.2754
 159  638.2828
 160  842.7828
 161  880.1639
 162  830.9141
 163  865.8597
 164  827.4701
 165  774.8527
 166  908.2495
 167  1176.892
 168  987.916
 169  1072.123
 170  1333.56
 171  1022.771
 172  820.7573
 173  793.1166
 174  794.1909
 175  986.5854
 176  898.4752
 177  1319.648
 178  1295.674
 179  989.5428
 180  868.4521
 181  1242.728
 182  1083.507
 183  903.1121
 184  1117.342
 185  487.714
 186  546.2574
 187  874.3845
 188  943.3407
 189  867.9617
 190  931.5252
 191  774.3231
 192  716.4393
 193  454.9348
 194  462.3039
 195  497.0223
 196  557.9992
 197  705.7299
 198  817.1906
 199  927.9794
 200  640.9255
 201  668.4599
 202  977.0237
 203  1021.049
 204  845.4417
 205  478.2774
 206  836.7316
 207  1010.361
 208  372.112
 209  755.9717
 210  1174.832
 211  1026.882
 212  855.5757
 213  834.6465
 214  700.4231
 215  711.8368
 216  910.0691
 217  725.2148
 218  384.7186
 219  408.7654
 220  610.3578
 221  819.474
 222  1027.54
 223  888.6733
 224  695.7227
 225  1266.902
 226  1162.425
 227  874.5155
 228  720.0367
 229  491.2025
 230  748.6952
 231  1130.216
 232  1057.622
 233  895.5438
 234  959.5949
 235  834.6281
 236  813.5269
 237  890.4147
 238  975.3236
 239  809.419
 240  1015.294
 241  851.986
 242  837.2691
 243  741.3489
 244  953.3987
 245  722.6722
 246  958.994
 247  1169.677
 248  1075.19
 249  1022.378
 250  1015.63
 251  780.8329
 252  879.1149
 253  1086.872
 254  733.9413
 255  527.293
 256  943.3287
 257  925.383
 258  912.3927
 259  616.6401
 260  445.4214
 261  588.522
 262  798.9006
 263  830.9702
 264  677.2229
 265  657.1893
 266  367.4547
 267  714.9515
 268  672.7427
 269  555.3492
 270  813.7841
 271  721.9089
 272  766.6944
 273  921.6783
 274  832.2589
 275  793.6276
 276  1136.877
 277  1462.115
 278  1623.725
 279  2325.764
 280  2652.804
 281  2626.866
 282  2185.687
 283  2042.083
 284  1491.48
 285  821.311
 286  855.1185
 287  751.414
 288  803.8596
 289  1019.767
 290  897.164
 291  801.1708
 292  521.4606
 293  885.7387
 294  1042.651
 295  820.8215
 296  1189.371
 297  1453.879
 298  1313.309
 299  1081.018
 300  1104.02
 301  973.4138
 302  442.8226
 303  673.001
 304  910.6423
 305  988.4855
 306  856.3403
 307  522.4176
 308  421.555
 309  601.7479
 310  890.2048
 311  725.8337
 312  409.1558
 313  763.6546
 314  1114.16
 315  836.2097
 316  900.6002
 317  752.6411
 318  871.8387
 319  915.4496
 320  728.6079
 321  338.2715
 322  340.2982
 323  956.5758
 324  809.4686
 325  711.868
 326  626.0443
 327  609.7524
 328  763.8193
 329  728.2449
 330  814.1069
 331  753.8579
 332  805.5134
 333  485.2396
 334  401.322
 335  611.8422
 336  809.2185
 337  826.9807
 338  816.1678
 339  976.4452
 340  965.8386
 341  962.2566
 342  1069.697
 343  705.1862
 344  539.4274
 345  680.4309
 346  863.7638
 347  853.7529
 348  700.4171
 349  1080.501
 350  861.7647
 351  790.5676
 352  1220.306
 353  1144.896
 354  682.2277
 355  718.5321
 356  712.0724
 357  817.2267
 358  574.9111
 359  522.5462
 360  836.2682
 361  1018.995
 362  1001.957
 363  1038.754
 364  1054.171
 365  994.9568
 366  691.5369
 367  533.616
 368  825.9719
 369  708.8405
 370  506.4361
 371  459.4868
 372  407.4151
 373  636.2191
 374  939.0734
 375  869.805
 376  750.2941
 377  757.2307
 378  553.2063
 379  694.825
 380  671.9836
 381  594.1349
 382  818.9012
 383  710.7112
 384  626.8565
 385  615.9656
 386  783.8484
 387  916.7691
 388  684.359
 389  536.9004
 390  645.2593
 391  410.7103
 392  488.8287
 393  524.2654
 394  660.7349
 395  714.0654
 396  710.0516
 397  1025.997
 398  644.7267
 399  494.4827
 400  535.3336
 401  581.7858
 402  745.5707
 403  954.283
 404  810.1559
 405  860.8177
 406  934.3599
 407  798.5451
 408  1113.877
 409  893.4682
 410  480.3968
 411  727.8522
 412  657.5881
 413  704.6458
 414  944.5078
 415  1049.34
 416  949.6512
 417  408.3415
 418  315.3321
 419  677.1047
 420  481.1377
 421  612.5122
 422  881.205
 423  978.6243
 424  1002.749
 425  1020.356
 426  715.6836
 427  981.4559
 428  917.9059
 429  864.5288
 430  719.938
 431  549.2981
 432  336.8393
 433  789.8513
 434  1106.778
 435  622.8038
 436  425.4615
 437  497.119
 438  682.9904
 439  709.1604
 440  536.2254
 441  530.946
 442  680.7845
 443  916.6906
 444  752.7133
 445  709.6134
 446  592.8965
 447  503.6656
 448  542.2101
 449  676.5571
 450  560.2554
 451  571.6504
 452  625.1608
 453  747.3762
 454  534.2993
 455  385.4061
 456  913.0208
 457  938.9291
 458  748.8256
 459  492.7317
 460  767.5225
 461  788.9468
 462  626.7892
 463  963.8247
 464  849.7957
 465  820.424
 466  832.2195
 467  793.2493
 468  817.0422
 469  942.2509
 470  772.0948
 471  221.4844
 472  64.67321
 473  299.7368
 474  476.8936
 475  670.8505
 476  522.5987
 477  500.0484
 478  589.5927
 479  432.9414
 480  533.3585
 481  752.3743
 482  547.6641
 483  644.8666
 484  1088.631
 485  1128.542
 486  717.1088
 487  888.2196
 488  492.8146
 489  571.1811
 490  814.4321
 491  631.7111
 492  928.664
 493  1076.278
 494  1125.437
 495  827.6043
 496  962.0646
 497  898.4933
 498  846.8071
 499  567.264
 500  594.7365
 501  645.7317
 502  927.7265
 503  1097.772
 504  1138.881
 505  998.1603
 506  844.7692
 507  969.4349
 508  1140.54
 509  922.4409
 510  685.0526
 511  798.3369
