# Input file       =  1211427572.105833_cleaned.dat
# Candidate        =  PSR_0332+5434
# Telescope        =  AR
# Epoch_topo       =  58265.152674836034
# Epoch_bary       =  N/A
# T_sample         =  0.002
# Data Folded      =  7143424
# Data Avg         =  0.176733835863052
# Data StdDev      =  4.98585287045989 
# Profile Bins     =  1024
# Profile Avg      =  1232.87454474327 
# Profile StdDev   =  416.430657407462 
# Reduced chi-sqr  =  0.635
# Prob(Noise)      <  1   (~0.0 sigma)
# P_topo (ms)      =  714.521660711746  +/- 0.000115
# P'_topo (s/s)    =  -0                +/- 6.21e-11
# P''_topo (s/s^2) =  0                 +/- 2.82e-14
# P_bary (ms)      =  N/A
# P'_bary (s/s)    =  N/A
# P''_bary (s/s^2) =  N/A
# P_orb (s)        =  N/A
# asin(i)/c (s)    =  N/A
# eccentricity     =  N/A
# w (rad)          =  N/A
# T_peri           =  N/A
######################################################
   0  1279.041
   1  1246.237
   2  1345.71
   3  1325.198
   4  1195.99
   5  882.0169
   6  943.3854
   7  1136.959
   8  1229.408
   9  1183.057
  10  1265.226
  11  1455.065
  12  1285.844
  13  1169.703
  14  1072.181
  15  1200.633
  16  1123.522
  17  1238.121
  18  1198.329
  19  1182.445
  20  1085.608
  21  1064.912
  22  1090.184
  23  1013.798
  24  1038.511
  25  1169.137
  26  1252.651
  27  1198.686
  28  1252.889
  29  1304.725
  30  1445.594
  31  1262.815
  32  1264.255
  33  1186.508
  34  1203.419
  35  1229.557
  36  1130.623
  37  1041.587
  38  1007.328
  39  1121.998
  40  1242.877
  41  1209.537
  42  1141.556
  43  1090.491
  44  1157.752
  45  1167.222
  46  1142.594
  47  1181.721
  48  1208.091
  49  1150.171
  50  1095.006
  51  1032.361
  52  1052.538
  53  1116.109
  54  979.6909
  55  886.4293
  56  754.0222
  57  882.6508
  58  921.4525
  59  881.0518
  60  1026.108
  61  1126.743
  62  1435.862
  63  1385.525
  64  1225.021
  65  1029.548
  66  1112.743
  67  1209.604
  68  1246.947
  69  1209.125
  70  1222.94
  71  1182.074
  72  1147.738
  73  1067.557
  74  1006.748
  75  1043.401
  76  1151.842
  77  1084.917
  78  973.8855
  79  778.9764
  80  964.2082
  81  1088.25
  82  1176.177
  83  1156.83
  84  1146.808
  85  1322.912
  86  1153.755
  87  1199.591
  88  1059.125
  89  1225.79
  90  1236.29
  91  1316.001
  92  1123.853
  93  1047.745
  94  1147.904
  95  1340.719
  96  1343.154
  97  1160.265
  98  1127.342
  99  1132.499
 100  1106.203
 101  1123.97
 102  1161.59
 103  1328.559
 104  1330.575
 105  1345.19
 106  1278.836
 107  1226.541
 108  1247.554
 109  1306.526
 110  1209.583
 111  1217.633
 112  1240.738
 113  1306.765
 114  1160.845
 115  1214.93
 116  1307.982
 117  1263.652
 118  1053.643
 119  934.1112
 120  1090.409
 121  1172.328
 122  1189.251
 123  1066.13
 124  1016.825
 125  1002.78
 126  1149.458
 127  1306.696
 128  1264.794
 129  1118.932
 130  1165.764
 131  1310.348
 132  1330.047
 133  1335.212
 134  1268.037
 135  1259.636
 136  1252.353
 137  1316.985
 138  1270.727
 139  1177.413
 140  1231.489
 141  1394.856
 142  1450.635
 143  1321.913
 144  1198.564
 145  1194.871
 146  1204.773
 147  1210.765
 148  1263.12
 149  1274.212
 150  1183.177
 151  1178.006
 152  1221.081
 153  1355.164
 154  1295.042
 155  1366.227
 156  1202.835
 157  1256.037
 158  1332.457
 159  1473.617
 160  1318.049
 161  1121.262
 162  1097.288
 163  1191.623
 164  1230.573
 165  1305.191
 166  1435.628
 167  1469.732
 168  1427.703
 169  1413.837
 170  1280.598
 171  1065.986
 172  1055.713
 173  1255.839
 174  1510.623
 175  1541.265
 176  1580.346
 177  1548.067
 178  1497.309
 179  1335.152
 180  1343.516
 181  1213.794
 182  1260.014
 183  1308.941
 184  1597.357
 185  1565.287
 186  1396.887
 187  1212.408
 188  1180.601
 189  1233.062
 190  1202.394
 191  1290.494
 192  1332.197
 193  1431.746
 194  1577.905
 195  1636.729
 196  1722.291
 197  1672.199
 198  1806.772
 199  1701.914
 200  1612.252
 201  1437.847
 202  1290.318
 203  1290.208
 204  1264.617
 205  1440.643
 206  1530.959
 207  1504.161
 208  1370.543
 209  1422.426
 210  1507.209
 211  1655.936
 212  1465.651
 213  1467.524
 214  1383.859
 215  1461.034
 216  1554.652
 217  1549.034
 218  1575.364
 219  1441.819
 220  1433.514
 221  1276.816
 222  1266.783
 223  1228.654
 224  1340.709
 225  1332.431
 226  1403.589
 227  1357.758
 228  1497.037
 229  1420.33
 230  1497.161
 231  1600.635
 232  1601.837
 233  1591.478
 234  1483.781
 235  1436.228
 236  1423.413
 237  1406.24
 238  1518.159
 239  1448.604
 240  1381.463
 241  1313.976
 242  1277.548
 243  1357.489
 244  1346.458
 245  1359.987
 246  1445.514
 247  1451.072
 248  1527.062
 249  1581.308
 250  1532.03
 251  1534.269
 252  1495.342
 253  1539.007
 254  1421.883
 255  1344.309
 256  1447.718
 257  1491.844
 258  1424.921
 259  1370.463
 260  1477.502
 261  1569.202
 262  1426.649
 263  1341.571
 264  1269.628
 265  1370.006
 266  1430.841
 267  1545.178
 268  1609.282
 269  1541.145
 270  1594.923
 271  1622.078
 272  1531.587
 273  1287.237
 274  1370.681
 275  1498.163
 276  1512.218
 277  1322.512
 278  1471.742
 279  1519.68
 280  1444.245
 281  1295.196
 282  1294.563
 283  1206.328
 284  1093.054
 285  1064.575
 286  1249.191
 287  1316.762
 288  1402.162
 289  1506.993
 290  1429.45
 291  1281.659
 292  1280.59
 293  1360.178
 294  1451.19
 295  1424.156
 296  1587.988
 297  1592.83
 298  1458.579
 299  1269.685
 300  1179.724
 301  1133.607
 302  1247.735
 303  1494.427
 304  1453.138
 305  1208.083
 306  1112.01
 307  1386.369
 308  1478.659
 309  1448.332
 310  1380.885
 311  1526.136
 312  1398.95
 313  1379.555
 314  1180.63
 315  1171.92
 316  1294.556
 317  1592.367
 318  1663.606
 319  1547.735
 320  1440.499
 321  1541.129
 322  1517.997
 323  1388.288
 324  1334.539
 325  1328.174
 326  1248.596
 327  1111.417
 328  1111.865
 329  1289.575
 330  1461.969
 331  1583.396
 332  1523.184
 333  1399.572
 334  1284.171
 335  1285.119
 336  1352.856
 337  1282.804
 338  1279.508
 339  1487.157
 340  1554.776
 341  1413.4
 342  1258.805
 343  1383.868
 344  1396.986
 345  1257.134
 346  1250.278
 347  1340.42
 348  1415.872
 349  1333.54
 350  1244.246
 351  1225.231
 352  1178.354
 353  1210.531
 354  1224.643
 355  1228.402
 356  1269.01
 357  1363.841
 358  1518.946
 359  1409.71
 360  1349.1
 361  1408.703
 362  1572.693
 363  1613.189
 364  1526.572
 365  1372.506
 366  1263.047
 367  1245.184
 368  1152.175
 369  1065.732
 370  1062.111
 371  1242.905
 372  1536.601
 373  1607.814
 374  1606.989
 375  1451.849
 376  1495.724
 377  1477.171
 378  1380.21
 379  1225.997
 380  1150.48
 381  1125.661
 382  1068.957
 383  1044.203
 384  1110.017
 385  1236.372
 386  1161.981
 387  1173.123
 388  1075.117
 389  1269.107
 390  1343.85
 391  1326.266
 392  1142.533
 393  1156.637
 394  1280.172
 395  1273.669
 396  1250.433
 397  1351.295
 398  1430.822
 399  1333.191
 400  1252.583
 401  1189.746
 402  1007.115
 403  1006.47
 404  1265.194
 405  1455.057
 406  1227.387
 407  997.2745
 408  1110.717
 409  1205.652
 410  1186.272
 411  1154.766
 412  1369.453
 413  1443.681
 414  1331.022
 415  1341.022
 416  1276.286
 417  1260.193
 418  962.8314
 419  1014.775
 420  997.1115
 421  1177.607
 422  1198.94
 423  1350.35
 424  1269.012
 425  1263.582
 426  1174.943
 427  1302.891
 428  1182.221
 429  1183.253
 430  1117.637
 431  1132.562
 432  1088.943
 433  1072.413
 434  1162.043
 435  1154.435
 436  1161.641
 437  1190.133
 438  1081.856
 439  922.7801
 440  946.2737
 441  1196.649
 442  1309.854
 443  1172.275
 444  1058.988
 445  1060.567
 446  1110.525
 447  1115.679
 448  1251.969
 449  1057.058
 450  1037.643
 451  1047.381
 452  1172.457
 453  986.5588
 454  893.6419
 455  966.3428
 456  1089.435
 457  1124.527
 458  1114.017
 459  1076.759
 460  914.4116
 461  884.8806
 462  1010.273
 463  1217.371
 464  1093.427
 465  1137.731
 466  1068.215
 467  1040.037
 468  1210.774
 469  1320.028
 470  1350.103
 471  1091.228
 472  1081.994
 473  1245.478
 474  1316.174
 475  1290.495
 476  1185.212
 477  1214.931
 478  1106.772
 479  1133.29
 480  1187.691
 481  1266.824
 482  1218.159
 483  1240.046
 484  1264.172
 485  1236.806
 486  1164.66
 487  1194.049
 488  1162.553
 489  988.1624
 490  905.3641
 491  1014.821
 492  1037.784
 493  942.6526
 494  1015.908
 495  1124.458
 496  1343.994
 497  1378.932
 498  1413.652
 499  1126.943
 500  900.2547
 501  888.4433
 502  1057.341
 503  1091.471
 504  1035.701
 505  1112.19
 506  1154.91
 507  1183.346
 508  1100.502
 509  1108.151
 510  1161.037
 511  1249.382
 512  1213.591
 513  1054.017
 514  953.8099
 515  1129.283
 516  1249.999
 517  1192.342
 518  1086.874
 519  1006.242
 520  1059.317
 521  1043.662
 522  1134.024
 523  1070.856
 524  981.3212
 525  1012.109
 526  1091.704
 527  1178.491
 528  1174.237
 529  1217.872
 530  1136.628
 531  1032.917
 532  974.2969
 533  1254.711
 534  1321.201
 535  1315.572
 536  1135.831
 537  1196.804
 538  1291.615
 539  1260.784
 540  1344.297
 541  1183.225
 542  1100.704
 543  905.3815
 544  929.4767
 545  999.582
 546  1001.539
 547  1081.966
 548  1111.425
 549  1166.245
 550  1118.264
 551  1057.639
 552  1053.193
 553  1018.997
 554  1134.743
 555  1256.968
 556  1431.836
 557  1430.116
 558  1399.045
 559  1275.998
 560  1327.557
 561  1261.712
 562  1256.737
 563  1184.921
 564  1288.985
 565  1167.28
 566  1077.594
 567  882.0655
 568  1000.118
 569  1042.158
 570  1193.2
 571  1274.63
 572  1259.719
 573  1210.103
 574  1151.001
 575  1229.609
 576  1123.771
 577  1029.376
 578  1014.625
 579  1077.144
 580  1083.389
 581  1239.018
 582  1274.225
 583  1325.835
 584  1185.751
 585  1220.477
 586  1193.707
 587  1219.296
 588  1322.352
 589  1490.001
 590  1533.659
 591  1515.465
 592  1486.279
 593  1720.821
 594  1664.091
 595  1752.546
 596  1810.174
 597  2010.654
 598  2117.735
 599  2162.334
 600  2140.503
 601  2072.335
 602  2026.996
 603  1988.396
 604  1691.265
 605  1362.859
 606  1179.89
 607  1230.151
 608  1144.327
 609  972.8788
 610  1001.977
 611  1096.173
 612  1323.194
 613  1308.311
 614  1337.228
 615  1091.419
 616  1040.434
 617  983.768
 618  1037.799
 619  907.7123
 620  930.921
 621  1084.391
 622  1109.18
 623  1085.576
 624  1227.441
 625  1266.437
 626  1290.587
 627  1223.157
 628  1288.697
 629  1189.506
 630  1174.727
 631  1223.869
 632  1255.597
 633  1210.661
 634  1296.625
 635  1410.735
 636  1372.286
 637  1154.798
 638  960.7604
 639  918.1449
 640  888.6275
 641  1055.199
 642  1219.661
 643  1247.274
 644  1109.352
 645  1105.728
 646  1073.685
 647  1027.002
 648  1036.461
 649  1140.141
 650  1092.927
 651  1142.148
 652  1139.01
 653  1337.572
 654  1203.731
 655  1127.677
 656  1101.325
 657  1115.394
 658  1039.325
 659  936.3969
 660  940.1868
 661  1018.413
 662  1184.736
 663  1389.61
 664  1338.807
 665  1117.258
 666  947.9781
 667  1099.091
 668  1119.571
 669  1028.249
 670  899.2459
 671  1007.119
 672  1063.585
 673  1131.635
 674  1078.59
 675  1005.804
 676  968.005
 677  969.1902
 678  1020.087
 679  972.0719
 680  979.0684
 681  1179.299
 682  1281.193
 683  1223.906
 684  1134.772
 685  1133.6
 686  1123.449
 687  1061.566
 688  1136.779
 689  1294.034
 690  1136.993
 691  1073.085
 692  1060.593
 693  1206.465
 694  1248.542
 695  1342.148
 696  1380.416
 697  1191.375
 698  907.1775
 699  999.4352
 700  1162.636
 701  1185.61
 702  1159.952
 703  1216.856
 704  1283.443
 705  1239.113
 706  1170.742
 707  1076.526
 708  1009.696
 709  1086.306
 710  1213.358
 711  1125.073
 712  1062.285
 713  955.5459
 714  1021.689
 715  1003.026
 716  1151.426
 717  1123.493
 718  1210.057
 719  1193.321
 720  1228.109
 721  1229.684
 722  1308.276
 723  1515.236
 724  1478.614
 725  1458.75
 726  1425.084
 727  1537.501
 728  1430.881
 729  1212.864
 730  1094.533
 731  1058.019
 732  1017.754
 733  1052.085
 734  986.5822
 735  936.4188
 736  940.087
 737  1072.054
 738  1120.829
 739  1025.799
 740  1030.93
 741  1116.385
 742  1067.2
 743  949.8011
 744  862.8353
 745  1009.127
 746  1137.291
 747  1107.535
 748  892.4156
 749  762.1768
 750  808.3663
 751  1194.124
 752  1283.852
 753  1301.333
 754  1216.001
 755  1247.637
 756  1108.354
 757  926.2117
 758  1004.457
 759  1094.484
 760  1145.037
 761  1181.741
 762  1176.578
 763  1145.556
 764  1198.373
 765  1252.557
 766  1278.759
 767  1139.766
 768  1148.396
 769  1221.812
 770  1225.74
 771  1057.051
 772  954.1611
 773  999.6832
 774  1063.466
 775  1213.302
 776  1353.413
 777  1435.306
 778  1478.385
 779  1427.756
 780  1300.817
 781  993.383
 782  1001.476
 783  1180.798
 784  1332.351
 785  1202.071
 786  1183.455
 787  1157.56
 788  1101.818
 789  1020.635
 790  1078.501
 791  1054.353
 792  975.8433
 793  1067.513
 794  1221.933
 795  1319.536
 796  1317.426
 797  1418.88
 798  1456.327
 799  1232.894
 800  1147.473
 801  1176.047
 802  1221.778
 803  1111.688
 804  1089.791
 805  1055.097
 806  941.1765
 807  1032.377
 808  1106.278
 809  1171.089
 810  1160.313
 811  1364.973
 812  1415.094
 813  1275.838
 814  1139.294
 815  1211.215
 816  1338.191
 817  1346.88
 818  1387.957
 819  1417.22
 820  1256.967
 821  1147.106
 822  1152.572
 823  1134.505
 824  1077.636
 825  1032.472
 826  1186.275
 827  1193.685
 828  1216.727
 829  1354.426
 830  1338.42
 831  1219.716
 832  1194.045
 833  1443.578
 834  1370.642
 835  1301.187
 836  1282.929
 837  1436.729
 838  1366.233
 839  1349.685
 840  1406.821
 841  1308.881
 842  1154.461
 843  1094.868
 844  1277.212
 845  1333.427
 846  1315.078
 847  1342.132
 848  1474.795
 849  1327.453
 850  1300.504
 851  1284.897
 852  1499.453
 853  1503.134
 854  1473.538
 855  1433.763
 856  1362.013
 857  1320.377
 858  1343.333
 859  1422.331
 860  1341.917
 861  1205.657
 862  1270.554
 863  1417.779
 864  1398.294
 865  1355.574
 866  1399.902
 867  1379.176
 868  1321.052
 869  1357.928
 870  1499.293
 871  1522.595
 872  1415.26
 873  1290.701
 874  1275.443
 875  1122.685
 876  1068.825
 877  1072.648
 878  1158.404
 879  1222.111
 880  1120.098
 881  1162.184
 882  1201.22
 883  1270.936
 884  1247.055
 885  1193.555
 886  1261.538
 887  1138.691
 888  1143.116
 889  1171.968
 890  1257.866
 891  1251.806
 892  1187.048
 893  1248.876
 894  1168.082
 895  1096.208
 896  1019.823
 897  1304.951
 898  1432.063
 899  1487.886
 900  1325.8
 901  1356.618
 902  1364.435
 903  1353.111
 904  1248.438
 905  1102.532
 906  1145.757
 907  1243.908
 908  1278.224
 909  1151.457
 910  1218.271
 911  1218.532
 912  1137.011
 913  1009.227
 914  931.2627
 915  1042.069
 916  1057.655
 917  1189.193
 918  1199.491
 919  1362.046
 920  1309.204
 921  1423.959
 922  1348.373
 923  1403.767
 924  1437.657
 925  1478.895
 926  1474.301
 927  1478.755
 928  1393.336
 929  1145.839
 930  961.9094
 931  1029.794
 932  1137.627
 933  1172.739
 934  1199.648
 935  1237.728
 936  1165.103
 937  1060.491
 938  1109.878
 939  1289.908
 940  1333.868
 941  1291.258
 942  1260.311
 943  1212.378
 944  1114.469
 945  1030.326
 946  1095.849
 947  947.3132
 948  955.9431
 949  918.4151
 950  1006.377
 951  999.8942
 952  1167.193
 953  1276.833
 954  1174.834
 955  1012.02
 956  1036.502
 957  1089.056
 958  1080.072
 959  1127.386
 960  1179.857
 961  1243.762
 962  1140.87
 963  1257.461
 964  1185.831
 965  1176.973
 966  1184.002
 967  1293.193
 968  1257.268
 969  1049.173
 970  1008.732
 971  954.4387
 972  954.3369
 973  960.7388
 974  1098.42
 975  1178.632
 976  1097.381
 977  1104.33
 978  1315.681
 979  1368.161
 980  1377.742
 981  1341.335
 982  1285.029
 983  1240.136
 984  1101.387
 985  1135.261
 986  953.3867
 987  964.0169
 988  1095.259
 989  1330.916
 990  1284.843
 991  1208.989
 992  1159.236
 993  1208.456
 994  1205.329
 995  1234.879
 996  1223.413
 997  1032.992
 998  1017.916
 999  1164.907
1000  1211.83
1001  1240.266
1002  1304.64
1003  1493.593
1004  1447.867
1005  1310.838
1006  1188.795
1007  1174.638
1008  946.9509
1009  993.0538
1010  949.2726
1011  1006.146
1012  943.2465
1013  1049.27
1014  1229.532
1015  1305.049
1016  1438.158
1017  1306.436
1018  1290.011
1019  1129.571
1020  1206.967
1021  1233.304
1022  1288.972
1023  1265.603
