# Input file       =  1211113075.123591-PSRB0329-2ms-sampling-dd.dat
# Candidate        =  PSR_0332+5434
# Telescope        =  AR
# Epoch_topo       =  58261.512663467489
# Epoch_bary       =  N/A
# T_sample         =  0.002
# Data Folded      =  7340032
# Data Avg         =  1.64179632855919e-09
# Data StdDev      =  90.7549971233493 
# Profile Bins     =  512
# Profile Avg      =  -0.0634333038623637
# Profile StdDev   =  10866.3713719433 
# Reduced chi-sqr  =  1.116
# Prob(Noise)      <  0.0356   (~1.8 sigma)
# P_topo (ms)      =  714.525594379606  +/- 0.000381
# P'_topo (s/s)    =  -0                +/- 2.01e-10
# P''_topo (s/s^2) =  0                 +/- 8.87e-14
# P_bary (ms)      =  N/A
# P'_bary (s/s)    =  N/A
# P''_bary (s/s^2) =  N/A
# P_orb (s)        =  N/A
# asin(i)/c (s)    =  N/A
# eccentricity     =  N/A
# w (rad)          =  N/A
# T_peri           =  N/A
######################################################
   0  -1168.831
   1  -802.2275
   2  -1176.651
   3  -1501.813
   4  -1466.609
   5  -1313.024
   6  -1538.25
   7  -1727.885
   8  -2010.198
   9  -2259.521
  10  -2103.867
  11  -1532.821
  12  -365.2982
  13  521.01
  14  301.7311
  15  -130.7791
  16  -1602.646
  17  -2120.81
  18  -1918.912
  19  -700.8543
  20  -321.2508
  21  133.842
  22  -400.6589
  23  -1181.16
  24  -2013.032
  25  -2376.012
  26  -2268.963
  27  -1955.842
  28  -1524.163
  29  -1952.687
  30  -1962.617
  31  -1915.147
  32  -2536.425
  33  -2492.085
  34  -2187.073
  35  -1912.178
  36  -1909.27
  37  -2020.222
  38  -2401.499
  39  -2520.935
  40  -2573.596
  41  -2218.467
  42  -2077.902
  43  -2020.156
  44  -2124.16
  45  -1584.51
  46  -2034.179
  47  -1556.942
  48  -1580.166
  49  -1485.424
  50  -1928.475
  51  -1768.279
  52  -1261.67
  53  -1342.811
  54  -562.9152
  55  801.5752
  56  1684.776
  57  2383.557
  58  2435.532
  59  -1354.956
  60  -265.0168
  61  1840.87
  62  6107.78
  63  6187.863
  64  5203.88
  65  3217.002
  66  -2040.377
  67  -2251.604
  68  -2263.194
  69  -2173.006
  70  -1787.246
  71  -1912.1
  72  -2214.055
  73  -2140.69
  74  -2732.958
  75  -2718.895
  76  -2181.103
  77  -1771.539
  78  -1831.969
  79  -1585.739
  80  -1541.779
  81  -1571.393
  82  -1841.929
  83  -2163.979
  84  -2056.392
  85  -1715.674
  86  -1587.472
  87  -1608.936
  88  -1296.79
  89  -1573.866
  90  -1841.489
  91  -2124.016
  92  -1881.753
  93  -1865.522
  94  -1349.741
  95  -1658.396
  96  -1034.09
  97  -1344.136
  98  -1933.824
  99  -1861.569
 100  -1778.067
 101  -1634.503
 102  -1867.391
 103  -1934.995
 104  -2120.076
 105  -1858.937
 106  -1793.496
 107  -2126.457
 108  -1862.422
 109  -2092.095
 110  -1887.139
 111  -2038.695
 112  -1915.946
 113  -1465.784
 114  -1524.997
 115  -1716.456
 116  -1553.101
 117  -2157.496
 118  -1776.712
 119  -2029.89
 120  -1588.715
 121  -1030.564
 122  -525.7935
 123  -1304.822
 124  -1668.263
 125  -1823.883
 126  -1816.669
 127  -1899.611
 128  -1747.305
 129  -1286.641
 130  -1411.771
 131  -1527.512
 132  -2027.456
 133  -2180.936
 134  -2367.601
 135  -2636.591
 136  -2572.124
 137  -1464.768
 138  -1154.405
 139  -1847.97
 140  -2043.858
 141  -2063.864
 142  -1840.053
 143  -1584.006
 144  -1611.174
 145  -1648.991
 146  -1652.428
 147  -1505.566
 148  -1557.487
 149  -1624.596
 150  -1965.337
 151  -1956.196
 152  -1756.172
 153  -1857.409
 154  -1914.424
 155  -2066.716
 156  -2040.285
 157  -2091.873
 158  -2111.029
 159  -1747.102
 160  -1514.678
 161  -1705.224
 162  -1714.677
 163  -1947.405
 164  -1475.783
 165  -1276.764
 166  -1572.432
 167  -1704.865
 168  -1761.544
 169  -1865.874
 170  -1731.497
 171  -1777.876
 172  -1295.172
 173  -1768.335
 174  -1957.041
 175  -1981.125
 176  -2188.123
 177  -1915.536
 178  -1466.69
 179  -1064.748
 180  -1383.36
 181  -1709.078
 182  -1752.045
 183  -1948.711
 184  -2387.031
 185  -1633.947
 186  -1776.646
 187  -1943.78
 188  -2148.676
 189  -2194.214
 190  -2640.221
 191  -2548.207
 192  -2756.463
 193  -2880.952
 194  -2554.533
 195  -2256.15
 196  -1897.995
 197  -2005.695
 198  -2322.452
 199  -2215.283
 200  -2174.886
 201  -1920.228
 202  -1572.853
 203  -1811.111
 204  -646.3984
 205  -1542.879
 206  -1314.826
 207  378.1654
 208  5758.222
 209  12398.93
 210  24602.22
 211  29895.85
 212  26749.67
 213  19203.28
 214  26986.46
 215  31707.7
 216  35979.89
 217  32199.47
 218  22538.91
 219  14743.15
 220  4732.451
 221  -943.8873
 222  -2344.591
 223  -470.6721
 224  -1941.416
 225  -460.1579
 226  91.27509
 227  -1258.008
 228  -650.3992
 229  -826.6116
 230  -1703.659
 231  -1309.011
 232  -1171.079
 233  -1459.408
 234  -1420.016
 235  -1785.425
 236  -1618.267
 237  -1680.285
 238  -1423.597
 239  -1543.665
 240  -1102.079
 241  -1030.293
 242  -850.6896
 243  -1099.66
 244  -1215.66
 245  -1673.011
 246  -1606.312
 247  -1334.16
 248  -1186.902
 249  -1539.556
 250  -1249.926
 251  -1312.516
 252  -1937.223
 253  -1915.525
 254  -2181.404
 255  -1868.205
 256  -1529.861
 257  -983.0773
 258  -800.7382
 259  -1419.966
 260  -2067.903
 261  -1990.18
 262  -1513.494
 263  -927.8312
 264  -673.5114
 265  -794.6267
 266  -754.511
 267  -934.5002
 268  -1067.387
 269  -1377.709
 270  -1516.209
 271  -1504.927
 272  -1475.331
 273  -1186.071
 274  -1301.233
 275  -1553.567
 276  -1614.333
 277  -1960.094
 278  -1638.671
 279  -1741.164
 280  -1632.608
 281  -1595.985
 282  -1776.587
 283  -1768.25
 284  -2051.958
 285  -2131.767
 286  -2179.609
 287  -2227.608
 288  -1817.703
 289  -1455.081
 290  -1542.589
 291  -1299.531
 292  -1566.828
 293  -1752.389
 294  -1588.152
 295  -1415.37
 296  -1461.583
 297  -1205.347
 298  -1221.799
 299  -889.407
 300  -1166.708
 301  -2013.242
 302  -1997.935
 303  -1720.455
 304  -1686.311
 305  -1783.433
 306  -1816.997
 307  -1714.491
 308  -1830.453
 309  -1680.513
 310  -1177.944
 311  -1495.713
 312  -1293.854
 313  -2027.141
 314  -1917.63
 315  -1746.364
 316  -1266.661
 317  -838.337
 318  -1292.2
 319  -1548.582
 320  -2094.731
 321  -2574.556
 322  -2035.103
 323  -1259.183
 324  -302.3949
 325  -273.0221
 326  -817.1379
 327  -830.0918
 328  -1286.08
 329  -1254.42
 330  -508.3557
 331  59.87448
 332  293.3923
 333  -82.7153
 334  -386.8151
 335  -1116.138
 336  -1842.577
 337  -1336.041
 338  -417.5041
 339  242.181
 340  470.1008
 341  -587.4526
 342  -1437.486
 343  -1714.5
 344  -1314.612
 345  -370.1229
 346  255.7783
 347  113.8985
 348  -368.477
 349  -1151.497
 350  -1616.23
 351  -1426.031
 352  -809.7271
 353  -581.7709
 354  -745.308
 355  -417.7513
 356  -993.2039
 357  -825.9345
 358  -827.5048
 359  -592.8948
 360  -652.9905
 361  -632.6585
 362  -887.8347
 363  -768.7481
 364  -958.4199
 365  -987.2832
 366  -304.4662
 367  -655.6175
 368  -1172.68
 369  -1568.289
 370  -1985.394
 371  -1864.904
 372  -1473.428
 373  -761.2996
 374  -864.9966
 375  -1072.286
 376  -1071.748
 377  -1185.167
 378  -2086.727
 379  -1800.554
 380  -1728.227
 381  -1385.416
 382  -947.0021
 383  -1055.051
 384  -1248.282
 385  -1540.386
 386  -1168.505
 387  -1128.77
 388  -893.309
 389  -674.3168
 390  -571.1223
 391  -548.1882
 392  -1279.963
 393  -1556.439
 394  -1811.231
 395  -1185.435
 396  -1455.615
 397  -1197.016
 398  -869.1418
 399  -1693.444
 400  -1506.424
 401  -1820.768
 402  -2286.86
 403  -965.0703
 404  -1294.486
 405  -1935.462
 406  -397.2887
 407  -1420.364
 408  -2339.385
 409  -123.9605
 410  -2149.552
 411  -2080.24
 412  569.9219
 413  -2509.631
 414  -1528.596
 415  1357.262
 416  -3792.98
 417  -1109.234
 418  2109.976
 419  -6363.826
 420  797.8021
 421  2279.276
 422  -9570.28
 423  7917.426
 424  2041.193
 425  -20457.82
 426  74232.63
 427  69343.49
 428  49735.61
 429  2909.078
 430  59154.16
 431  86792.12
 432  34323.92
 433  27814.72
 434  16471.89
 435  -5390.451
 436  1239.817
 437  -1243.665
 438  -5678.873
 439  1495.647
 440  -1605.721
 441  -3574.683
 442  -15.89011
 443  -2654.035
 444  -2994.698
 445  -687.1189
 446  -2455.015
 447  -2269.771
 448  -1004.081
 449  -2638.547
 450  -2089.141
 451  -1722.449
 452  -2570.484
 453  -2001.226
 454  -1988.724
 455  -2311.515
 456  -1501.586
 457  -1342.147
 458  -1920.767
 459  -1815.043
 460  -1499.014
 461  -1303.237
 462  -850.2937
 463  -1039.005
 464  -1039.81
 465  -1621.854
 466  -2093.17
 467  -1618.783
 468  -1243.137
 469  -1433.593
 470  -2055.043
 471  -1978.518
 472  -1705.428
 473  -1232.24
 474  -1595.688
 475  -1857.726
 476  -2320.394
 477  -2201.754
 478  -1829.198
 479  -2253.573
 480  -1952.097
 481  -1599.948
 482  -1854.879
 483  -1679.355
 484  -1963.301
 485  -2442.784
 486  -2458.449
 487  -2254.386
 488  -1181.062
 489  -1330.971
 490  -993.9391
 491  -1310.591
 492  -2144.202
 493  -2456.209
 494  -1744.034
 495  -1162.263
 496  -990.7416
 497  -498.76
 498  -300.0628
 499  -721.0236
 500  -1228.338
 501  -1279.054
 502  -720.2615
 503  -606.1196
 504  -401.7447
 505  -120.1979
 506  -368.5739
 507  -671.4764
 508  -1087.675
 509  -1217.985
 510  -896.9017
 511  -607.3173
