# Input file       =  1212030580.120176_cleaned.dat
# Candidate        =  PSR_0332+5434
# Telescope        =  AR
# Epoch_topo       =  58272.131934261299
# Epoch_bary       =  N/A
# T_sample         =  0.002
# Data Folded      =  7208960
# Data Avg         =  1.52737126975765 
# Data StdDev      =  15.9382474467922 
# Profile Bins     =  1024
# Profile Avg      =  10752.7464915058 
# Profile StdDev   =  1337.29399572168 
# Reduced chi-sqr  =  0.891
# Prob(Noise)      <  0.995   (~0.0 sigma)
# P_topo (ms)      =  714.514858422139  +/- 3.02e-05
# P'_topo (s/s)    =  -0                +/- 1.62e-11
# P''_topo (s/s^2) =  0                 +/- 7.28e-15
# P_bary (ms)      =  N/A
# P'_bary (s/s)    =  N/A
# P''_bary (s/s^2) =  N/A
# P_orb (s)        =  N/A
# asin(i)/c (s)    =  N/A
# eccentricity     =  N/A
# w (rad)          =  N/A
# T_peri           =  N/A
######################################################
   0  10477.77
   1  10596.02
   2  10725
   3  10609.75
   4  10022.01
   5  10107
   6  10693.43
   7  10859
   8  10876
   9  11263.83
  10  11644.2
  11  11822.89
  12  11552.57
  13  11249.62
  14  10499.94
  15  9468.568
  16  8832.874
  17  8869.925
  18  9070.045
  19  9786.061
  20  10403.03
  21  10387.61
  22  10195.93
  23  10471.29
  24  11190.25
  25  11205.29
  26  11226.88
  27  11002.58
  28  10885.74
  29  10500.64
  30  10030.14
  31  9880.398
  32  10141.79
  33  10546.37
  34  11364.31
  35  11824.52
  36  11961.21
  37  11284.79
  38  10796.12
  39  10910.19
  40  10982.03
  41  10823.7
  42  10792.07
  43  10278.87
  44  9779.226
  45  9282.068
  46  9722.719
  47  9968.082
  48  10546.86
  49  10995.4
  50  11569.39
  51  11863.75
  52  11920.97
  53  11860.71
  54  11759.62
  55  11111.77
  56  10783.06
  57  10127.56
  58  9752.979
  59  9269.689
  60  9587.229
  61  9913.578
  62  10103.94
  63  9626.276
  64  10137.27
  65  10585.54
  66  11358.91
  67  11489.76
  68  11347.76
  69  10827.64
  70  10415.32
  71  9941.015
  72  9976.827
  73  9818.385
  74  10021.46
  75  10600.58
  76  10603.48
  77  10687.42
  78  10749.26
  79  10845.36
  80  10466.32
  81  10422.07
  82  10448.74
  83  10268.8
  84  10426.31
  85  10554.72
  86  10198.63
  87  10435.27
  88  11206.61
  89  11942.8
  90  12605.45
  91  12854.16
  92  13020.97
  93  12847.2
  94  12941.64
  95  12653.42
  96  12201.38
  97  11744.83
  98  10964.57
  99  10708.21
 100  10645.24
 101  10556.53
 102  10695.75
 103  11148.2
 104  11275.37
 105  11536.84
 106  11516.37
 107  11760.34
 108  12132.09
 109  11684.73
 110  10958.62
 111  9722.544
 112  9468.613
 113  9464.209
 114  10023.72
 115  10462.54
 116  10794.4
 117  10358.69
 118  10550.65
 119  11430.07
 120  11944.24
 121  12005.69
 122  11910.03
 123  11790.88
 124  11458.73
 125  10612.19
 126  10478.94
 127  10100.39
 128  10126.39
 129  10849.91
 130  11183.95
 131  11742.62
 132  11383.94
 133  11239.34
 134  11092.66
 135  11354.89
 136  11717.96
 137  11594.24
 138  11385.02
 139  11359.27
 140  10811.23
 141  10505.94
 142  10391.77
 143  10830.28
 144  10406.2
 145  10727.25
 146  10902.58
 147  10841.64
 148  11043.28
 149  11477.98
 150  11318.15
 151  10593.06
 152  10120.29
 153  9805.226
 154  9850.211
 155  10784.21
 156  11394.63
 157  11204.4
 158  11048.63
 159  10865.38
 160  11222.9
 161  11379.61
 162  11448.4
 163  11208.09
 164  10738.8
 165  10218.33
 166  10013.71
 167  9802.283
 168  9515.56
 169  9775.804
 170  10846.21
 171  11155.48
 172  11230.83
 173  11468.34
 174  11657.65
 175  11504.58
 176  11191.67
 177  10668.32
 178  10254.04
 179  10174.31
 180  10223.35
 181  10117.71
 182  10457.58
 183  11034.73
 184  11022.24
 185  10410.88
 186  10164.56
 187  10581.89
 188  10885.35
 189  11073.14
 190  11373.43
 191  11099.88
 192  10583.04
 193  10736.72
 194  11427.35
 195  11636.45
 196  11117.67
 197  11110.34
 198  11097.11
 199  10951.8
 200  10454.46
 201  10602.73
 202  10924.69
 203  11271.32
 204  10642.28
 205  10637.6
 206  10040.64
 207  10069
 208  10333.09
 209  10390.96
 210  10274.24
 211  10116.26
 212  10741.57
 213  11003.38
 214  11308.26
 215  11547.28
 216  11530.02
 217  11357.28
 218  10833.4
 219  10538.72
 220  10118.22
 221  9748.793
 222  10080.68
 223  10057.11
 224  10566.83
 225  10521.86
 226  10547.08
 227  10921.59
 228  10888.12
 229  10673.51
 230  10619.13
 231  10890.09
 232  11567.94
 233  11501.93
 234  11124.01
 235  10917.57
 236  10872.9
 237  10753.96
 238  11123.2
 239  11084.25
 240  11112.99
 241  11077.37
 242  11410.06
 243  11559.52
 244  11479.28
 245  11300.33
 246  11512.44
 247  11094.8
 248  11123.54
 249  11234.01
 250  10706.88
 251  10019.84
 252  9758.242
 253  9732.803
 254  10281.54
 255  10494.39
 256  10508.24
 257  10797.48
 258  11091.49
 259  11262.77
 260  10857.64
 261  10374.31
 262  9914.696
 263  9754.296
 264  9399.12
 265  9442.941
 266  10038.77
 267  10635.3
 268  11245.16
 269  11597.92
 270  11746.55
 271  11157.46
 272  11311.79
 273  11499.62
 274  10772.1
 275  10389.54
 276  9941.117
 277  9849.538
 278  9802.475
 279  10552.48
 280  10947.17
 281  11107.75
 282  11167.25
 283  11141.96
 284  10860.6
 285  10953.39
 286  10703.34
 287  10594.73
 288  10452.79
 289  10196.98
 290  10413.94
 291  10585.81
 292  10739.59
 293  11073.6
 294  10598.71
 295  10427.17
 296  10459.84
 297  11030.54
 298  10859.93
 299  10634.73
 300  10833.55
 301  10769.66
 302  10562.94
 303  10214.1
 304  10376.58
 305  10543.16
 306  10547.45
 307  9977.393
 308  9703.789
 309  9494.375
 310  9498.113
 311  9504.048
 312  10104.87
 313  10530.3
 314  10400.29
 315  9933.408
 316  9514.152
 317  9576.675
 318  9459.497
 319  9459.806
 320  10022.28
 321  10284.63
 322  10759.64
 323  10911.92
 324  11106.8
 325  11207.75
 326  11382.64
 327  10909.75
 328  10733.77
 329  10162.44
 330  9886.502
 331  9712.249
 332  10039.59
 333  10709.77
 334  11159.96
 335  11252.36
 336  11899.38
 337  12213.31
 338  11967.06
 339  12011.44
 340  11775.96
 341  11415.36
 342  10660.42
 343  10525.08
 344  10428.85
 345  10010.49
 346  10069.2
 347  10738.42
 348  10858.65
 349  10928.84
 350  10855.74
 351  10896.49
 352  10849.93
 353  10771.85
 354  10781.13
 355  11118.02
 356  11236.11
 357  11569.93
 358  11675.91
 359  10954.07
 360  10453.4
 361  10303.35
 362  10152.4
 363  10353.5
 364  10785.27
 365  10856.71
 366  11171.7
 367  11152.24
 368  11384.03
 369  11557.4
 370  11578.03
 371  10904.32
 372  10345.96
 373  10337.62
 374  10830.11
 375  10750.67
 376  10236.69
 377  10105.19
 378  10828
 379  11825.09
 380  11682.26
 381  11467.84
 382  11379.22
 383  11163.78
 384  10944.57
 385  10579.71
 386  10450.95
 387  10759.41
 388  11373.39
 389  11578.41
 390  11984.84
 391  12218
 392  11899.77
 393  11385.27
 394  11065.93
 395  10806.75
 396  10670.33
 397  10603.07
 398  10266.32
 399  9968.02
 400  9590.376
 401  9996.556
 402  10688.29
 403  10919.59
 404  10480.51
 405  10228.76
 406  10587.18
 407  10496.5
 408  10680.23
 409  10428.55
 410  9779.337
 411  9378.494
 412  9260.116
 413  9324.105
 414  9091.118
 415  9004.465
 416  8663.224
 417  8878.401
 418  9226.555
 419  10046.22
 420  10307.39
 421  10793.38
 422  11309
 423  11231.12
 424  11128.48
 425  10574.09
 426  10307.8
 427  9748.946
 428  9664.432
 429  9904.88
 430  9748.265
 431  9820.652
 432  9988.818
 433  10569.16
 434  10828.89
 435  11083.39
 436  11387.53
 437  11724.26
 438  11261.61
 439  10757.71
 440  10576.75
 441  9833.232
 442  9457.452
 443  9506.212
 444  9818.355
 445  10018.71
 446  10796.52
 447  11253.35
 448  11353.76
 449  11539.95
 450  11997.58
 451  11731.82
 452  11427.84
 453  11166.24
 454  11043.77
 455  10448.96
 456  10525.85
 457  10351.04
 458  10105.18
 459  9615.924
 460  9155.517
 461  9561.432
 462  9444.031
 463  9357.853
 464  9517.36
 465  9593.175
 466  9984.462
 467  9559.828
 468  9448.025
 469  9698.492
 470  10019.81
 471  10045.03
 472  10243.67
 473  10493.03
 474  10260.52
 475  10936.08
 476  11330.25
 477  11140.44
 478  10172.07
 479  10061.26
 480  9914.001
 481  9888.077
 482  10157.3
 483  10198.34
 484  10529.95
 485  10596.16
 486  10960.96
 487  10874.23
 488  11037.28
 489  11011.65
 490  11475.62
 491  11802.46
 492  11520.27
 493  11006.33
 494  10497.04
 495  10683.78
 496  10382.51
 497  10687.7
 498  11178.24
 499  12314.63
 500  12472.8
 501  11917.97
 502  11440.7
 503  11475.19
 504  11332.56
 505  11557.83
 506  11977.95
 507  12038.65
 508  11158.93
 509  10328.46
 510  10036.86
 511  10941.71
 512  11352.08
 513  11768.12
 514  11249.91
 515  10956.63
 516  10424.4
 517  10505.26
 518  10903.74
 519  11133.79
 520  11148.79
 521  10865.26
 522  10750.27
 523  10459.48
 524  10287.99
 525  10501.14
 526  11213.87
 527  11008.44
 528  10705.23
 529  10739.3
 530  11316.65
 531  11489.17
 532  11251.84
 533  11143.85
 534  11049.53
 535  10483.75
 536  10189.72
 537  9747.164
 538  9599.512
 539  9875.867
 540  10445.95
 541  10785.94
 542  10926.67
 543  10959.78
 544  11620.69
 545  11599.88
 546  11559.14
 547  10886.7
 548  10337.93
 549  9742.175
 550  9688.973
 551  10071.61
 552  10518.28
 553  10646.32
 554  11459.29
 555  12266.22
 556  12540.59
 557  12409.1
 558  12222.49
 559  11885.24
 560  11599.18
 561  11264.42
 562  11204.25
 563  10692.75
 564  10646.47
 565  10777.06
 566  10427.39
 567  10550.63
 568  10785.48
 569  11076.58
 570  11307.14
 571  10806.69
 572  10863.12
 573  10944.73
 574  10639.99
 575  10302.42
 576  10070.58
 577  9526.107
 578  9212.212
 579  9683.641
 580  10299.23
 581  10813
 582  10596.31
 583  10587.19
 584  10561.26
 585  10608.1
 586  10908.42
 587  10793.2
 588  10978.05
 589  10998.27
 590  10936.11
 591  10991.86
 592  10509.03
 593  10169.22
 594  10590.04
 595  11814.37
 596  12280.94
 597  12198.07
 598  11665.73
 599  12011.85
 600  12162.37
 601  12118.97
 602  11277.74
 603  11113.09
 604  10554.99
 605  10848.15
 606  11047.21
 607  10803.59
 608  10949.72
 609  11055.83
 610  11124.79
 611  10996.15
 612  10600.1
 613  10467.12
 614  10201.07
 615  9949.123
 616  9858.856
 617  10138.15
 618  10543.48
 619  10946.88
 620  11455.58
 621  11269.16
 622  11389.54
 623  11358.24
 624  11545.94
 625  11081.21
 626  10801.22
 627  10685.11
 628  10658.4
 629  10402.79
 630  10275.82
 631  10109.22
 632  10405.38
 633  10596.82
 634  10846.55
 635  11026.27
 636  11290.76
 637  10720.42
 638  10825.41
 639  10767.86
 640  10604.87
 641  10481.05
 642  10274.31
 643  10204.43
 644  9271.639
 645  9026.796
 646  9895.262
 647  10324
 648  10631.91
 649  11099.17
 650  11342.23
 651  11385.02
 652  11037.51
 653  11314.04
 654  11092.37
 655  11284.03
 656  10850.66
 657  10566.77
 658  9683.114
 659  9974.482
 660  10377.01
 661  10738.11
 662  10180.41
 663  10260.23
 664  10720.76
 665  10524.83
 666  10111.05
 667  10214.09
 668  10664.65
 669  11049.94
 670  11240.41
 671  11156.9
 672  10567.74
 673  10205.29
 674  10528.4
 675  10686.61
 676  10923.03
 677  11200.4
 678  11182.03
 679  11674.91
 680  10863.35
 681  10826.85
 682  10656.62
 683  10804.67
 684  10855.85
 685  10986.15
 686  10693
 687  10187.83
 688  9990.368
 689  10250.17
 690  10404.94
 691  10267.75
 692  10308.61
 693  10857.82
 694  10992.56
 695  11056.66
 696  10778.62
 697  10675.67
 698  10481.84
 699  10226.39
 700  10064.85
 701  9541.602
 702  9999.829
 703  10796.69
 704  10974.99
 705  10811.2
 706  10900.73
 707  11315.89
 708  10968.74
 709  10797.92
 710  10780.9
 711  11203.84
 712  11107.96
 713  10428.8
 714  10335.13
 715  10115.81
 716  10271.56
 717  10670.59
 718  11517.93
 719  11321.95
 720  11362.66
 721  11412.86
 722  11207.7
 723  11059.27
 724  10853.84
 725  10971.05
 726  10311.1
 727  9862.248
 728  9413.268
 729  9413.923
 730  9660.33
 731  10020.46
 732  10530.38
 733  11019.83
 734  11322.33
 735  10787.79
 736  10339.53
 737  10153.67
 738  10674.86
 739  10489.72
 740  10216.33
 741  9534.704
 742  9484.985
 743  9518.626
 744  9774.771
 745  10248.67
 746  10955.7
 747  11042.66
 748  11231.66
 749  11270.63
 750  11602.72
 751  11528.91
 752  11306.39
 753  10569.76
 754  10079.38
 755  9851.427
 756  9951.727
 757  10161.52
 758  10878.85
 759  11342.14
 760  11632.61
 761  11823.64
 762  12060.55
 763  11479.78
 764  11023.35
 765  10786.73
 766  10967
 767  10785.75
 768  10436.31
 769  10434.37
 770  10530.72
 771  10382.41
 772  11086.82
 773  11327.22
 774  10912
 775  10467.11
 776  10705.19
 777  10884
 778  10662.67
 779  10581.11
 780  10450.22
 781  10250.83
 782  10134.3
 783  9996.271
 784  10640.53
 785  11643.66
 786  11945.86
 787  11934.95
 788  11838.24
 789  11549.44
 790  11017.56
 791  11230.68
 792  11209.62
 793  10862.27
 794  10796.17
 795  10841.12
 796  11208.22
 797  11278.09
 798  11583.29
 799  12159.77
 800  11930.64
 801  11838.75
 802  12042.43
 803  12101.67
 804  11725.14
 805  11426.23
 806  11332.58
 807  11003.3
 808  10898.74
 809  10948.86
 810  10715.74
 811  10612.78
 812  11187.4
 813  11694.92
 814  12037.68
 815  11978.75
 816  11973.4
 817  11887.45
 818  12008.91
 819  11844.27
 820  11767.52
 821  10668.76
 822  9950.174
 823  9548.559
 824  9834.362
 825  9909.737
 826  10169.04
 827  10322.29
 828  10604.54
 829  10444.5
 830  10414.82
 831  10002.33
 832  10445.22
 833  10348.85
 834  9632.083
 835  9736.931
 836  9579.564
 837  9652.637
 838  9407.199
 839  10017.24
 840  10374.15
 841  10276.75
 842  10245.48
 843  9777.88
 844  10389.19
 845  10654.37
 846  11307.26
 847  11143.17
 848  10915.79
 849  10708
 850  9914.482
 851  9561.366
 852  9794.025
 853  10460.89
 854  10679.44
 855  10774.6
 856  11029.38
 857  11077.82
 858  11629.38
 859  11577.02
 860  11979.17
 861  11671.43
 862  11501.39
 863  10669.63
 864  10383.41
 865  10146.5
 866  10790.99
 867  10978.93
 868  10902.14
 869  10631.07
 870  10772.62
 871  10785.78
 872  10980.77
 873  11365.4
 874  11866.44
 875  11339.49
 876  10941.35
 877  9754.423
 878  9918.649
 879  9969.546
 880  10496.49
 881  10774.58
 882  11176.26
 883  11231.49
 884  10678.92
 885  10788.29
 886  10911
 887  10875.88
 888  10282.14
 889  9905.469
 890  9615.681
 891  9378.085
 892  9540.554
 893  9554.556
 894  10148.39
 895  10788.31
 896  11236.55
 897  11680.69
 898  11278.92
 899  11126.43
 900  11441.59
 901  11101.31
 902  11176.8
 903  10632.32
 904  10330.99
 905  10387.42
 906  10170.52
 907  10219.39
 908  10634.32
 909  11093.73
 910  11308.98
 911  11553.86
 912  11705.56
 913  11560.74
 914  11538
 915  11636.92
 916  11093.8
 917  10623.73
 918  10302.86
 919  10469.21
 920  10890.76
 921  11095.16
 922  11908.53
 923  11609.79
 924  11482.5
 925  11479.67
 926  11749.55
 927  11862.81
 928  12151.35
 929  12232.05
 930  11469.43
 931  10172.08
 932  9923.664
 933  10489.01
 934  10617.04
 935  11020.1
 936  10953.36
 937  10362.2
 938  10029.62
 939  10369.7
 940  11288.44
 941  11599.02
 942  11137.21
 943  10232.67
 944  9245.436
 945  9119.807
 946  9290.928
 947  9357.087
 948  9567.844
 949  10229.51
 950  10804.31
 951  10952.02
 952  10678.18
 953  10704.21
 954  10823.24
 955  11122.49
 956  10521.04
 957  9836.661
 958  9722.796
 959  10309.58
 960  10514.51
 961  10432.96
 962  10657.93
 963  10626.81
 964  10886.45
 965  10894.03
 966  10945.81
 967  11066.63
 968  11279.45
 969  11485.53
 970  11125.18
 971  10147.69
 972  9502.631
 973  9190.957
 974  9276.493
 975  9782.021
 976  10632.41
 977  10721.27
 978  10711.69
 979  11002.49
 980  11658.94
 981  11892.42
 982  11875.83
 983  11696.11
 984  11646.86
 985  11324.2
 986  10787.13
 987  10584.73
 988  10737.53
 989  10983.54
 990  11716.01
 991  11794.92
 992  12028.43
 993  12228.9
 994  12345.04
 995  12018.67
 996  11920.17
 997  12028.6
 998  11278.82
 999  10582.64
1000  10241.19
1001  10026.62
1002  10190.54
1003  10665.97
1004  10671.31
1005  10674.08
1006  10767.31
1007  10969.45
1008  10969.48
1009  10896.04
1010  10252.95
1011  10018.8
1012  10108.11
1013  9948.351
1014  9563.306
1015  9589.484
1016  10158.02
1017  10622.16
1018  10880.42
1019  11299.65
1020  11807.29
1021  11693.03
1022  11230.58
1023  10678.96
