# Input file       =  1212289145.117255_cleaned.dat
# Candidate        =  PSR_0332+5434
# Telescope        =  AR
# Epoch_topo       =  58275.124584690449
# Epoch_bary       =  N/A
# T_sample         =  0.002
# Data Folded      =  7143424
# Data Avg         =  0.0483483647049526
# Data StdDev      =  1.00006141580261 
# Profile Bins     =  512
# Profile Avg      =  674.579511617319 
# Profile StdDev   =  118.125838829537 
# Reduced chi-sqr  =  2.069
# Prob(Noise)      <  2.57e-40   (~13.2 sigma)
# P_topo (ms)      =  714.511960155267  +/- 0.000252
# P'_topo (s/s)    =  -0                +/- 1.37e-10
# P''_topo (s/s^2) =  0                 +/- 6.19e-14
# P_bary (ms)      =  N/A
# P'_bary (s/s)    =  N/A
# P''_bary (s/s^2) =  N/A
# P_orb (s)        =  N/A
# asin(i)/c (s)    =  N/A
# eccentricity     =  N/A
# w (rad)          =  N/A
# T_peri           =  N/A
######################################################
   0  634.2371
   1  795.5893
   2  718.4433
   3  728.8278
   4  750.9199
   5  760.126
   6  750.4501
   7  647.5183
   8  519.3711
   9  551.072
  10  665.9185
  11  691.5568
  12  611.6796
  13  668.3625
  14  643.5367
  15  592.8835
  16  628.3121
  17  701.496
  18  667.4955
  19  676.7352
  20  555.1611
  21  562.4742
  22  641.5408
  23  639.5352
  24  566.6857
  25  609.837
  26  696.5211
  27  714.9412
  28  673.2708
  29  763.3328
  30  770.1065
  31  630.3112
  32  728.0011
  33  685.4996
  34  804.5327
  35  755.5568
  36  773.4215
  37  670.4957
  38  658.8294
  39  653.248
  40  692.4764
  41  638.5834
  42  692.1477
  43  756.5191
  44  825.8444
  45  842.8451
  46  736.0372
  47  695.7551
  48  652.7317
  49  639.8912
  50  790.1599
  51  797.4037
  52  674.8297
  53  715.5927
  54  828.1694
  55  796.2195
  56  730.2844
  57  734.8747
  58  731.4306
  59  810.2859
  60  732.7939
  61  663.8644
  62  605.7236
  63  665.9588
  64  714.8118
  65  762.5423
  66  822.7126
  67  832.2745
  68  831.1872
  69  843.0165
  70  816.8661
  71  708.6107
  72  769.7349
  73  698.1075
  74  776.876
  75  922.5802
  76  917.7007
  77  750.5391
  78  740.9497
  79  880.8384
  80  929.4382
  81  850.2287
  82  757.2053
  83  805.4424
  84  909.6641
  85  889.7318
  86  1079.226
  87  1215.257
  88  1283.44
  89  1399.71
  90  1323.709
  91  1211.21
  92  1007.973
  93  808.3332
  94  737.3595
  95  729.5157
  96  670.1591
  97  780.7484
  98  810.1028
  99  740.4559
 100  866.7987
 101  913.6836
 102  915.8308
 103  752.9642
 104  816.2977
 105  919.5355
 106  815.0245
 107  859.2844
 108  741.543
 109  748.2459
 110  724.0585
 111  777.8699
 112  819.4792
 113  799.4711
 114  755.8384
 115  783.9465
 116  779.0265
 117  714.7532
 118  775.5181
 119  689.2463
 120  720.3004
 121  784.249
 122  769.9462
 123  778.0723
 124  756.8403
 125  834.1354
 126  724.8868
 127  665.6339
 128  645.9286
 129  674.3292
 130  697.6515
 131  775.9506
 132  857.703
 133  878.3845
 134  719.2681
 135  651.374
 136  772.4423
 137  862.1841
 138  730.8149
 139  716.7771
 140  866.9388
 141  858.7086
 142  889.3727
 143  872.4894
 144  724.8797
 145  698.0575
 146  705.243
 147  833.8989
 148  976.5396
 149  835.1777
 150  823.9869
 151  818.9814
 152  702.1309
 153  695.0027
 154  766.4072
 155  805.8781
 156  796.7297
 157  835.3222
 158  863.5608
 159  889.7071
 160  785.7628
 161  838.3011
 162  846.875
 163  725.5016
 164  631.4582
 165  700.3965
 166  770.5644
 167  616.7888
 168  712.5708
 169  738.928
 170  694.2737
 171  530.3398
 172  629.3872
 173  691.4435
 174  574.4802
 175  721.1372
 176  815.2059
 177  690.8101
 178  711.2095
 179  699.976
 180  720.4105
 181  686.6593
 182  698.7361
 183  642.1348
 184  726.6012
 185  678.4711
 186  731.1014
 187  719.9016
 188  606.0551
 189  562.2239
 190  608.1588
 191  658.899
 192  523.5144
 193  653.8494
 194  701.441
 195  577.8141
 196  649.3064
 197  690.8015
 198  769.2722
 199  709.5527
 200  638.0521
 201  644.8342
 202  643.4154
 203  748.3539
 204  599.504
 205  557.019
 206  550.0508
 207  636.3671
 208  636.9439
 209  615.2025
 210  547.6244
 211  509.1453
 212  647.5816
 213  660.5016
 214  652.9069
 215  652.3138
 216  756.3796
 217  699.6851
 218  580.6899
 219  571.3495
 220  637.041
 221  556.3731
 222  577.4077
 223  748.5941
 224  694.8297
 225  510.2647
 226  556.322
 227  603.1727
 228  540.6235
 229  476.6265
 230  555.7098
 231  727.1888
 232  815.2167
 233  689.9628
 234  644.5793
 235  625.2884
 236  478.532
 237  529.0537
 238  628.4529
 239  754.3199
 240  685.996
 241  534.596
 242  665.6666
 243  712.5399
 244  647.0454
 245  613.166
 246  568.5812
 247  640.6248
 248  570.8461
 249  672.2947
 250  696.3187
 251  529.3748
 252  540.4297
 253  630.4973
 254  529.8848
 255  582.4706
 256  576.4774
 257  520.044
 258  632.3287
 259  688.0236
 260  648.0603
 261  695.2767
 262  524.5018
 263  513.4708
 264  554.3069
 265  581.9651
 266  687.2621
 267  648.2668
 268  647.5831
 269  646.4718
 270  553.2549
 271  481.4859
 272  621.4911
 273  546.6121
 274  575.9196
 275  495.4648
 276  569.6466
 277  572.1947
 278  463.9995
 279  580.0182
 280  662.4774
 281  554.0464
 282  636.2191
 283  676.3973
 284  642.4387
 285  653.6702
 286  568.604
 287  576.3885
 288  697.015
 289  756.5202
 290  780.5684
 291  690.2325
 292  546.1193
 293  604.6949
 294  672.2056
 295  764.4952
 296  686.4551
 297  522.1522
 298  575.787
 299  664.8949
 300  634.2368
 301  644.5433
 302  708.643
 303  601.6546
 304  586.1175
 305  555.6484
 306  577.5765
 307  593.2479
 308  547.4205
 309  576.7925
 310  608.6359
 311  673.2307
 312  557.9712
 313  566.0426
 314  688.7605
 315  679.5593
 316  637.2756
 317  563.3939
 318  412.9791
 319  381.2393
 320  436.6598
 321  596.7057
 322  671.9623
 323  619.2557
 324  529.9705
 325  490.9019
 326  527.3566
 327  593.2226
 328  493.0567
 329  572.2457
 330  514.4584
 331  567.907
 332  654.6678
 333  607.2654
 334  541.5488
 335  409.6762
 336  401.3085
 337  514.0157
 338  588.4517
 339  567.9796
 340  628.0169
 341  548.6702
 342  470.5361
 343  495.9774
 344  590.934
 345  524.8945
 346  473.5348
 347  525.8862
 348  616.2328
 349  604.463
 350  591.3675
 351  661.7493
 352  500.6688
 353  426.8221
 354  533.6301
 355  568.6786
 356  463.9433
 357  483.433
 358  621.1904
 359  608.2855
 360  559.5452
 361  588.8294
 362  612.5521
 363  516.0297
 364  472.0635
 365  543.6163
 366  517.9657
 367  526.9747
 368  681.2372
 369  647.9376
 370  656.5651
 371  692.8326
 372  580.3484
 373  597.3365
 374  557.749
 375  467.6791
 376  444.4587
 377  625.6653
 378  710.8107
 379  507.5298
 380  473.0005
 381  534.048
 382  531.5447
 383  582.7997
 384  457.1862
 385  480.1245
 386  510.1573
 387  633.4276
 388  631.4097
 389  607.8404
 390  710.5536
 391  715.2297
 392  641.495
 393  551.0331
 394  551.5143
 395  609.5887
 396  664.4017
 397  701.1628
 398  580.0749
 399  623.3341
 400  661.0521
 401  637.7218
 402  618.5471
 403  638.5101
 404  626.7131
 405  710.3124
 406  728.8376
 407  764.5439
 408  739.7124
 409  582.6635
 410  508.1329
 411  693.6245
 412  677.0341
 413  574.5943
 414  692.8572
 415  777.5734
 416  696.3268
 417  519.7059
 418  522.9522
 419  605.0233
 420  588.4496
 421  707.7903
 422  653.7256
 423  681.0411
 424  735.5733
 425  669.8723
 426  619.0596
 427  604.002
 428  600.1893
 429  709.37
 430  735.4224
 431  905.233
 432  803.3062
 433  779.596
 434  781.2866
 435  769.2169
 436  728.949
 437  670.6917
 438  697.087
 439  777.62
 440  698.5092
 441  698.2146
 442  705.9933
 443  747.8027
 444  804.2047
 445  830.4485
 446  771.5413
 447  633.0389
 448  690.599
 449  725.1395
 450  731.183
 451  758.2158
 452  658.0739
 453  472.5207
 454  552.9065
 455  667.6017
 456  558.5856
 457  575.8328
 458  506.8789
 459  603.5352
 460  603.9641
 461  738.4483
 462  645.8295
 463  729.618
 464  868.2944
 465  844.0341
 466  746.5655
 467  752.1139
 468  675.6439
 469  597.7896
 470  690.0676
 471  765.244
 472  842.2521
 473  830.7321
 474  787.6107
 475  722.8088
 476  617.4703
 477  642.4613
 478  646.6819
 479  616.7001
 480  709.5083
 481  679.5598
 482  688.994
 483  636.6331
 484  622.5398
 485  584.5531
 486  611.769
 487  675.2982
 488  726.9551
 489  667.0859
 490  683.7947
 491  689.0623
 492  662.4865
 493  556.0215
 494  505.0349
 495  609.3303
 496  661.2332
 497  635.5196
 498  662.8456
 499  670.5948
 500  726.2166
 501  671.2348
 502  721.5067
 503  762.7155
 504  634.4387
 505  629.4624
 506  597.425
 507  625.1892
 508  666.0468
 509  747.6389
 510  737.1076
 511  553.2263
