# Input file       =  1212232536.125337_cleaned.dat
# Candidate        =  PSR_0332+5434
# Telescope        =  AR
# Epoch_topo       =  58274.469388024736
# Epoch_bary       =  N/A
# T_sample         =  0.002
# Data Folded      =  7340032
# Data Avg         =  0.0396962913489136
# Data StdDev      =  2.53380998856041 
# Profile Bins     =  512
# Profile Avg      =  569.010553567534 
# Profile StdDev   =  303.380763532117 
# Reduced chi-sqr  =  1.317
# Prob(Noise)      <  1.78e-06   (~4.6 sigma)
# P_topo (ms)      =  714.512940740565  +/- 0.000273
# P'_topo (s/s)    =  -0                +/- 1.44e-10
# P''_topo (s/s^2) =  0                 +/- 6.37e-14
# P_bary (ms)      =  N/A
# P'_bary (s/s)    =  N/A
# P''_bary (s/s^2) =  N/A
# P_orb (s)        =  N/A
# asin(i)/c (s)    =  N/A
# eccentricity     =  N/A
# w (rad)          =  N/A
# T_peri           =  N/A
######################################################
   0  671.3127
   1  682.6716
   2  768.0394
   3  694.3345
   4  457.703
   5  641.1922
   6  693.799
   7  866.3682
   8  563.565
   9  515.3184
  10  592.0108
  11  673.1069
  12  498.4835
  13  294.983
  14  660.1982
  15  672.8985
  16  684.2241
  17  557.2818
  18  552.1676
  19  623.0654
  20  374.7675
  21  251.5594
  22  421.3741
  23  776.535
  24  749.3439
  25  712.0555
  26  1018.136
  27  1230.453
  28  1139.381
  29  803.9065
  30  711.6925
  31  1054.516
  32  1160.521
  33  705.4355
  34  528.0002
  35  854.5187
  36  744.9006
  37  585.4098
  38  388.6385
  39  503.6515
  40  848.3835
  41  767.5032
  42  908.357
  43  778.437
  44  458.371
  45  720.7098
  46  469.6667
  47  513.2354
  48  556.3179
  49  320.6723
  50  553.0487
  51  583.5831
  52  700.5917
  53  414.961
  54  426.9391
  55  319.1224
  56  351.9998
  57  455.862
  58  467.3169
  59  839.4127
  60  653.023
  61  720.0521
  62  678.1699
  63  540.0876
  64  505.6277
  65  588.0828
  66  463.6351
  67  380.6658
  68  540.1525
  69  497.1804
  70  540.5151
  71  636.1275
  72  409.0806
  73  384.285
  74  359.0129
  75  405.7107
  76  414.0394
  77  436.6407
  78  386.7238
  79  414.4906
  80  245.2582
  81  555.8014
  82  832.6733
  83  857.2617
  84  845.4577
  85  591.8649
  86  378.7011
  87  733.5696
  88  815.7644
  89  962.4529
  90  479.8852
  91  263.0175
  92  612.3284
  93  296.6403
  94  650.6385
  95  969.2582
  96  632.554
  97  898.4561
  98  898.2523
  99  572.655
 100  762.7507
 101  720.0964
 102  671.8276
 103  833.1177
 104  708.8695
 105  471.1588
 106  497.9521
 107  579.3361
 108  604.2073
 109  367.5762
 110  267.3295
 111  532.8182
 112  524.5333
 113  469.5542
 114  768.9194
 115  849.5267
 116  621.8243
 117  636.2844
 118  524.1649
 119  564.0892
 120  581.5339
 121  724.7659
 122  913.1038
 123  564.304
 124  737.1475
 125  502.3833
 126  699.6076
 127  712.0209
 128  541.3671
 129  615.5259
 130  235.5142
 131  460.9268
 132  701.3727
 133  623.618
 134  511.3167
 135  749.3561
 136  607.926
 137  455.3979
 138  298.0538
 139  658.174
 140  895.8423
 141  703.5925
 142  516.0059
 143  836.0184
 144  680.9223
 145  511.3875
 146  523.2925
 147  328.5667
 148  585.118
 149  577.3349
 150  640.673
 151  565.0339
 152  346.0869
 153  48.81256
 154  -17.20688
 155  166.8546
 156  219.948
 157  497.4855
 158  511.7667
 159  577.5087
 160  595.2684
 161  614.2353
 162  426.584
 163  319.6924
 164  632.5312
 165  609.9429
 166  169.8413
 167  247.6043
 168  346.5016
 169  397.4688
 170  586.8297
 171  294.9525
 172  320.7751
 173  759.2563
 174  704.5908
 175  398.6927
 176  57.44736
 177  -20.37556
 178  36.91541
 179  256.3321
 180  554.5753
 181  354.2498
 182  462.627
 183  294.5028
 184  370.2822
 185  119.031
 186  184.9213
 187  131.9722
 188  418.2407
 189  550.6411
 190  498.2705
 191  428.5022
 192  279.7077
 193  232.8898
 194  242.0397
 195  303.5208
 196  405.625
 197  640.7062
 198  726.0695
 199  210.0156
 200  351.9924
 201  551.2848
 202  390.4251
 203  291.797
 204  294.4505
 205  452.5349
 206  503.0216
 207  385.9745
 208  560.3568
 209  452.5519
 210  260.1606
 211  643.9108
 212  644.9098
 213  618.5115
 214  380.0337
 215  342.517
 216  338.9642
 217  416.4131
 218  684.3519
 219  462.1859
 220  158.4976
 221  503.03
 222  581.3603
 223  554.4276
 224  525.6433
 225  727.0579
 226  701.3903
 227  621.0898
 228  554.4727
 229  207.714
 230  376.0128
 231  819.9814
 232  421.3665
 233  26.49811
 234  338.0823
 235  422.3649
 236  640.6414
 237  424.2529
 238  584.8427
 239  686.6177
 240  573.7399
 241  514.2057
 242  655.221
 243  812.1937
 244  461.8583
 245  574.3058
 246  760.069
 247  941.667
 248  864.8423
 249  442.4833
 250  388.8002
 251  390.7384
 252  671.3002
 253  665.9494
 254  590.2928
 255  268.4619
 256  374.7168
 257  623.551
 258  588.9257
 259  446.1875
 260  272.1096
 261  326.3644
 262  491.0304
 263  436.1948
 264  776.7382
 265  377.6851
 266  410.3727
 267  538.3384
 268  204.8387
 269  387.2748
 270  294.5856
 271  664.8502
 272  585.2753
 273  698.4973
 274  536.4755
 275  350.8104
 276  540.7582
 277  573.188
 278  637.6621
 279  844.6181
 280  717.465
 281  472.6162
 282  430.1628
 283  522.6344
 284  534.858
 285  663.5817
 286  502.5146
 287  425.4317
 288  667.933
 289  722.5278
 290  544.2357
 291  727.0479
 292  781.9969
 293  870.2361
 294  777.6604
 295  896.3164
 296  1413.452
 297  1796.024
 298  2155.771
 299  2139.864
 300  1939.34
 301  1142.863
 302  738.4012
 303  884.6071
 304  1045.956
 305  311.3234
 306  271.955
 307  529.6321
 308  717.5746
 309  693.1473
 310  733.2485
 311  716.5197
 312  695.535
 313  1168.933
 314  1081.89
 315  720.1675
 316  912.4568
 317  656.0486
 318  603.613
 319  575.3002
 320  757.9811
 321  866.9245
 322  990.8972
 323  834.2651
 324  691.5278
 325  476.036
 326  856.7299
 327  1094.818
 328  818.5014
 329  931.1653
 330  703.0674
 331  1003.531
 332  1045.135
 333  853.8037
 334  660.0397
 335  606.8731
 336  638.9116
 337  1091.784
 338  982.4012
 339  579.5417
 340  553.918
 341  479.3357
 342  444.5157
 343  529.56
 344  689.8771
 345  869.5507
 346  734.8418
 347  438.4342
 348  398.6811
 349  176.2124
 350  151.3248
 351  615.428
 352  602.4171
 353  722.8958
 354  691.8526
 355  827.3624
 356  584.6653
 357  714.8521
 358  304.1293
 359  525.1805
 360  700.5649
 361  585.4438
 362  596.8658
 363  669.8279
 364  247.4221
 365  337.1613
 366  72.37357
 367  96.29897
 368  353.9243
 369  658.8215
 370  871.9536
 371  590.938
 372  529.6561
 373  673.2572
 374  870.5298
 375  864.9997
 376  803.9528
 377  952.1492
 378  721.5419
 379  741.8263
 380  653.6312
 381  480.2104
 382  398.7892
 383  496.3784
 384  601.6393
 385  575.2375
 386  348.907
 387  575.6064
 388  359.1297
 389  233.5981
 390  283.9217
 391  366.3608
 392  570.4036
 393  473.3046
 394  633.2598
 395  536.4542
 396  324.2688
 397  532.4766
 398  792.3528
 399  710.1222
 400  303.142
 401  200.2672
 402  385.4532
 403  367.8746
 404  247.7372
 405  418.8491
 406  353.5219
 407  406.1483
 408  580.9815
 409  462.1411
 410  482.1734
 411  351.3016
 412  464.6431
 413  357.9338
 414  242.722
 415  434.9786
 416  539.8795
 417  659.6313
 418  484.1013
 419  385.1512
 420  584.1357
 421  542.9446
 422  585.7472
 423  351.2541
 424  298.7355
 425  443.16
 426  270.7575
 427  37.2221
 428  448.8973
 429  507.8377
 430  461.7795
 431  401.3581
 432  177.4535
 433  278.3062
 434  493.0392
 435  578.0684
 436  336.8971
 437  269.1067
 438  263.5857
 439  380.5511
 440  404.1175
 441  420.5547
 442  338.4806
 443  428.7294
 444  773.0717
 445  862.9688
 446  509.1861
 447  6.936314
 448  663.3112
 449  536.956
 450  489.6965
 451  292.1306
 452  387.7922
 453  647.1211
 454  537.6346
 455  602.8155
 456  394.6759
 457  296.7481
 458  540.1642
 459  675.7639
 460  355.7857
 461  612.2379
 462  310.3253
 463  144.727
 464  671.6158
 465  781.2584
 466  578.3599
 467  477.0089
 468  903.7235
 469  1070.802
 470  581.7045
 471  527.2541
 472  535.492
 473  501.1299
 474  524.9054
 475  396.7739
 476  732.5157
 477  735.556
 478  492.6983
 479  398.2943
 480  404.9124
 481  493.2899
 482  626.0758
 483  462.2811
 484  675.0809
 485  449.4785
 486  485.9862
 487  618.98
 488  860.1878
 489  777.2397
 490  711.6772
 491  692.6627
 492  907.261
 493  678.3309
 494  765.3768
 495  473.5016
 496  871.5424
 497  1034.236
 498  580.8447
 499  586.9412
 500  386.4148
 501  629.644
 502  878.6489
 503  1115
 504  487.3801
 505  507.034
 506  502.1399
 507  631.9069
 508  455.417
 509  506.6592
 510  325.3934
 511  661.4645
