# Input file       =  1212060153.117047_cleaned.dat
# Candidate        =  PSR_0332+5434
# Telescope        =  AR
# Epoch_topo       =  58272.474214317677
# Epoch_bary       =  N/A
# T_sample         =  0.002
# Data Folded      =  7340032
# Data Avg         =  0.0329124301029618
# Data StdDev      =  2.59413893284327 
# Profile Bins     =  1024
# Profile Avg      =  235.88445954261  
# Profile StdDev   =  219.630287444921 
# Reduced chi-sqr  =  1.183
# Prob(Noise)      <  4.24e-05   (~3.9 sigma)
# P_topo (ms)      =  714.514871400448  +/- 0.000288
# P'_topo (s/s)    =  -0                +/- 1.52e-10
# P''_topo (s/s^2) =  0                 +/- 6.7e-14
# P_bary (ms)      =  N/A
# P'_bary (s/s)    =  N/A
# P''_bary (s/s^2) =  N/A
# P_orb (s)        =  N/A
# asin(i)/c (s)    =  N/A
# eccentricity     =  N/A
# w (rad)          =  N/A
# T_peri           =  N/A
######################################################
   0  559.7563
   1  458.5182
   2  361.9001
   3  232.2172
   4  333.702
   5  355.6393
   6  373.6573
   7  293.1567
   8  183.5426
   9  120.6377
  10  167.705
  11  279.8671
  12  398.8339
  13  413.4745
  14  466.0072
  15  367.5202
  16  359.9908
  17  299.563
  18  315.1978
  19  273.5607
  20  306.8344
  21  281.4761
  22  254.8534
  23  192.5499
  24  254.3232
  25  355.8724
  26  413.3278
  27  405.4032
  28  433.3986
  29  397.6649
  30  421.753
  31  370.7346
  32  411.7613
  33  271.9797
  34  325.5301
  35  289.2627
  36  229.3082
  37  245.4384
  38  324.574
  39  473.6878
  40  531.1675
  41  483.128
  42  411.3565
  43  333.4632
  44  362.8526
  45  381.3736
  46  364.0935
  47  372.7897
  48  314.9793
  49  194.8497
  50  176.5866
  51  116.5415
  52  113.0666
  53  104.3087
  54  238.4614
  55  420.9005
  56  333.6072
  57  225.5078
  58  104.45
  59  249.3293
  60  339.0224
  61  276.9531
  62  189.4889
  63  170.924
  64  271.4733
  65  352.6761
  66  455.6039
  67  533.3867
  68  500.3486
  69  427.955
  70  268.85
  71  123.5969
  72  114.5668
  73  141.5919
  74  194.5634
  75  156.7867
  76  169.253
  77  130.896
  78  67.49138
  79  80.42066
  80  158.6015
  81  207.7674
  82  254.0581
  83  266.2456
  84  352.6855
  85  287.4616
  86  228.757
  87  189.7149
  88  186.8237
  89  238.5685
  90  175.4944
  91  250.5167
  92  304.9865
  93  372.5655
  94  269.963
  95  197.5232
  96  218.0362
  97  302.9882
  98  344.6538
  99  280.6805
 100  243.7656
 101  262.8767
 102  270.352
 103  215.7739
 104  94.51665
 105  173.018
 106  236.7723
 107  351.7435
 108  292.9113
 109  266.7193
 110  163.1564
 111  267.804
 112  243.0646
 113  251.9191
 114  133.0536
 115  146.7509
 116  201.6178
 117  305.2185
 118  277.4666
 119  263.0388
 120  292.5888
 121  277.3903
 122  237.1651
 123  126.139
 124  143.226
 125  112.2199
 126  152.8065
 127  167.0101
 128  234.2593
 129  348.3575
 130  410.2029
 131  400.8741
 132  242.2289
 133  100.8531
 134  55.64275
 135  195.8778
 136  289.2863
 137  236.6113
 138  140.2027
 139  123.6264
 140  79.64504
 141  13.06492
 142  40.27253
 143  140.921
 144  244.0778
 145  211.5825
 146  183.6508
 147  98.04456
 148  112.1009
 149  155.4408
 150  96.57947
 151  86.08401
 152  127.0142
 153  225.3402
 154  300.4817
 155  284.2052
 156  277.4641
 157  292.2378
 158  318.8764
 159  275.067
 160  207.6462
 161  185.8446
 162  368.29
 163  439.3896
 164  419.8291
 165  258.8147
 166  195.242
 167  141.0844
 168  131.0463
 169  225.7759
 170  211.5303
 171  183.1128
 172  101.1496
 173  117.9152
 174  137.9742
 175  128.818
 176  158.4463
 177  117.2098
 178  127.2092
 179  107.3257
 180  217.7761
 181  296.3726
 182  270.0054
 183  98.78038
 184  33.19369
 185  37.77945
 186  68.50938
 187  70.73797
 188  140.0593
 189  209.1487
 190  91.78107
 191  81.74667
 192  131.1575
 193  169.0187
 194  195.9012
 195  296.8232
 196  322.7511
 197  304.1379
 198  197.577
 199  177.5163
 200  70.4672
 201  159.0932
 202  251.2032
 203  382.9536
 204  297.4646
 205  233.7904
 206  284.2881
 207  286.8093
 208  242.2963
 209  68.32354
 210  120.7505
 211  248.1162
 212  285.9611
 213  260.0165
 214  233.161
 215  193.1667
 216  177.793
 217  50.10482
 218  66.644
 219  41.69611
 220  107.8768
 221  113.1105
 222  216.5258
 223  264.6335
 224  279.7164
 225  326.582
 226  299.6772
 227  324.7068
 228  273.6803
 229  289.857
 230  243.1355
 231  256.5303
 232  339.8768
 233  384.8322
 234  346.6023
 235  256.3963
 236  220.4837
 237  137.9991
 238  75.97496
 239  103.916
 240  88.0631
 241  95.03435
 242  124.6089
 243  206.2843
 244  145.714
 245  98.25957
 246  161.2089
 247  268.5432
 248  280.4288
 249  196.0935
 250  285.8715
 251  317.2793
 252  350.4457
 253  266.5017
 254  249.4168
 255  122.0977
 256  28.15214
 257  -6.629146
 258  102.1158
 259  27.07167
 260  -72.60823
 261  -1.743356
 262  232.1414
 263  399.4601
 264  308.3777
 265  243.7696
 266  185.07
 267  175.4372
 268  150.6876
 269  86.96819
 270  87.41511
 271  100.6056
 272  175.1367
 273  189.5378
 274  107.8035
 275  17.31727
 276  13.33157
 277  158.9107
 278  295.5973
 279  301.8949
 280  273.0298
 281  303.4765
 282  349.4024
 283  304.3495
 284  157.9656
 285  104.7399
 286  172.6868
 287  267.5663
 288  312.8719
 289  380.9729
 290  474.546
 291  482.6021
 292  358.9226
 293  204.9962
 294  175.2213
 295  187.0517
 296  163.3229
 297  169.5225
 298  133.117
 299  48.62691
 300  63.31589
 301  94.61015
 302  194.4193
 303  110.9538
 304  162.4335
 305  251.9871
 306  347.919
 307  388.1727
 308  321.8876
 309  288.7591
 310  158.0113
 311  208.5854
 312  221.6312
 313  218.0157
 314  221.7965
 315  167.7179
 316  161.6842
 317  148.0127
 318  98.63895
 319  250.6269
 320  306.9699
 321  442.9817
 322  394.2015
 323  392.7416
 324  220.8411
 325  88.07473
 326  59.64675
 327  209.5331
 328  339.8879
 329  412.6773
 330  416.018
 331  290.2938
 332  304.0081
 333  305.6666
 334  386.6001
 335  314.5645
 336  345.5489
 337  262.3807
 338  265.4454
 339  268.6056
 340  312.8374
 341  289.7883
 342  284.0259
 343  404.5104
 344  358.5358
 345  363.79
 346  234.5819
 347  335.5247
 348  326.6623
 349  379.6731
 350  338.1395
 351  351.8833
 352  312.1833
 353  271.1725
 354  351.7366
 355  375.6613
 356  344.1032
 357  310.8879
 358  243.2271
 359  221.5243
 360  152.89
 361  167.6457
 362  198.9542
 363  208.5808
 364  250.0784
 365  196.6539
 366  155.4569
 367  140.1378
 368  113.028
 369  118.0285
 370  63.45099
 371  133.497
 372  179.433
 373  253.2628
 374  303.1292
 375  343.0927
 376  297.1009
 377  197.1697
 378  161.777
 379  207.0568
 380  208.8752
 381  185.754
 382  140.6431
 383  239.1871
 384  210.1836
 385  120.8335
 386  77.20612
 387  190.5434
 388  291.9893
 389  283.3532
 390  277.0417
 391  219.9809
 392  302.6675
 393  301.5619
 394  296.6133
 395  277.9437
 396  254.0563
 397  167.6969
 398  42.41519
 399  31.66952
 400  97.35921
 401  161.153
 402  268.1189
 403  260.4876
 404  363.1038
 405  358.9277
 406  425.2222
 407  410.8789
 408  408.8663
 409  387.1425
 410  320.8355
 411  215.323
 412  171.877
 413  206.3833
 414  362.0998
 415  360.0695
 416  268.4303
 417  146.2186
 418  106.2599
 419  108.1452
 420  96.4456
 421  78.58532
 422  88.88343
 423  127.4032
 424  310.0865
 425  401.7807
 426  450.8069
 427  337.728
 428  178.0589
 429  8.802486
 430  -38.31986
 431  -9.242287
 432  33.83921
 433  127.3418
 434  137.1745
 435  294.9272
 436  282.237
 437  239.8171
 438  198.6326
 439  188.7666
 440  257.7159
 441  120.816
 442  31.8784
 443  61.08847
 444  151.9664
 445  256.3564
 446  237.7449
 447  101.8771
 448  -29.89841
 449  -22.80798
 450  102.5002
 451  113.3714
 452  60.78946
 453  113.3227
 454  189.856
 455  205.8651
 456  289.6143
 457  321.7732
 458  272.4703
 459  139.7917
 460  153.0536
 461  279.3726
 462  378.1441
 463  390.3868
 464  239.1029
 465  207.5513
 466  191.5462
 467  275.7193
 468  234.6533
 469  144.6515
 470  176.4877
 471  260.1306
 472  378.926
 473  320.0736
 474  255.9632
 475  228.6314
 476  320.4687
 477  309.2081
 478  311.6942
 479  275.7165
 480  216.9818
 481  198.5172
 482  233.5219
 483  239.0972
 484  151.5152
 485  117.1288
 486  205.474
 487  286.7565
 488  322.6234
 489  352.8085
 490  289.1362
 491  337.1881
 492  340.1476
 493  365.4063
 494  264.196
 495  208.8965
 496  251.1823
 497  213.5276
 498  146.9544
 499  25.43354
 500  55.5773
 501  74.57695
 502  146.3055
 503  147.5049
 504  103.3952
 505  61.8124
 506  103.1654
 507  79.84715
 508  77.81614
 509  161.9644
 510  324.5427
 511  267.4707
 512  123.4241
 513  111.9562
 514  232.4113
 515  311.6841
 516  281.0206
 517  275.3205
 518  247.2991
 519  283.7857
 520  303.7462
 521  333.9302
 522  242.1801
 523  185.795
 524  192.2164
 525  191.2877
 526  191.22
 527  174.6412
 528  212.082
 529  237.9242
 530  227.9101
 531  207.586
 532  235.9426
 533  241.9126
 534  251.6968
 535  214.6111
 536  216.2845
 537  306.9718
 538  306.2262
 539  286.2156
 540  169.7319
 541  153.899
 542  169.6782
 543  211.9518
 544  147.9788
 545  36.22419
 546  -7.48868
 547  -21.53132
 548  10.78292
 549  22.82555
 550  216.4771
 551  289.7119
 552  337.4815
 553  284.978
 554  272.0141
 555  230.6246
 556  190.0314
 557  229.5667
 558  285.0821
 559  227.846
 560  171.4758
 561  265.2393
 562  382.0684
 563  415.346
 564  337.1014
 565  308.2835
 566  275.1613
 567  242.9376
 568  243.0301
 569  249.6168
 570  286.6578
 571  283.6195
 572  205.0399
 573  113.1262
 574  112.0913
 575  205.1574
 576  281.7875
 577  287.5454
 578  259.9058
 579  222.8757
 580  183.1605
 581  133.6863
 582  234.378
 583  259.7412
 584  379.4794
 585  299.3073
 586  304.9554
 587  299.2405
 588  426.6084
 589  632.8891
 590  610.8162
 591  528.8857
 592  532.5448
 593  790.532
 594  948.3595
 595  1084.382
 596  962.8934
 597  1005.686
 598  943.5724
 599  1043.943
 600  1003.952
 601  853.4819
 602  736.9609
 603  628.1198
 604  618.9867
 605  469.9445
 606  356.6757
 607  335.973
 608  281.4515
 609  279.1574
 610  245.2502
 611  248.0751
 612  165.389
 613  98.41898
 614  79.60378
 615  80.59709
 616  140.4274
 617  183.8488
 618  99.07036
 619  48.86496
 620  122.7132
 621  313.7651
 622  335.6974
 623  234.9814
 624  169.8771
 625  274.0426
 626  437.1376
 627  392.1816
 628  306.5914
 629  302.4949
 630  429.2713
 631  386.6132
 632  277.6816
 633  175.5507
 634  154.3679
 635  84.2914
 636  175.0787
 637  257.9753
 638  298.4154
 639  299.5781
 640  313.2668
 641  318.0346
 642  253.2617
 643  217.6513
 644  151.9882
 645  68.91109
 646  70.44496
 647  173.5983
 648  209.5649
 649  211.0114
 650  168.7639
 651  113.7638
 652  142.223
 653  92.84893
 654  160.3532
 655  161.3744
 656  161.9658
 657  263.8168
 658  405.5531
 659  523.996
 660  456.875
 661  345.765
 662  259.4791
 663  150.7975
 664  131.1697
 665  175.9888
 666  272.4986
 667  265.0566
 668  271.2421
 669  109.9126
 670  78.38972
 671  67.26807
 672  151.7243
 673  233.7737
 674  213.394
 675  173.0407
 676  126.3763
 677  235.9876
 678  298.2717
 679  262.2321
 680  168.751
 681  109.9119
 682  164.0553
 683  152.8365
 684  257.8904
 685  281.019
 686  286.4154
 687  158.448
 688  35.00605
 689  -19.88031
 690  36.61668
 691  137.6832
 692  182.7394
 693  223.2837
 694  172.1217
 695  130.4137
 696  140.7189
 697  231.7268
 698  220.3536
 699  235.7974
 700  276.0977
 701  259.3602
 702  183.8702
 703  146.9606
 704  241.2612
 705  208.6864
 706  169.7463
 707  154.199
 708  154.5276
 709  193.5686
 710  175.4251
 711  210.7126
 712  146.2449
 713  77.20945
 714  133.2219
 715  228.3613
 716  358.7094
 717  228.2982
 718  144.1334
 719  155.3131
 720  188.6944
 721  242.7793
 722  314.1216
 723  429.1101
 724  366.7465
 725  246.7911
 726  215.5048
 727  266.8682
 728  253.4904
 729  334.828
 730  223.0735
 731  150.5878
 732  -3.25397
 733  31.85091
 734  110.3757
 735  206.5605
 736  215.7602
 737  97.39771
 738  81.22173
 739  58.98079
 740  177.6141
 741  133.6768
 742  134.2868
 743  79.08741
 744  216.0327
 745  303.2995
 746  354.0179
 747  287.3742
 748  297.2086
 749  350.4799
 750  466.5476
 751  337.0023
 752  109.585
 753  -90.63531
 754  -96.58092
 755  72.57803
 756  45.97934
 757  107.1734
 758  30.24285
 759  97.1363
 760  93.67317
 761  184.4589
 762  217.0487
 763  213.88
 764  142.4675
 765  128.5963
 766  216.6628
 767  293.2243
 768  241.2397
 769  142.0973
 770  189.6596
 771  236.7278
 772  306.9408
 773  292.6783
 774  222.2424
 775  129.1344
 776  63.49048
 777  165.6199
 778  74.99176
 779  -6.643106
 780  -39.00305
 781  92.26328
 782  189.5149
 783  165.5858
 784  96.62492
 785  134.2207
 786  242.5767
 787  256.4293
 788  251.4607
 789  299.633
 790  319.6683
 791  299.2885
 792  259.3008
 793  218.14
 794  132.9954
 795  22.47961
 796  -2.100887
 797  -6.690835
 798  54.50887
 799  169.7012
 800  321.2838
 801  189.8888
 802  59.6776
 803  -54.60835
 804  49.06674
 805  69.95996
 806  101.2356
 807  97.38071
 808  96.92015
 809  108.4323
 810  225.3505
 811  226.3632
 812  193.5239
 813  134.3282
 814  150.5906
 815  34.60099
 816  32.54494
 817  -32.99348
 818  80.59486
 819  83.74812
 820  184.0283
 821  101.7773
 822  123.1393
 823  114.2014
 824  221.2836
 825  244.3954
 826  200.4937
 827  138.9275
 828  61.09829
 829  110.5748
 830  151.4814
 831  197.978
 832  198.2666
 833  117.6088
 834  41.8246
 835  70.51711
 836  114.132
 837  164.1346
 838  165.7584
 839  264.0894
 840  247.6054
 841  152.3447
 842  124.9153
 843  188.1475
 844  208.6585
 845  103.1263
 846  110.1497
 847  138.7811
 848  195.6355
 849  138.7374
 850  165.2239
 851  223.6599
 852  297.7645
 853  293.2523
 854  182.2895
 855  196.5468
 856  214.3965
 857  288.5615
 858  268.4453
 859  341.0695
 860  299.1893
 861  248.7724
 862  264.5504
 863  246.781
 864  237.8032
 865  132.7542
 866  225.3946
 867  239.1603
 868  268.616
 869  330.5673
 870  378.5906
 871  336.8948
 872  234.8071
 873  223.8028
 874  262.5707
 875  229.5321
 876  172.007
 877  198.7406
 878  224.4565
 879  201.987
 880  184.453
 881  176.9231
 882  326.8215
 883  267.2245
 884  290.2508
 885  283.7634
 886  347.0663
 887  293.2538
 888  195.0282
 889  159.368
 890  210.8348
 891  276.2982
 892  394.5028
 893  374.3851
 894  340.4751
 895  218.2694
 896  253.5743
 897  200.4384
 898  158.9749
 899  104.7476
 900  151.2541
 901  182.9642
 902  162.5807
 903  157.7918
 904  133.8438
 905  175.5353
 906  205.2811
 907  216.0105
 908  192.2622
 909  204.0534
 910  330.4006
 911  341.2021
 912  260.1286
 913  219.6183
 914  256.8874
 915  250.502
 916  240.5035
 917  315.1296
 918  428.4203
 919  377.6131
 920  328.1768
 921  305.1886
 922  323.5693
 923  305.2794
 924  262.3344
 925  298.0341
 926  412.3147
 927  492.4778
 928  436.2843
 929  284.9745
 930  157.756
 931  189.3758
 932  253.381
 933  360.2755
 934  323.8764
 935  236.2352
 936  177.1785
 937  161.7407
 938  199.5421
 939  174.7848
 940  235.3126
 941  290.1663
 942  287.4183
 943  205.9189
 944  166.5279
 945  200.3962
 946  229.9807
 947  198.3634
 948  208.6744
 949  229.2101
 950  203.704
 951  199.9618
 952  207.5847
 953  297.8986
 954  290.968
 955  258.4532
 956  256.3134
 957  313.511
 958  335.1642
 959  259.1713
 960  240.8347
 961  292.0398
 962  334.0288
 963  250.3832
 964  206.3229
 965  274.4962
 966  349.795
 967  302.9054
 968  171.2343
 969  102.6528
 970  33.60225
 971  76.88535
 972  163.4706
 973  279.2509
 974  250.4516
 975  241.3707
 976  244.1029
 977  302.1403
 978  233.2356
 979  155.0169
 980  145.8372
 981  183.3048
 982  166.5187
 983  139.9875
 984  150.1554
 985  278.9513
 986  411.64
 987  467.5285
 988  395.5974
 989  307.5117
 990  304.0652
 991  349.5683
 992  320.0256
 993  353.5894
 994  339.5923
 995  367.918
 996  270.7421
 997  176.3959
 998  176.8618
 999  235.4428
1000  367.9189
1001  469.999
1002  569.8868
1003  610.7806
1004  438.5166
1005  388.0342
1006  331.7749
1007  443.2488
1008  539.674
1009  568.7532
1010  455.6552
1011  310.7931
1012  305.997
1013  412.5654
1014  466.0025
1015  440.7744
1016  422.8428
1017  434.1301
1018  428.9176
1019  371.874
1020  313.5764
1021  343.8313
1022  450.3738
1023  481.4899
