# Input file       =  1212734494.117161_cleaned.dat
# Candidate        =  PSR_0332+5434
# Telescope        =  AR
# Epoch_topo       =  58280.279087004179
# Epoch_bary       =  N/A
# T_sample         =  0.002
# Data Folded      =  7340032
# Data Avg         =  0.111011949896887
# Data StdDev      =  2.97020949968935 
# Profile Bins     =  512
# Profile Avg      =  1591.4016272917  
# Profile StdDev   =  355.632202072921 
# Reduced chi-sqr  =  1.148
# Prob(Noise)      <  0.0114   (~2.3 sigma)
# P_topo (ms)      =  714.50702858402   +/- 0.000617
# P'_topo (s/s)    =  -0                +/- 3.25e-10
# P''_topo (s/s^2) =  0                 +/- 1.44e-13
# P_bary (ms)      =  N/A
# P'_bary (s/s)    =  N/A
# P''_bary (s/s^2) =  N/A
# P_orb (s)        =  N/A
# asin(i)/c (s)    =  N/A
# eccentricity     =  N/A
# w (rad)          =  N/A
# T_peri           =  N/A
######################################################
   0  1542.874
   1  1381.293
   2  1401.344
   3  1398.156
   4  1403.875
   5  1600.307
   6  1501.367
   7  1456.459
   8  1466.371
   9  1287.763
  10  1381.073
  11  1190.641
  12  1253.071
  13  1336.263
  14  1126.893
  15  1063.747
  16  1398.444
  17  1524.951
  18  1310.287
  19  1098.799
  20  1184.522
  21  1534.189
  22  1785.099
  23  1155.152
  24  1253.473
  25  1549.574
  26  1516.526
  27  1350.002
  28  1021.368
  29  1227.653
  30  1318.956
  31  1279.323
  32  1727.961
  33  1757.635
  34  1640.488
  35  1520.257
  36  1508.382
  37  1170.488
  38  1265.209
  39  1330.793
  40  1475.698
  41  1392.894
  42  1458.866
  43  1603.223
  44  1705.35
  45  1789.559
  46  1332.652
  47  1423.977
  48  1584.637
  49  1689.458
  50  1802.325
  51  1324.706
  52  1183.454
  53  1184.352
  54  1337.733
  55  1626.227
  56  1562.682
  57  1499.225
  58  1583.2
  59  1484.063
  60  1504.525
  61  1383.07
  62  1351.656
  63  1296.65
  64  1185.22
  65  1402.419
  66  1519.678
  67  1707.505
  68  1354.4
  69  1239.928
  70  1081.106
  71  1092.181
  72  1293.418
  73  1443.682
  74  1624.906
  75  1803.794
  76  1908.336
  77  1369.354
  78  1287.982
  79  1559.404
  80  1754.394
  81  1841.908
  82  1589.764
  83  1481.115
  84  1385.952
  85  1514.552
  86  1476.642
  87  1620.498
  88  1679.072
  89  1647.504
  90  1617.415
  91  1669.386
  92  1869.506
  93  1916.997
  94  1850.324
  95  1538.24
  96  1507.356
  97  1686.92
  98  1770.505
  99  1806.638
 100  1850.997
 101  1847.38
 102  1806.955
 103  1944.064
 104  1711.27
 105  1979.919
 106  1867.101
 107  1603.989
 108  1760.705
 109  2094.227
 110  1721.019
 111  1806.344
 112  1894.374
 113  1652.041
 114  1465.598
 115  1428.132
 116  1819.97
 117  2132.218
 118  2094.446
 119  1939.879
 120  1785.152
 121  1419.743
 122  1487.057
 123  1731.576
 124  1812.257
 125  1692.99
 126  1666.909
 127  1439.01
 128  1479.799
 129  1486.483
 130  1971.208
 131  1963.776
 132  1691.342
 133  1982.993
 134  1750.635
 135  1503.314
 136  1790.963
 137  2016.44
 138  1550.476
 139  1395.918
 140  1821.472
 141  1883.293
 142  1913.024
 143  1490.926
 144  1194.841
 145  1264.959
 146  1193.655
 147  1303.791
 148  1568.293
 149  1800.05
 150  1870.167
 151  1384.634
 152  1678.023
 153  1573.442
 154  1185.23
 155  1230.855
 156  1476.298
 157  1522.623
 158  1446.875
 159  1604.599
 160  1395.347
 161  1392.697
 162  1563.347
 163  1603.083
 164  1481.065
 165  1612.358
 166  1935.888
 167  1808.488
 168  1281.097
 169  1495.413
 170  1716.739
 171  1683.606
 172  1585.66
 173  1740.286
 174  1757.353
 175  1925.522
 176  1859.381
 177  1835.089
 178  1574.601
 179  1118.399
 180  1477.992
 181  1745.728
 182  1797.05
 183  1879.869
 184  1425.881
 185  1300.15
 186  1921.815
 187  2033.355
 188  1564.678
 189  1554.198
 190  1816.088
 191  1743.642
 192  1686.747
 193  1420.752
 194  1092.856
 195  1375.89
 196  1483.345
 197  1934.193
 198  1783.093
 199  1416.881
 200  1461.264
 201  1675.796
 202  1578.092
 203  1557.115
 204  1498.392
 205  1727.02
 206  1764.435
 207  1674.097
 208  1631.127
 209  1551.328
 210  1562.869
 211  1309.979
 212  1459.468
 213  1706.533
 214  1415.522
 215  1252.959
 216  1578.971
 217  1786.722
 218  1350.861
 219  1378.056
 220  1503.429
 221  1267.187
 222  1403.351
 223  1166.191
 224  1361.615
 225  1314.146
 226  1210.171
 227  1419.508
 228  1361.652
 229  1590.862
 230  1361.379
 231  1515.49
 232  1306.701
 233  1302.818
 234  1696.54
 235  1277.991
 236  1056.258
 237  1269.661
 238  1625.936
 239  1435.84
 240  1351.205
 241  1701.916
 242  1710.565
 243  1464.471
 244  1640.318
 245  1374.284
 246  1511.567
 247  1343.821
 248  1382.325
 249  1766.902
 250  1615.788
 251  1707.548
 252  1589.493
 253  1615.79
 254  1853.866
 255  1560.133
 256  1563
 257  1534.268
 258  1649.317
 259  1620.706
 260  1922.755
 261  1719.191
 262  1625.409
 263  1479.34
 264  1358.79
 265  1563.951
 266  1775.027
 267  1782.363
 268  1631.154
 269  1592.899
 270  1856.922
 271  1700.345
 272  1516.209
 273  1714.519
 274  1818.275
 275  1786.497
 276  1885.076
 277  1738.831
 278  1880.761
 279  1933.938
 280  1853.698
 281  1729.573
 282  1702.382
 283  1820.27
 284  1587.149
 285  1672.565
 286  1795.501
 287  1634.732
 288  1676.087
 289  1912.478
 290  2014.051
 291  1904.031
 292  2036.221
 293  2028.051
 294  2239.035
 295  2497.677
 296  2895.518
 297  2877.279
 298  3044.856
 299  3212.592
 300  3046.067
 301  2034.699
 302  1836.633
 303  1836.057
 304  1793.885
 305  1586.192
 306  1399.235
 307  1735.165
 308  1715.933
 309  1908.311
 310  2107.494
 311  2201.038
 312  1876.518
 313  2112.221
 314  2063.518
 315  1785
 316  1345.266
 317  1442.696
 318  1577.61
 319  1574.625
 320  1697.459
 321  1583.38
 322  1797.77
 323  1691.987
 324  1328.254
 325  1604.412
 326  1606.62
 327  1491.892
 328  1574.15
 329  1792.216
 330  1835.571
 331  1530.139
 332  1363.232
 333  1750.53
 334  2170.09
 335  2119.707
 336  1753.167
 337  1916.376
 338  1900.52
 339  1750.727
 340  1849.502
 341  1783.128
 342  1905.556
 343  1854.24
 344  1665.203
 345  1547.329
 346  1822.161
 347  1774.602
 348  1584.783
 349  1691.867
 350  1680.46
 351  1402.505
 352  1592.588
 353  1765.262
 354  1604.724
 355  1787.331
 356  1851.73
 357  1874.62
 358  1694.968
 359  1574.758
 360  1489.434
 361  1312.503
 362  1583.668
 363  1616.82
 364  1396.504
 365  1394.851
 366  1298.513
 367  1723.899
 368  1816.157
 369  1709.129
 370  1756.91
 371  1752.693
 372  1518.947
 373  1626.712
 374  1878.745
 375  1835.801
 376  1873.786
 377  1558.489
 378  1707.883
 379  1894.558
 380  1621.429
 381  1493.498
 382  1271.165
 383  1737.551
 384  2071.632
 385  1690.413
 386  1632.198
 387  1942.49
 388  1710.251
 389  1682.016
 390  1859.07
 391  1838.778
 392  1724.33
 393  1950.665
 394  2073.788
 395  1623.334
 396  1563.696
 397  1706.931
 398  1709.429
 399  1812.487
 400  1879.24
 401  1858.917
 402  1461.629
 403  1378.617
 404  1414.759
 405  1696.07
 406  1889.845
 407  1718.334
 408  1788.24
 409  1568.852
 410  1463.566
 411  1233.391
 412  1324.309
 413  1589.511
 414  1281.74
 415  1189.759
 416  1226.606
 417  1744.505
 418  1854.632
 419  1681.397
 420  1675.495
 421  1490.94
 422  1265.13
 423  1343.35
 424  1681.787
 425  1345.585
 426  1484.605
 427  1241.566
 428  1289.188
 429  1510.481
 430  1462.361
 431  1450.664
 432  1568.61
 433  1235.032
 434  1284.369
 435  1419.739
 436  1574.491
 437  1298.865
 438  1489.029
 439  1460.924
 440  1537.879
 441  1475.406
 442  1464.173
 443  1794.651
 444  1745.93
 445  1146.713
 446  1140.364
 447  1223.421
 448  1465.468
 449  1478.763
 450  1155.988
 451  1012.164
 452  1202.086
 453  1248.344
 454  1154.27
 455  920.5033
 456  1337.198
 457  1508.351
 458  1299.31
 459  1242.993
 460  1203.429
 461  1414.511
 462  1400.324
 463  1115.024
 464  1168.869
 465  1510.03
 466  1604.493
 467  1694.537
 468  1706.618
 469  1379.215
 470  1400.096
 471  1483.846
 472  1619.782
 473  1542.077
 474  1337.05
 475  1415.04
 476  1547.181
 477  1624.064
 478  1642.275
 479  1699.776
 480  1438.786
 481  1316.617
 482  1592.22
 483  1346.275
 484  1372.436
 485  1544.232
 486  1528.527
 487  1488.88
 488  1595.392
 489  1499.847
 490  1313.128
 491  1289.027
 492  1423.104
 493  1418.828
 494  1274.885
 495  1419.273
 496  1245.718
 497  1413.345
 498  1434.854
 499  1340.025
 500  1370.548
 501  1673.332
 502  1731.677
 503  1793.977
 504  1695.836
 505  1562.016
 506  1477.017
 507  1799.403
 508  1523.112
 509  1300.587
 510  1549.62
 511  1636.778
