# Input file       =  1212577115.126887_cleaned.dat
# Candidate        =  PSR_0332+5434
# Telescope        =  AR
# Epoch_topo       =  58278.457570913044
# Epoch_bary       =  N/A
# T_sample         =  0.002
# Data Folded      =  7340032
# Data Avg         =  0.0708490297464386
# Data StdDev      =  2.63105476015358 
# Profile Bins     =  512
# Profile Avg      =  1015.71392341752 
# Profile StdDev   =  315.024175306732 
# Reduced chi-sqr  =  1.496
# Prob(Noise)      <  2.26e-12   (~6.9 sigma)
# P_topo (ms)      =  714.509101015382  +/- 0.000276
# P'_topo (s/s)    =  -0                +/- 1.46e-10
# P''_topo (s/s^2) =  0                 +/- 6.43e-14
# P_bary (ms)      =  N/A
# P'_bary (s/s)    =  N/A
# P''_bary (s/s^2) =  N/A
# P_orb (s)        =  N/A
# asin(i)/c (s)    =  N/A
# eccentricity     =  N/A
# w (rad)          =  N/A
# T_peri           =  N/A
######################################################
   0  1194.648
   1  1335.481
   2  1194.456
   3  824.6492
   4  1051.553
   5  1109.979
   6  1083.893
   7  875.0302
   8  653.8717
   9  1033.04
  10  1165.862
  11  907.5049
  12  981.8607
  13  1110.318
  14  1212.953
  15  1291.437
  16  1227.054
  17  1070.198
  18  959.1141
  19  1159.689
  20  1313.276
  21  1013.194
  22  1111.691
  23  1214.777
  24  1193.208
  25  955.8162
  26  758.977
  27  837.025
  28  864.2108
  29  1000.49
  30  1050.127
  31  895.7996
  32  577.8951
  33  483.3614
  34  866.4084
  35  762.0842
  36  754.8524
  37  951.5352
  38  873.4912
  39  810.9263
  40  1038.272
  41  950.6184
  42  623.8251
  43  696.325
  44  1099.983
  45  915.0751
  46  889.9421
  47  1063.724
  48  1224.632
  49  1114.538
  50  755.9512
  51  767.6996
  52  984.779
  53  699.4935
  54  982.3215
  55  1290.461
  56  947.4274
  57  890.0596
  58  1143.242
  59  1151.825
  60  1124.769
  61  1498.652
  62  1434.211
  63  956.4317
  64  984.4442
  65  1179.198
  66  1052.477
  67  1122.587
  68  1143.999
  69  1141.505
  70  1219.315
  71  1020.222
  72  1069.802
  73  1318.352
  74  1063.135
  75  1026.286
  76  1401.814
  77  1234.729
  78  903.7291
  79  1094.702
  80  1257.055
  81  1144.354
  82  780.0235
  83  908.7906
  84  940.5065
  85  731.028
  86  864.077
  87  1057.607
  88  1236.864
  89  1051.088
  90  594.7606
  91  619.4284
  92  546.6121
  93  571.0106
  94  619.2274
  95  610.3029
  96  982.0027
  97  938.8694
  98  831.5991
  99  638.0502
 100  672.996
 101  979.363
 102  1038.493
 103  1167.075
 104  1340.078
 105  1297.892
 106  1333.436
 107  1208.966
 108  1194.969
 109  1156.816
 110  1142.978
 111  1052.64
 112  978.3381
 113  1073.111
 114  1232.367
 115  885.614
 116  883.9172
 117  1064.193
 118  780.5829
 119  764.5363
 120  851.3329
 121  746.7775
 122  731.3502
 123  835.2258
 124  936.3538
 125  684.8889
 126  891.2216
 127  942.6526
 128  804.1595
 129  946.2513
 130  941.946
 131  910.7479
 132  746.6686
 133  873.7693
 134  1086.724
 135  946.1985
 136  994.9672
 137  881.7615
 138  1071.749
 139  925.5059
 140  1342.93
 141  1435.834
 142  970.259
 143  727.8999
 144  707.0561
 145  858.5812
 146  794.2725
 147  1057.817
 148  1289.308
 149  1167.545
 150  1121.264
 151  1034.554
 152  1126.083
 153  1106.318
 154  783.9335
 155  870.4161
 156  1186.046
 157  1301.322
 158  1124.926
 159  1257.326
 160  1088.244
 161  1191.078
 162  986.0355
 163  981.5834
 164  821.767
 165  878.6715
 166  1132.05
 167  971.3918
 168  1075.707
 169  1320.604
 170  1140
 171  954.6169
 172  744.0414
 173  673.6572
 174  803.9975
 175  654.5153
 176  845.9473
 177  1129.683
 178  928.9611
 179  666.3196
 180  789.4186
 181  754.8788
 182  628.347
 183  652.0962
 184  947.1874
 185  1080.45
 186  647.182
 187  546.6888
 188  576.6451
 189  585.4733
 190  684.082
 191  903.9816
 192  874.1572
 193  743.0857
 194  768.1705
 195  557.9263
 196  773.3956
 197  1283.63
 198  1155.37
 199  954.6074
 200  1176.251
 201  800.2383
 202  1060.953
 203  1040.9
 204  1259.414
 205  1361.743
 206  1297.285
 207  856.7612
 208  855.9702
 209  844.4091
 210  634.7101
 211  862.6885
 212  878.457
 213  1274.787
 214  1077.591
 215  1183.298
 216  1139.003
 217  1032.622
 218  1022.823
 219  733.7133
 220  680.7389
 221  825.0972
 222  862.8563
 223  564.2402
 224  825.4807
 225  916.3554
 226  643.6312
 227  624.5422
 228  624.3939
 229  852.3028
 230  705.6815
 231  904.4393
 232  1014.476
 233  883.988
 234  1035.938
 235  744.0485
 236  918.7531
 237  936.6989
 238  1013.548
 239  1110.731
 240  1094.909
 241  974.792
 242  877.3932
 243  901.1791
 244  798.928
 245  950.5495
 246  1074.01
 247  777.461
 248  783.6273
 249  1131.42
 250  949.0831
 251  850.1345
 252  992.5754
 253  723.7548
 254  757.7289
 255  836.2006
 256  529.8002
 257  485.5948
 258  723.0104
 259  773.2652
 260  997.2817
 261  927.5639
 262  970.8512
 263  593.2051
 264  600.6151
 265  1066.506
 266  1045.848
 267  919.0456
 268  811.631
 269  1151.903
 270  1116.006
 271  860.2354
 272  1308.196
 273  1474.339
 274  1194.483
 275  1374.931
 276  1223.948
 277  1481.804
 278  1590.371
 279  1517.495
 280  1660.289
 281  1505.104
 282  1276.975
 283  1477.808
 284  1415.852
 285  1052.306
 286  1101.098
 287  1167.783
 288  1146.558
 289  1188.222
 290  1341.5
 291  1483.269
 292  1342.248
 293  1256.182
 294  1518.933
 295  1620.764
 296  1936.541
 297  2478.324
 298  2941.654
 299  2931.956
 300  2710.562
 301  2320.981
 302  1470.228
 303  997.5917
 304  1008.061
 305  1013.119
 306  912.9309
 307  1180.487
 308  1013.37
 309  853.7556
 310  867.006
 311  890.5784
 312  819.6017
 313  902.4344
 314  1082.045
 315  899.7319
 316  894.8856
 317  942.6077
 318  1082.651
 319  1228.15
 320  939.0936
 321  1022.878
 322  1132.552
 323  820.8711
 324  847.963
 325  1062.176
 326  990.9025
 327  727.8738
 328  760.9031
 329  1093.824
 330  724.2621
 331  764.5078
 332  859.8211
 333  616.2946
 334  627.2128
 335  923.5688
 336  1082.645
 337  904.9222
 338  776.4792
 339  889.6246
 340  818.732
 341  902.257
 342  1030.197
 343  1119.962
 344  1127.771
 345  1220.532
 346  914.3131
 347  805.3323
 348  750.5334
 349  972.1221
 350  994.7704
 351  746.033
 352  585.833
 353  790.7335
 354  974.9982
 355  839.7013
 356  1004.27
 357  1010.982
 358  1040.596
 359  658.1992
 360  602.023
 361  866.6149
 362  1060.788
 363  1039.686
 364  1083.155
 365  1130.471
 366  1081.745
 367  1159.145
 368  1159.885
 369  813.2732
 370  1005.836
 371  1351.695
 372  1268.113
 373  1161.261
 374  1190.716
 375  995.7891
 376  1201.788
 377  974.9821
 378  1230.594
 379  1437.257
 380  1498.377
 381  1162.449
 382  988.6951
 383  968.7769
 384  1224.053
 385  1223.193
 386  1337.176
 387  1401.879
 388  1063.975
 389  994.5235
 390  905.9995
 391  903.9854
 392  977.6155
 393  971.1614
 394  811.1448
 395  720.0087
 396  904.3469
 397  1002.772
 398  1119.287
 399  834.7425
 400  957.4387
 401  932.2261
 402  925.7856
 403  1044.25
 404  1003.781
 405  1251.379
 406  1070.547
 407  1009.7
 408  1200.976
 409  1287.72
 410  1021.217
 411  783.5952
 412  1177.95
 413  1152.45
 414  1111.608
 415  1143.364
 416  1165.331
 417  1012.153
 418  1034.495
 419  1078.197
 420  981.3487
 421  808.9608
 422  763.2814
 423  825.8843
 424  1168.111
 425  1302.888
 426  1124.771
 427  1023.236
 428  874.5991
 429  980.6176
 430  1055.356
 431  997.5921
 432  837.652
 433  1186.669
 434  1349.933
 435  940.9629
 436  1017.776
 437  978.3116
 438  617.3764
 439  634.8672
 440  713.9309
 441  749.5609
 442  829.9216
 443  928.2
 444  882.9178
 445  1290.93
 446  1393.943
 447  1389.996
 448  1227.649
 449  1096.342
 450  1273.032
 451  1597.497
 452  1540.508
 453  1390.359
 454  1155.048
 455  952.5962
 456  1052.932
 457  842.5497
 458  1150.625
 459  1361.826
 460  1333.733
 461  1335.962
 462  1234.918
 463  1246.901
 464  978.5363
 465  1053.18
 466  1203.321
 467  870.1567
 468  490.6356
 469  719.5807
 470  1112.38
 471  1010.322
 472  965.1212
 473  1070.445
 474  1064.635
 475  800.8232
 476  965.3307
 477  1212.832
 478  1323.439
 479  1231.87
 480  1132.388
 481  1062.821
 482  898.4175
 483  981.1421
 484  1036.827
 485  1169.297
 486  1249.901
 487  956.2166
 488  941.3177
 489  1042.938
 490  1201.533
 491  1442.301
 492  1410.037
 493  1029.239
 494  957.9332
 495  869.0009
 496  989.5967
 497  992.0308
 498  833.6019
 499  998.923
 500  695.8265
 501  556.7064
 502  514.188
 503  715.186
 504  1179.432
 505  875.5373
 506  622.6941
 507  810.5353
 508  992.4064
 509  945.0007
 510  1103.334
 511  994.2743
