# Input file       =  1212131393.119983_cleaned.dat
# Candidate        =  PSR_0332+5434
# Telescope        =  AR
# Epoch_topo       =  58273.298751388691
# Epoch_bary       =  N/A
# T_sample         =  0.002
# Data Folded      =  7340032
# Data Avg         =  0.0517570637530211
# Data StdDev      =  1.00023268153056 
# Profile Bins     =  512
# Profile Avg      =  741.915178686611 
# Profile StdDev   =  119.760896042929 
# Reduced chi-sqr  =  0.881
# Prob(Noise)      <  0.976   (~0.0 sigma)
# P_topo (ms)      =  714.513738019987  +/- 0.000456
# P'_topo (s/s)    =  -0                +/- 2.41e-10
# P''_topo (s/s^2) =  0                 +/- 1.06e-13
# P_bary (ms)      =  N/A
# P'_bary (s/s)    =  N/A
# P''_bary (s/s^2) =  N/A
# P_orb (s)        =  N/A
# asin(i)/c (s)    =  N/A
# eccentricity     =  N/A
# w (rad)          =  N/A
# T_peri           =  N/A
######################################################
   0  594.1893
   1  633.5357
   2  630.3373
   3  621.9792
   4  601.1304
   5  611.0342
   6  677.9005
   7  697.4428
   8  699.2474
   9  656.8175
  10  595.142
  11  613.3455
  12  689.4998
  13  675.1008
  14  715.5783
  15  596.3889
  16  643.2252
  17  721.8256
  18  742.1887
  19  788.4841
  20  772.8959
  21  649.4098
  22  728.3599
  23  809.7702
  24  842.3262
  25  745.3955
  26  662.7594
  27  766.5085
  28  709.9005
  29  690.8317
  30  772.2254
  31  762.934
  32  830.1273
  33  835.8954
  34  765.6998
  35  706.0499
  36  728.123
  37  738.8607
  38  820.6785
  39  723.699
  40  730.8287
  41  756.6743
  42  836.2946
  43  828.3902
  44  745.9183
  45  747.4944
  46  885.3624
  47  929.5234
  48  862.5322
  49  952.1827
  50  829.3312
  51  827.5898
  52  749.4526
  53  808.3529
  54  940.0764
  55  824.1996
  56  738.2877
  57  688.0034
  58  826.0591
  59  806.6875
  60  833.9227
  61  811.5966
  62  833.9045
  63  791.4271
  64  846.3546
  65  895.8987
  66  848.6449
  67  863.9769
  68  820.349
  69  775.0037
  70  697.3005
  71  736.0935
  72  709.622
  73  825.4589
  74  802.2431
  75  768.6079
  76  658.0341
  77  892.1243
  78  865.2656
  79  722.784
  80  730.3933
  81  866.4171
  82  795.8712
  83  754.1951
  84  757.5982
  85  758.924
  86  785.1076
  87  789.478
  88  687.9852
  89  719.9054
  90  774.691
  91  816.8458
  92  733.0802
  93  776.0505
  94  728.0556
  95  659.7394
  96  718.7947
  97  673.0165
  98  774.3915
  99  761.0006
 100  747.9888
 101  708.8677
 102  757.2257
 103  746.4362
 104  789.2618
 105  779.4716
 106  741.3517
 107  751.1593
 108  678.5759
 109  679.7616
 110  721.0117
 111  760.8787
 112  762.4833
 113  769.0767
 114  780.2574
 115  788.0278
 116  692.0557
 117  689.2103
 118  742.3476
 119  742.9195
 120  698.1597
 121  758.7515
 122  753.0773
 123  751.8725
 124  766.7372
 125  706.5823
 126  667.7292
 127  687.7526
 128  746.8632
 129  714.515
 130  754.4374
 131  798.7889
 132  742.2932
 133  723.4526
 134  804.2875
 135  720.5482
 136  825.6824
 137  818.5668
 138  816.2012
 139  805.9194
 140  768.6428
 141  771.4336
 142  762.9797
 143  699.4401
 144  697.7487
 145  652.2827
 146  736.8771
 147  763.3559
 148  669.7287
 149  753.7276
 150  720.9745
 151  618.5994
 152  685.5883
 153  691.5889
 154  804.422
 155  811.3737
 156  695.8715
 157  704.9619
 158  775.7109
 159  753.9447
 160  793.9188
 161  854.1379
 162  744.7014
 163  669.9521
 164  782.2163
 165  775.4522
 166  749.6545
 167  724.0677
 168  700.7452
 169  690.5856
 170  660.0284
 171  679.592
 172  599.2528
 173  694.6683
 174  686.0067
 175  746.3677
 176  848.5138
 177  843.9684
 178  808.3849
 179  777.8201
 180  674.0704
 181  776.6183
 182  779.9153
 183  793.0418
 184  731.5397
 185  763.5139
 186  793.4106
 187  829.4699
 188  715.3936
 189  672.9089
 190  728.9681
 191  690.884
 192  702.2048
 193  635.1724
 194  727.3214
 195  785.8683
 196  751.8853
 197  762.6767
 198  716.0992
 199  671.4468
 200  658.3671
 201  707.5526
 202  755.2819
 203  683.8956
 204  651.9604
 205  670.2381
 206  667.8634
 207  724.9932
 208  711.7793
 209  581.6562
 210  646.6636
 211  696.2168
 212  629.9246
 213  701.0076
 214  706.0197
 215  661.3541
 216  597.4012
 217  630.0021
 218  671.6121
 219  786.8338
 220  657.9155
 221  579.655
 222  574.9833
 223  543.3244
 224  646.3566
 225  803.7332
 226  733.8438
 227  682.7418
 228  702.1187
 229  663.9847
 230  702.4579
 231  732.0972
 232  689.6781
 233  624.0864
 234  685.1205
 235  864.1948
 236  831.8187
 237  792.6492
 238  806.8713
 239  779.1689
 240  778.1988
 241  806.4943
 242  823.447
 243  802.5206
 244  846.9831
 245  773.447
 246  802.8743
 247  815.7593
 248  787.5583
 249  850.7055
 250  818.2806
 251  800.7294
 252  836.5881
 253  792.8994
 254  735.3349
 255  741.1261
 256  827.903
 257  813.3477
 258  867.8644
 259  859.0792
 260  741.1021
 261  791.2437
 262  846.1489
 263  811.3111
 264  718.0572
 265  778.9771
 266  760.4372
 267  661.7377
 268  760.44
 269  879.9734
 270  847.9079
 271  799.4132
 272  762.0687
 273  657.5577
 274  684.5246
 275  630.4757
 276  761.8123
 277  790.3884
 278  755.1313
 279  746.6213
 280  624.8107
 281  601.3498
 282  775.2867
 283  736.1973
 284  658.8516
 285  797.0414
 286  799.6646
 287  676.0804
 288  732.1583
 289  738.2714
 290  732.8453
 291  659.3353
 292  634.7702
 293  646.299
 294  808.6149
 295  753.4818
 296  731.5266
 297  628.7765
 298  580.5427
 299  633.807
 300  670.9937
 301  822.3162
 302  808.0889
 303  777.3882
 304  835.864
 305  723.7635
 306  744.5261
 307  739.2914
 308  706.8333
 309  689.5997
 310  669.5355
 311  654.8721
 312  703.5966
 313  766.4114
 314  724.302
 315  746.0687
 316  683.0876
 317  700.3177
 318  732.6363
 319  737.677
 320  775.5332
 321  736.6526
 322  692.3799
 323  626.1686
 324  669.2885
 325  705.3989
 326  685.5703
 327  743.7606
 328  801.2343
 329  724.7958
 330  721.3522
 331  763.0731
 332  812.2148
 333  720.8065
 334  775.6912
 335  944.8981
 336  1153.861
 337  1207.981
 338  1135.799
 339  1019.502
 340  912.7979
 341  878.9008
 342  729.4133
 343  678.4119
 344  650.6494
 345  692.2898
 346  668.7933
 347  657.6323
 348  648.7844
 349  642.3487
 350  531.9953
 351  621.7582
 352  726.7478
 353  791.6072
 354  662.2064
 355  657.0756
 356  732.8252
 357  725.2547
 358  699.3761
 359  559.8961
 360  594.5052
 361  607.9787
 362  608.5759
 363  605.7213
 364  595.2771
 365  648.8174
 366  718.2498
 367  739.6745
 368  695.1042
 369  655.2083
 370  685.4821
 371  642.0174
 372  696.4253
 373  709.483
 374  723.6428
 375  756.8516
 376  790.1821
 377  847.9778
 378  852.6627
 379  773.162
 380  846.9781
 381  759.3291
 382  669.5235
 383  633.2783
 384  685.7733
 385  719.6157
 386  791.6871
 387  806.6903
 388  771.5517
 389  763.3173
 390  805.7206
 391  694.0292
 392  688.0677
 393  746.5909
 394  774.7336
 395  706.003
 396  738.1045
 397  832.6881
 398  811.5533
 399  817.5995
 400  853.9422
 401  853.3938
 402  846.0455
 403  838.0112
 404  955.2202
 405  874.1695
 406  904.118
 407  799.5038
 408  729.9957
 409  718.1307
 410  751.0651
 411  715.3834
 412  688.7652
 413  713.3086
 414  707.5209
 415  753.5961
 416  693.8263
 417  702.3221
 418  670.684
 419  639.5739
 420  675.814
 421  711.6103
 422  767.6785
 423  865.7814
 424  856.5771
 425  867.9985
 426  824.0103
 427  803.8703
 428  777.6525
 429  899.6904
 430  888.8133
 431  744.4164
 432  792.3529
 433  860.9738
 434  869.3766
 435  840.9936
 436  794.0363
 437  809.2029
 438  811.5975
 439  833.3078
 440  716.1992
 441  710.0596
 442  712.2458
 443  718.2657
 444  731.3768
 445  689.5491
 446  769.7046
 447  783.6003
 448  757.1851
 449  745.2613
 450  642.7979
 451  676.7629
 452  731.6102
 453  698.1513
 454  666.9913
 455  685.078
 456  754.0906
 457  676.9588
 458  764.3135
 459  687.8757
 460  690.5746
 461  794.8913
 462  772.8944
 463  638.5502
 464  647.0162
 465  727.1606
 466  887.6749
 467  901.1113
 468  713.2511
 469  770.1178
 470  850.1253
 471  810.5776
 472  808.4694
 473  777.2722
 474  665.2069
 475  702.0997
 476  711.4918
 477  708.2092
 478  706.5034
 479  750.3425
 480  714.145
 481  633.8269
 482  768.9752
 483  717.2151
 484  657.7892
 485  647.9793
 486  661.6597
 487  643.3024
 488  679.9866
 489  762.082
 490  815.9224
 491  819.9983
 492  741.1154
 493  643.7126
 494  714.5673
 495  726.9692
 496  688.8325
 497  751.4066
 498  756.2388
 499  763.2656
 500  696.1978
 501  626.5826
 502  760.4268
 503  756.4229
 504  602.3691
 505  627.6892
 506  573.316
 507  607.3792
 508  712.2023
 509  709.1624
 510  680.2275
 511  655.7997
