# Input file       =  1212303721.111694_cleaned.dat
# Candidate        =  PSR_0332+5434
# Telescope        =  AR
# Epoch_topo       =  58275.293288329791
# Epoch_bary       =  N/A
# T_sample         =  0.002
# Data Folded      =  7340032
# Data Avg         =  0.108667686094123
# Data StdDev      =  2.89485174862554 
# Profile Bins     =  1024
# Profile Avg      =  778.974678854942 
# Profile StdDev   =  245.089849896437 
# Reduced chi-sqr  =  1.528
# Prob(Noise)      <  2.4e-25   (~10.3 sigma)
# P_topo (ms)      =  714.511809310777  +/- 0.000518
# P'_topo (s/s)    =  -0                +/- 2.73e-10
# P''_topo (s/s^2) =  0                 +/- 1.21e-13
# P_bary (ms)      =  N/A
# P'_bary (s/s)    =  N/A
# P''_bary (s/s^2) =  N/A
# P_orb (s)        =  N/A
# asin(i)/c (s)    =  N/A
# eccentricity     =  N/A
# w (rad)          =  N/A
# T_peri           =  N/A
######################################################
   0  766.1846
   1  818.8891
   2  897.3603
   3  834.3315
   4  738.3601
   5  699.9981
   6  755.1219
   7  778.6435
   8  761.9153
   9  715.8183
  10  769.5818
  11  858.6816
  12  881.6169
  13  838.2792
  14  736.4973
  15  671.6611
  16  606.3411
  17  709.6266
  18  795.6229
  19  769.3375
  20  723.9632
  21  656.7853
  22  719.8285
  23  709.9839
  24  768.2214
  25  719.1352
  26  797.9964
  27  874.9175
  28  921.0732
  29  748.0383
  30  703.3039
  31  676.8493
  32  677.8657
  33  546.4589
  34  549.2302
  35  748.3467
  36  878.0219
  37  868.0359
  38  774.2214
  39  719.021
  40  670.4304
  41  650.8371
  42  692.1011
  43  676.905
  44  583.4684
  45  487.7133
  46  544.1451
  47  677.5038
  48  761.77
  49  770.8172
  50  678.3268
  51  563.6464
  52  495.2646
  53  542.9472
  54  602.0223
  55  664.6074
  56  600.7414
  57  643.5073
  58  662.7348
  59  753.2303
  60  773.6204
  61  723.0729
  62  678.8082
  63  647.3585
  64  690.1208
  65  739.8494
  66  728.6346
  67  698.2332
  68  640.2978
  69  629.9363
  70  609.8536
  71  535.1449
  72  526.1187
  73  711.5029
  74  860.9329
  75  873.3155
  76  733.4369
  77  715.8007
  78  731.5612
  79  687.8547
  80  713.0184
  81  673.4438
  82  668.5041
  83  716.2571
  84  772.4058
  85  767.0379
  86  704.553
  87  654.4762
  88  742.9566
  89  642.459
  90  611.4348
  91  522.5522
  92  529.5168
  93  610.5532
  94  692.0441
  95  802.4254
  96  796.4413
  97  836.888
  98  682.9065
  99  574.1854
 100  524.1738
 101  757.6691
 102  840.9084
 103  860.3721
 104  758.9848
 105  725.523
 106  690.0836
 107  702.9045
 108  690.696
 109  634.5956
 110  614.0663
 111  623.6534
 112  666.406
 113  732.6341
 114  771.5272
 115  661.3193
 116  544.1678
 117  631.31
 118  759.4159
 119  834.6385
 120  753.6617
 121  692.0766
 122  659.4618
 123  682.3182
 124  706.9958
 125  615.949
 126  610.7185
 127  644.4386
 128  692.1221
 129  593.2575
 130  550.6772
 131  523.7343
 132  616.0283
 133  689.2435
 134  652.4164
 135  702.1135
 136  721.7437
 137  740.6631
 138  628.8734
 139  530.9596
 140  511.6718
 141  580.2053
 142  648.9775
 143  673.2659
 144  688.2659
 145  685.4472
 146  693.085
 147  604.0805
 148  614.2594
 149  620.7195
 150  605.3837
 151  645.6448
 152  694.5953
 153  788.1393
 154  762.7873
 155  778.614
 156  797.2496
 157  715.3484
 158  677.9999
 159  620.4201
 160  614.2355
 161  535.02
 162  520.2615
 163  516.5333
 164  540.1307
 165  495.0983
 166  550.866
 167  500.2885
 168  508.6002
 169  487.2106
 170  518.21
 171  523.6267
 172  548.5366
 173  506.3545
 174  431.2283
 175  437.3529
 176  554.6093
 177  561.3082
 178  605.5749
 179  590.9025
 180  676.3033
 181  738.9319
 182  700.012
 183  606.034
 184  534.3575
 185  605.4163
 186  550.422
 187  536.0495
 188  587.8883
 189  685.97
 190  721.7007
 191  731.738
 192  705.8339
 193  716.7488
 194  578.2671
 195  544.6478
 196  467.4819
 197  580.3527
 198  662.6225
 199  708.2017
 200  640.2236
 201  542.7314
 202  588.7809
 203  711.6878
 204  766.3872
 205  740.4576
 206  624.4031
 207  567.8448
 208  520.0144
 209  562.4168
 210  575.7204
 211  642.9255
 212  682.8538
 213  647.696
 214  560.4869
 215  544.304
 216  629.4642
 217  631.543
 218  633.9207
 219  593.5613
 220  555.5186
 221  662.0078
 222  715.3375
 223  780.7321
 224  839.0344
 225  819.0646
 226  763.5594
 227  643.1429
 228  681.5302
 229  687.4338
 230  643.1741
 231  660.7597
 232  749.236
 233  726.3466
 234  684.3232
 235  626.1812
 236  644.0393
 237  524.8123
 238  520.8599
 239  453.7722
 240  565.1652
 241  665.2142
 242  691.8367
 243  488.1656
 244  336.9034
 245  339.963
 246  546.6487
 247  623.7647
 248  587.6111
 249  490.0215
 250  534.11
 251  700.8214
 252  797.757
 253  766.5331
 254  670.8537
 255  610.823
 256  595.8615
 257  655.507
 258  615.9904
 259  658.8627
 260  663.0582
 261  750.6823
 262  619.753
 263  533.1437
 264  523.9831
 265  604.1288
 266  693.5034
 267  673.8989
 268  636.2684
 269  612.3245
 270  590.259
 271  614.9694
 272  490.2139
 273  462.1744
 274  499.074
 275  573.6373
 276  629.2051
 277  544.445
 278  564.9869
 279  614.3173
 280  723.621
 281  715.6871
 282  682.0858
 283  601.5035
 284  442.612
 285  468.9618
 286  509.5675
 287  624.4566
 288  601.1174
 289  660.8819
 290  665.8778
 291  623.7515
 292  556.9998
 293  621.0251
 294  660.011
 295  623.908
 296  605.6505
 297  603.5797
 298  619.7461
 299  677.7203
 300  625.428
 301  587.3738
 302  486.024
 303  410.5356
 304  369.7118
 305  406.5757
 306  472.3011
 307  485.741
 308  486.046
 309  688.6266
 310  722.7562
 311  761.9642
 312  662.7787
 313  700.2444
 314  613.832
 315  636.3388
 316  642.5847
 317  682.1657
 318  681.9513
 319  719.9955
 320  680.1294
 321  663.6539
 322  726.363
 323  726.3319
 324  660.1036
 325  568.1053
 326  647.643
 327  618.248
 328  586.7276
 329  606.3492
 330  792.0283
 331  873.8432
 332  885.1182
 333  805.5781
 334  706.0731
 335  736.0477
 336  767.3577
 337  859.8253
 338  789.5019
 339  773.595
 340  723.3568
 341  730.1863
 342  715.1057
 343  694.4385
 344  618.1568
 345  531.6312
 346  465.1316
 347  533.8493
 348  619.8868
 349  681.8135
 350  692.4729
 351  737.0635
 352  840.6495
 353  925.4794
 354  921.4819
 355  918.0059
 356  892.5824
 357  825.6495
 358  667.8641
 359  593.4364
 360  607.1047
 361  695.6726
 362  685.1555
 363  651.355
 364  627.3687
 365  630.9605
 366  583.79
 367  560.2735
 368  589.8333
 369  748.868
 370  664.1684
 371  657.4299
 372  589.6243
 373  639.5463
 374  693.1097
 375  790.1176
 376  769.761
 377  696.8266
 378  575.4712
 379  681.7023
 380  736.0768
 381  800.4179
 382  717.2479
 383  800.5817
 384  826.9407
 385  807.0677
 386  798.8233
 387  940.4758
 388  1001.366
 389  1021.055
 390  857.2759
 391  777.9109
 392  736.008
 393  833.0954
 394  867.0757
 395  862.3266
 396  755.171
 397  722.2357
 398  692.5342
 399  706.7012
 400  696.0426
 401  719.2344
 402  797.7646
 403  765.2598
 404  683.4954
 405  683.3567
 406  750.8599
 407  756.8431
 408  687.1046
 409  644.5402
 410  576.8594
 411  567.2711
 412  565.6053
 413  605.6464
 414  616.7248
 415  671.1849
 416  663.8034
 417  736.0555
 418  764.7408
 419  810.9053
 420  757.6385
 421  775.7366
 422  779.6422
 423  780.0609
 424  691.2298
 425  669.5985
 426  708.5488
 427  721.8061
 428  614.0308
 429  574.1735
 430  597.1355
 431  665.8461
 432  675.5576
 433  671.3044
 434  652.6404
 435  516.1012
 436  471.174
 437  496.2939
 438  582.6329
 439  608.847
 440  610.545
 441  654.6541
 442  612.3226
 443  595.9935
 444  646.7816
 445  680.2689
 446  632.2242
 447  574.9371
 448  668.1037
 449  725.4869
 450  774.257
 451  826.8679
 452  881.2997
 453  885.4321
 454  819.9922
 455  825.6494
 456  820.4366
 457  818.7257
 458  751.5776
 459  762.7631
 460  694.7244
 461  684.7571
 462  651.2974
 463  786.8409
 464  919.0782
 465  899.9415
 466  820.0536
 467  706.3488
 468  681.0485
 469  611.2361
 470  545.9655
 471  606.928
 472  717.5336
 473  787.4652
 474  745.7601
 475  669.9026
 476  645.2136
 477  770.9969
 478  849.3214
 479  877.1216
 480  842.8702
 481  833.7621
 482  767.2817
 483  641.4928
 484  602.316
 485  677.7401
 486  773.9822
 487  807.6381
 488  889.947
 489  836.1713
 490  810.7396
 491  774.014
 492  757.4377
 493  693.1923
 494  626.5195
 495  633.7559
 496  714.7316
 497  876.5515
 498  959.8873
 499  979.4525
 500  834.7098
 501  756.2814
 502  768.9169
 503  817.705
 504  829.9312
 505  798.5494
 506  791.8283
 507  752.3859
 508  728.5217
 509  740.249
 510  766.9172
 511  727.9197
 512  633.9977
 513  599.9866
 514  708.6237
 515  765.8368
 516  723.2958
 517  699.7342
 518  670.3303
 519  627.7554
 520  673.2648
 521  759.9385
 522  827.9202
 523  809.7047
 524  809.9729
 525  705.1639
 526  547.6539
 527  492.8966
 528  583.6512
 529  658.2797
 530  705.1901
 531  688.9436
 532  796.5493
 533  875.4443
 534  987.9831
 535  1005.102
 536  1076.352
 537  1036.593
 538  962.116
 539  903.0985
 540  894.5081
 541  857.6456
 542  862.4863
 543  896.5306
 544  839.0281
 545  806.4017
 546  730.8544
 547  705.1473
 548  694.4142
 549  717.8741
 550  752.2739
 551  694.0217
 552  672.5892
 553  725.3961
 554  792.5461
 555  861.0136
 556  953.2631
 557  956.6797
 558  927.7958
 559  743.7628
 560  638.6675
 561  587.2805
 562  675.0218
 563  763.2037
 564  898.4269
 565  904.6431
 566  878.1237
 567  837.2013
 568  844.163
 569  904.5565
 570  808.3563
 571  844.377
 572  797.8423
 573  813.7142
 574  778.8869
 575  794.4586
 576  780.296
 577  752.1735
 578  716.7749
 579  815.1627
 580  843.2474
 581  890.6854
 582  845.6166
 583  964.0176
 584  1014.549
 585  1037.22
 586  972.4606
 587  962.823
 588  967.348
 589  1110.907
 590  1343.788
 591  1296.61
 592  1210.609
 593  1191.597
 594  1432.754
 595  1588.657
 596  1728.184
 597  1868.139
 598  1878.589
 599  1816.93
 600  1625.071
 601  1469.763
 602  1281.826
 603  1222.129
 604  1113.445
 605  1070.334
 606  890.1836
 607  827.4755
 608  822.1019
 609  836.7266
 610  814.4018
 611  783.7538
 612  846.7148
 613  884.2562
 614  900.1351
 615  833.1666
 616  833.7711
 617  926.6036
 618  961.7133
 619  855.8285
 620  775.1254
 621  849.1081
 622  987.7206
 623  1021.067
 624  898.852
 625  858.2997
 626  910.9711
 627  1002.754
 628  969.0731
 629  979.214
 630  921.2739
 631  848.8124
 632  731.9034
 633  744.8384
 634  737.2979
 635  837.2015
 636  887.6403
 637  906.8988
 638  891.1087
 639  953.7334
 640  976.2609
 641  953.6567
 642  788.3878
 643  691.7112
 644  717.2977
 645  782.7661
 646  825.6735
 647  892.2883
 648  907.1426
 649  923.052
 650  1018.679
 651  1059.392
 652  988.3924
 653  838.0943
 654  875.1531
 655  843.8227
 656  783.463
 657  642.7352
 658  682.6562
 659  815.8129
 660  849.8657
 661  769.1543
 662  775.676
 663  818.8936
 664  970.6793
 665  969.0977
 666  891.5784
 667  781.858
 668  681.2769
 669  634.9849
 670  712.6812
 671  828.9424
 672  865.3963
 673  699.0469
 674  656.7248
 675  654.4347
 676  771.8145
 677  778.0683
 678  747.425
 679  639.7986
 680  725.931
 681  840.3439
 682  888.9069
 683  775.0453
 684  765.4507
 685  802.2466
 686  888.3823
 687  870.7507
 688  842.0668
 689  821.3691
 690  924.9203
 691  934.9153
 692  857.8528
 693  781.7559
 694  798.55
 695  796.4184
 696  870.9152
 697  922.2502
 698  906.9346
 699  823.1669
 700  729.9058
 701  741.9774
 702  643.7333
 703  669.9007
 704  712.506
 705  727.6823
 706  779.2001
 707  749.1199
 708  761.248
 709  700.2732
 710  718.4137
 711  753.2423
 712  811.7641
 713  878.1659
 714  848.9537
 715  808.5348
 716  856.8229
 717  972.8632
 718  1001.453
 719  936.9716
 720  994.3915
 721  1095.343
 722  1129.454
 723  1037.407
 724  887.027
 725  762.2653
 726  773.1562
 727  816.9754
 728  898.0199
 729  961.6417
 730  982.1361
 731  970.0356
 732  815.6765
 733  880.1165
 734  988.6871
 735  1023.278
 736  910.4718
 737  763.8688
 738  765.2695
 739  857.3105
 740  882.5845
 741  880.0693
 742  899.7147
 743  908.577
 744  868.8133
 745  800.065
 746  928.4321
 747  1019.924
 748  1148.93
 749  1101.759
 750  1001.07
 751  849.7576
 752  757.8271
 753  721.7374
 754  756.9881
 755  808.8689
 756  930.3225
 757  1001.178
 758  1019.383
 759  1022.833
 760  1023.53
 761  1072.214
 762  1088.331
 763  1060.078
 764  874.0373
 765  722.4799
 766  718.148
 767  809.7261
 768  914.3723
 769  1047.806
 770  1142.312
 771  1140.94
 772  1006.869
 773  939.8234
 774  797.5538
 775  796.7079
 776  743.128
 777  800.8848
 778  829.0991
 779  863.4102
 780  918.0211
 781  878.5494
 782  958.2706
 783  943.8197
 784  989.6375
 785  845.4082
 786  773.4969
 787  853.849
 788  963.902
 789  990.4512
 790  905.0021
 791  849.106
 792  805.9099
 793  821.7928
 794  927.3854
 795  1031.465
 796  1037.751
 797  930.7169
 798  872.8956
 799  812.3889
 800  834.962
 801  822.4223
 802  936.034
 803  976.6016
 804  1028.028
 805  942.7547
 806  903.4114
 807  909.5065
 808  835.6639
 809  839.5547
 810  842.2872
 811  871.4745
 812  858.1716
 813  859.8635
 814  871.1749
 815  866.2726
 816  921.7328
 817  960.1182
 818  1006.329
 819  959.3501
 820  998.1367
 821  933.3367
 822  896.1907
 823  804.5927
 824  747.9639
 825  758.5734
 826  873.1541
 827  913.119
 828  962.3418
 829  841.5073
 830  852.8554
 831  875.6215
 832  940.2563
 833  871.45
 834  829.1058
 835  874.7639
 836  914.8992
 837  948.0896
 838  832.8488
 839  747.9134
 840  667.9041
 841  786.6907
 842  814.2849
 843  871.6082
 844  864.1704
 845  906.3299
 846  930.5717
 847  871.3835
 848  796.4282
 849  715.9436
 850  764.5246
 851  922.9847
 852  1021.568
 853  1005.794
 854  950.7512
 855  937.3584
 856  1036.954
 857  936.8957
 858  835.2129
 859  738.1321
 860  764.1752
 861  859.6649
 862  862.6031
 863  863.4675
 864  871.9942
 865  891.0233
 866  871.2319
 867  854.2468
 868  880.5352
 869  914.5985
 870  862.9918
 871  853.555
 872  878.7243
 873  1053.039
 874  951.7928
 875  865.1264
 876  788.9329
 877  895.3648
 878  936.6064
 879  916.069
 880  923.9944
 881  864.6998
 882  900.4855
 883  1007.596
 884  1095.721
 885  1091.307
 886  983.6536
 887  868.1028
 888  803.0102
 889  754.2798
 890  759.9363
 891  716.2034
 892  748.2621
 893  805.5411
 894  862.5114
 895  908.8582
 896  996.2612
 897  1057.206
 898  1210.771
 899  1217.214
 900  1132.843
 901  912.7824
 902  818.3271
 903  834.4698
 904  863.0584
 905  962.6257
 906  982.863
 907  959.5302
 908  877.2343
 909  906.8974
 910  910.3225
 911  936.8032
 912  898.6835
 913  947.9388
 914  922.1632
 915  955.6225
 916  885.4734
 917  878.7002
 918  882.7573
 919  988.272
 920  1069.433
 921  1067.98
 922  1044.907
 923  887.8824
 924  694.8267
 925  616.5398
 926  720.8267
 927  836.7582
 928  822.3558
 929  782.0417
 930  865.6663
 931  860.7246
 932  815.8895
 933  826.2036
 934  921.2324
 935  997.5018
 936  1031.93
 937  993.877
 938  956.7475
 939  881.4114
 940  967.3502
 941  1071.55
 942  1012.381
 943  848.3202
 944  752.1451
 945  799.2463
 946  862.355
 947  954.8645
 948  1001.616
 949  944.3322
 950  885.1487
 951  876.2116
 952  921.2513
 953  918.921
 954  925.4976
 955  948.7529
 956  1023.074
 957  1064.569
 958  921.9382
 959  865.9313
 960  789.7986
 961  910.497
 962  886.3774
 963  864.8495
 964  696.1199
 965  772.0467
 966  867.2208
 967  880.4522
 968  829.5312
 969  849.9586
 970  882.2946
 971  774.2565
 972  681.7679
 973  652.5868
 974  743.2015
 975  765.769
 976  702.0862
 977  742.2157
 978  798.0248
 979  906.868
 980  959.2482
 981  848.6351
 982  755.774
 983  690.1392
 984  735.8585
 985  825.9096
 986  813.1813
 987  853.9259
 988  879.3799
 989  880.0714
 990  780.8679
 991  756.9745
 992  845.1145
 993  843.0275
 994  779.6506
 995  701.5296
 996  779.5135
 997  841.9373
 998  920.835
 999  980.4804
1000  900.4259
1001  905.6349
1002  856.3837
1003  827.303
1004  754.5761
1005  743.6392
1006  887.7857
1007  888.3468
1008  905.7904
1009  941.6963
1010  970.4359
1011  890.8022
1012  820.8509
1013  820.2853
1014  892.7233
1015  885.5849
1016  819.7212
1017  757.6354
1018  780.6043
1019  838.977
1020  834.0554
1021  862.1511
1022  863.4832
1023  825.6154
