# Input file       =  1212461417.113944_cleaned.dat
# Candidate        =  PSR_0332+5434
# Telescope        =  AR
# Epoch_topo       =  58277.118473541021
# Epoch_bary       =  N/A
# T_sample         =  0.002
# Data Folded      =  7143424
# Data Avg         =  0.043932523541829
# Data StdDev      =  1.00001658636893 
# Profile Bins     =  512
# Profile Avg      =  612.938117240265 
# Profile StdDev   =  118.120543640287 
# Reduced chi-sqr  =  1.590
# Prob(Noise)      <  3.93e-16   (~8.1 sigma)
# P_topo (ms)      =  714.510039918506  +/- 0.00023
# P'_topo (s/s)    =  -0                +/- 1.25e-10
# P''_topo (s/s^2) =  0                 +/- 5.66e-14
# P_bary (ms)      =  N/A
# P'_bary (s/s)    =  N/A
# P''_bary (s/s^2) =  N/A
# P_orb (s)        =  N/A
# asin(i)/c (s)    =  N/A
# eccentricity     =  N/A
# w (rad)          =  N/A
# T_peri           =  N/A
######################################################
   0  1358.534
   1  1286.296
   2  997.585
   3  817.7339
   4  821.4575
   5  651.8617
   6  496.4922
   7  521.5083
   8  621.5179
   9  629.134
  10  601.8826
  11  665.7084
  12  772.2994
  13  751.1143
  14  645.9302
  15  792.3611
  16  595.4481
  17  538.9987
  18  423.4413
  19  514.6252
  20  570.2828
  21  539.8199
  22  545.0839
  23  545.0511
  24  632.9031
  25  534.2021
  26  417.7811
  27  524.2559
  28  573.5353
  29  731.2427
  30  606.87
  31  708.3777
  32  565.7059
  33  347.6432
  34  436.2718
  35  553.5086
  36  645.105
  37  648.6583
  38  626.0549
  39  499.37
  40  549.418
  41  510.8363
  42  486.0915
  43  422.7306
  44  444.2732
  45  530.3621
  46  546.1454
  47  703.5543
  48  659.8453
  49  579.7609
  50  530.2385
  51  622.1896
  52  487.0341
  53  526.5638
  54  630.0716
  55  595.9328
  56  566.6774
  57  620.278
  58  578.2503
  59  567.8691
  60  601.2068
  61  551.3956
  62  478.2045
  63  462.1354
  64  612.7168
  65  570.2681
  66  586.9925
  67  555.0666
  68  597.4006
  69  609.3339
  70  616.2366
  71  640.1354
  72  682.9688
  73  706.7616
  74  543.1219
  75  691.2634
  76  641.2725
  77  648.51
  78  572.0974
  79  447.192
  80  557.8315
  81  621.7704
  82  647.0514
  83  643.1807
  84  578.4655
  85  620.2813
  86  567.0427
  87  515.0338
  88  678.7701
  89  648.0521
  90  677.2885
  91  738.9957
  92  633.9414
  93  649.9041
  94  513.5872
  95  519.5759
  96  632.4872
  97  646.5001
  98  585.8657
  99  613.6298
 100  650.3051
 101  579.7727
 102  536.913
 103  595.5938
 104  509.0936
 105  659.5316
 106  773.9095
 107  725.6386
 108  686.3386
 109  636.8906
 110  649.028
 111  692.1443
 112  699.0765
 113  654.7441
 114  520.4156
 115  669.2989
 116  577.4086
 117  577.0178
 118  676.0603
 119  701.3615
 120  658.4618
 121  566.3394
 122  573.2155
 123  550.1544
 124  648.8173
 125  639.1782
 126  592.2828
 127  548.543
 128  602.7476
 129  617.728
 130  646.1431
 131  653.9172
 132  556.4702
 133  665.1819
 134  708.5576
 135  620.2199
 136  632.8318
 137  659.4885
 138  585.0675
 139  658.2743
 140  639.5583
 141  584.8291
 142  571.0615
 143  652.0989
 144  563.5269
 145  515.6746
 146  632.4948
 147  670.5464
 148  657.2654
 149  581.1907
 150  563.6006
 151  402.1391
 152  602.5826
 153  803.7529
 154  635.313
 155  688.9678
 156  667.8433
 157  643.6777
 158  602.4035
 159  662.929
 160  581.4579
 161  592.9051
 162  466.3337
 163  547.3755
 164  681.9323
 165  718.4783
 166  596.1682
 167  520.9055
 168  514.9155
 169  425.9631
 170  382.2977
 171  595.3002
 172  601.3661
 173  490.1268
 174  633.6065
 175  500.1624
 176  585.799
 177  668.5307
 178  674.871
 179  673.0182
 180  542.5064
 181  592.3788
 182  609.47
 183  637.75
 184  593.6979
 185  626.46
 186  669.3842
 187  569.3013
 188  611.5894
 189  608.289
 190  456.5668
 191  456.5458
 192  572.6093
 193  655.3621
 194  579.131
 195  521.1573
 196  605.0977
 197  611.9143
 198  576.4802
 199  488.2823
 200  690.4348
 201  653.5248
 202  702.0123
 203  685.2471
 204  614.6523
 205  583.8976
 206  456.8742
 207  502.2621
 208  462.2672
 209  413.1741
 210  546.2111
 211  586.4097
 212  551.8146
 213  601.5784
 214  624.7827
 215  666.7021
 216  578.0037
 217  561.3576
 218  581.1866
 219  593.8243
 220  601.2947
 221  672.2827
 222  510.5385
 223  678.2875
 224  621.9042
 225  505.0167
 226  504.1173
 227  645.9327
 228  683.7426
 229  513.5369
 230  562.2764
 231  744.0916
 232  814.5401
 233  653.5186
 234  678.9473
 235  704.7624
 236  660.8679
 237  556.0416
 238  569.8936
 239  603.3135
 240  704.8696
 241  714.1784
 242  508.0398
 243  596.7346
 244  638.8462
 245  536.4318
 246  496.9832
 247  716.9091
 248  714.3873
 249  568.9127
 250  479.5829
 251  575.1771
 252  609.5514
 253  588.0426
 254  625.178
 255  756.9485
 256  761.3965
 257  620.778
 258  670.7045
 259  683.0093
 260  732.5939
 261  649.5236
 262  654.6683
 263  577.0874
 264  626.3287
 265  689.142
 266  587.9561
 267  725.9535
 268  780.0696
 269  705.6713
 270  878.7207
 271  690.569
 272  616.4531
 273  710.3031
 274  722.7195
 275  757.9781
 276  673.0594
 277  699.8915
 278  737.4612
 279  659.7936
 280  703.237
 281  687.1599
 282  665.9896
 283  667.8784
 284  642.3036
 285  654.634
 286  690.4894
 287  611.9551
 288  582.0952
 289  622.7792
 290  608.5995
 291  637.8414
 292  741.5439
 293  675.0421
 294  604.1627
 295  577.3981
 296  628.6128
 297  470.722
 298  453.4994
 299  536.2695
 300  529.4622
 301  636.8448
 302  661.2456
 303  622.3274
 304  704.4336
 305  716.5057
 306  578.2061
 307  483.3306
 308  536.8699
 309  613.2803
 310  679.8959
 311  724.509
 312  674.1351
 313  601.9271
 314  589.9323
 315  599.5098
 316  504.5528
 317  525.749
 318  665.9437
 319  567.635
 320  560.6628
 321  510.105
 322  406.122
 323  490.5084
 324  547.6176
 325  517.1118
 326  507.8077
 327  626.3294
 328  598.004
 329  616.0831
 330  539.9288
 331  566.5204
 332  490.0176
 333  628.8118
 334  665.0609
 335  527.9922
 336  561.4358
 337  503.1517
 338  440.0243
 339  505.447
 340  567.8746
 341  661.4042
 342  698.9678
 343  619.5396
 344  612.0815
 345  604.1819
 346  646.4017
 347  727.0836
 348  649.7503
 349  463.5293
 350  528.4158
 351  562.8795
 352  646.5378
 353  567.1919
 354  604.2422
 355  591.0339
 356  528.8942
 357  639.7216
 358  754.0277
 359  722.2856
 360  590.0397
 361  565.0588
 362  461.9878
 363  526.39
 364  684.3128
 365  718.6995
 366  869.0667
 367  758.8109
 368  776.7545
 369  760.7413
 370  775.7355
 371  659.7955
 372  705.1285
 373  608.4066
 374  630.7666
 375  809.0838
 376  650.9763
 377  622.7249
 378  709.2548
 379  624.316
 380  591.3257
 381  553.2151
 382  534.4875
 383  658.2186
 384  620.0553
 385  660.2147
 386  585.9069
 387  583.291
 388  581.6473
 389  665.4711
 390  679.6472
 391  640.8984
 392  569.7814
 393  581.9388
 394  591.9874
 395  678.8845
 396  724.5407
 397  682.8687
 398  685.6665
 399  637.4985
 400  649.4567
 401  632.8632
 402  789.7283
 403  651.1315
 404  578.1096
 405  590.9283
 406  501.2513
 407  607.4346
 408  670.3016
 409  573.1663
 410  585.7813
 411  641.7722
 412  633.1823
 413  539.7275
 414  471.394
 415  469.7331
 416  419.9309
 417  478.8112
 418  607.1193
 419  622.8292
 420  624.3922
 421  629.123
 422  590.8716
 423  692.8955
 424  585.3384
 425  413.9438
 426  565.2301
 427  611.501
 428  585.8038
 429  530.5962
 430  547.4836
 431  666.6129
 432  684.1194
 433  592.012
 434  488.9359
 435  493.1479
 436  526.5149
 437  462.9615
 438  391.5723
 439  384.2907
 440  514.526
 441  563.497
 442  651.5851
 443  667.856
 444  634.2977
 445  552.9389
 446  490.4072
 447  484.6533
 448  435.7867
 449  604.1996
 450  603.9608
 451  499.9158
 452  526.1534
 453  567.6746
 454  503.6178
 455  470.5461
 456  517.0226
 457  609.2094
 458  590.9969
 459  600.9385
 460  603.2983
 461  567.7856
 462  641.7518
 463  648.3887
 464  613.7992
 465  494.3575
 466  491.7197
 467  476.1375
 468  528.5132
 469  536.0696
 470  532.2559
 471  515.5834
 472  507.2056
 473  526.467
 474  644.8265
 475  672.3223
 476  653.0175
 477  708.3141
 478  602.9943
 479  530.9196
 480  558.9425
 481  628.6381
 482  611.496
 483  559.0947
 484  520.9482
 485  561.0121
 486  620.3452
 487  658.6821
 488  643.923
 489  593.0617
 490  617.5222
 491  716.2006
 492  760.0914
 493  675.3557
 494  610.9925
 495  677.2575
 496  661.0535
 497  629.0718
 498  650.9188
 499  596.8474
 500  522.0598
 501  505.3157
 502  668.2488
 503  697.7028
 504  709.6174
 505  690.2924
 506  738.7614
 507  794.6976
 508  878.1785
 509  1029.545
 510  1274.239
 511  1365.656
