# Input file       =  1212116758.118906_cleaned.dat
# Candidate        =  PSR_0332+5434
# Telescope        =  AR
# Epoch_topo       =  58273.129364802153
# Epoch_bary       =  N/A
# T_sample         =  0.002
# Data Folded      =  7208960
# Data Avg         =  0.0605606559678886
# Data StdDev      =  1.00010236217463 
# Profile Bins     =  512
# Profile Avg      =  852.732261446313 
# Profile StdDev   =  118.671322004805 
# Reduced chi-sqr  =  1.167
# Prob(Noise)      <  0.00529   (~2.6 sigma)
# P_topo (ms)      =  714.51389015273   +/- 0.000143
# P'_topo (s/s)    =  -0                +/- 7.68e-11
# P''_topo (s/s^2) =  0                 +/- 3.45e-14
# P_bary (ms)      =  N/A
# P'_bary (s/s)    =  N/A
# P''_bary (s/s^2) =  N/A
# P_orb (s)        =  N/A
# asin(i)/c (s)    =  N/A
# eccentricity     =  N/A
# w (rad)          =  N/A
# T_peri           =  N/A
######################################################
   0  1462.864
   1  1325.516
   2  1104.482
   3  1017.157
   4  946.0319
   5  875.0914
   6  914.4385
   7  957.796
   8  874.465
   9  795.4615
  10  828.3389
  11  762.6052
  12  861.733
  13  918.5037
  14  867.1907
  15  799.8476
  16  820.6431
  17  811.6027
  18  902.8348
  19  863.4246
  20  865.5833
  21  946.7437
  22  906.1633
  23  758.4394
  24  734.1181
  25  894.5093
  26  827.285
  27  681.9684
  28  719.4802
  29  711.4667
  30  800.6339
  31  856.2902
  32  790.1292
  33  721.5656
  34  834.3663
  35  933.4119
  36  914.7803
  37  838.3969
  38  869.9988
  39  945.1603
  40  823.9939
  41  683.1527
  42  737.1425
  43  819.0794
  44  886.6996
  45  810.6727
  46  778.1705
  47  776.1694
  48  643.7569
  49  699.2792
  50  833.6982
  51  883.7696
  52  890.4744
  53  880.5817
  54  882.046
  55  852.4432
  56  828.069
  57  797.7613
  58  858.4753
  59  738.722
  60  773.4324
  61  1067.881
  62  921.1919
  63  847.6193
  64  891.4332
  65  818.2435
  66  847.1743
  67  837.5092
  68  877.8327
  69  951.1777
  70  869.4628
  71  902.1624
  72  837.1353
  73  799.8381
  74  878.2708
  75  773.4556
  76  819.4775
  77  845.6013
  78  822.8988
  79  845.421
  80  923.7541
  81  932.6799
  82  881.646
  83  913.654
  84  914.369
  85  841.6483
  86  904.7004
  87  935.5178
  88  847.7493
  89  1119.706
  90  1128.116
  91  907.9435
  92  857.6439
  93  939.1512
  94  959.3074
  95  897.6077
  96  960.2604
  97  1006.468
  98  947.9609
  99  886.4483
 100  859.7142
 101  984.8642
 102  987.6211
 103  848.9363
 104  918.2349
 105  878.9343
 106  882.9351
 107  856.3511
 108  954.5458
 109  938.0779
 110  828.2039
 111  790.7992
 112  841.9543
 113  947.3066
 114  878.4593
 115  783.3631
 116  742.989
 117  848.3385
 118  968.6089
 119  962.2318
 120  934.5122
 121  767.4733
 122  735.7968
 123  869.0909
 124  901.8868
 125  944.2899
 126  790.4719
 127  884.2833
 128  919.6506
 129  886.543
 130  900.2455
 131  830.9221
 132  916.7297
 133  921.2114
 134  832.9285
 135  893.1095
 136  961.4371
 137  872.8372
 138  852.2556
 139  875.0039
 140  814.0698
 141  777.4224
 142  808.4203
 143  982.4715
 144  815.3199
 145  889.0275
 146  875.089
 147  978.807
 148  973.6329
 149  909.4374
 150  811.3021
 151  746.6972
 152  907.8804
 153  953.9988
 154  948.8341
 155  842.8046
 156  792.5513
 157  800.7964
 158  720.4876
 159  769.3517
 160  903.7821
 161  997.1532
 162  886.0276
 163  883.6351
 164  877.8944
 165  858.9999
 166  727.5528
 167  808.7272
 168  916.9828
 169  894.7816
 170  908.8524
 171  885.4558
 172  911.2543
 173  878.085
 174  964.4417
 175  881.4724
 176  911.0095
 177  936.9792
 178  922.2119
 179  742.0545
 180  761.0549
 181  897.5935
 182  935.3723
 183  818.2912
 184  819.4627
 185  815.3458
 186  887.4199
 187  894.9227
 188  865.1364
 189  885.8859
 190  861.0458
 191  915.4042
 192  903.725
 193  748.1999
 194  771.7858
 195  790.3458
 196  883.7729
 197  866.6837
 198  822.6456
 199  823.5045
 200  831.9946
 201  911.0713
 202  754.6823
 203  705.0771
 204  763.428
 205  762.2829
 206  811.3221
 207  959.2802
 208  912.5832
 209  788.5367
 210  798.5375
 211  763.6736
 212  758.741
 213  698.7466
 214  780.7879
 215  905.7776
 216  872.2647
 217  874.0089
 218  843.6853
 219  763.8474
 220  711.4574
 221  740.7351
 222  790.379
 223  836.2813
 224  755.6496
 225  752.5788
 226  804.8467
 227  848.4733
 228  929.5774
 229  793.7439
 230  837.0779
 231  680.8808
 232  821.7499
 233  769.248
 234  775.9614
 235  754.5641
 236  933.6537
 237  939.1273
 238  890.5134
 239  807.2947
 240  827.2012
 241  814.4287
 242  741.662
 243  788.2751
 244  954.9549
 245  862.7175
 246  838.3234
 247  772.772
 248  764.8132
 249  848.8585
 250  827.9319
 251  894.8896
 252  863.6451
 253  780.1485
 254  936.9879
 255  866.1531
 256  761.0903
 257  818.8028
 258  1004.529
 259  924.3423
 260  806.3698
 261  818.7326
 262  943.3785
 263  916.9225
 264  852.8638
 265  846.6669
 266  860.1409
 267  969.6184
 268  955.3022
 269  940.9739
 270  900.3958
 271  982.0189
 272  902.512
 273  884.23
 274  901.8729
 275  752.4752
 276  888.4454
 277  915.2798
 278  912.2929
 279  879.2204
 280  695.8334
 281  678.9709
 282  783.7314
 283  856.7402
 284  848.8336
 285  963.2972
 286  957.4703
 287  825.2936
 288  787.4254
 289  830.5696
 290  840.9764
 291  827.693
 292  880.6136
 293  935.1747
 294  844.2439
 295  785.2665
 296  800.9208
 297  790.6025
 298  774.7361
 299  872.0457
 300  976.1775
 301  999.4409
 302  987.0601
 303  862.527
 304  775.2049
 305  909.5569
 306  922.7421
 307  864.1938
 308  785.7048
 309  813.3017
 310  814.2046
 311  744.3503
 312  794.2958
 313  813.0027
 314  742.4688
 315  802.0205
 316  892.6312
 317  877.5913
 318  855.7008
 319  820.0252
 320  771.2529
 321  696.0958
 322  767.1678
 323  724.7521
 324  743.9698
 325  793.9576
 326  785.6625
 327  982.504
 328  938.3269
 329  892.1931
 330  937.2196
 331  815.1619
 332  863.0613
 333  824.3112
 334  900.9789
 335  955.7719
 336  728.9557
 337  748.5509
 338  824.213
 339  848.6649
 340  713.7104
 341  846.1533
 342  951.4698
 343  919.238
 344  836.348
 345  821.5307
 346  805.9583
 347  757.7673
 348  748.3828
 349  703.9112
 350  830.3896
 351  837.489
 352  861.231
 353  884.5507
 354  841.3835
 355  957.8534
 356  870.0513
 357  898.5832
 358  918.9871
 359  867.454
 360  833.5234
 361  828.9365
 362  820.3616
 363  769.4269
 364  757.7024
 365  987.8923
 366  1018.238
 367  935.729
 368  771.8873
 369  696.6428
 370  838.0865
 371  929.7653
 372  897.6537
 373  805.9243
 374  971.7473
 375  935.1627
 376  728.0126
 377  765.7879
 378  784.9296
 379  821.3205
 380  850.9898
 381  830.1695
 382  870.179
 383  872.4163
 384  791.4742
 385  827.8165
 386  760.0571
 387  719.0291
 388  648.3094
 389  699.7956
 390  784.5785
 391  854.4792
 392  991.6804
 393  910.7999
 394  908.6041
 395  868.0042
 396  845.45
 397  749.0346
 398  1004.171
 399  987.9142
 400  844.1387
 401  825.7465
 402  807.4252
 403  710.0396
 404  897.2756
 405  757.8141
 406  769.4675
 407  804.2348
 408  865.8748
 409  850.826
 410  910.4272
 411  875.8268
 412  823.2505
 413  809.2048
 414  848.7644
 415  794.9899
 416  680.8191
 417  836.3972
 418  896.1833
 419  867.9473
 420  831.6707
 421  755.2059
 422  876.5193
 423  840.091
 424  763.2574
 425  863.5061
 426  932.356
 427  829.9524
 428  829.5737
 429  776.145
 430  794.3854
 431  863.3745
 432  819.3845
 433  813.2213
 434  820.9766
 435  835.474
 436  869.1212
 437  829.6163
 438  873.5627
 439  879.4407
 440  763.2094
 441  776.7061
 442  844.1042
 443  817.4069
 444  794.34
 445  738.9235
 446  759.5599
 447  749.6366
 448  757.7906
 449  838.4361
 450  810.4208
 451  714.0472
 452  710.6607
 453  682.6526
 454  795.048
 455  808.9349
 456  786.6987
 457  691.5408
 458  785.5481
 459  761.7863
 460  663.4879
 461  686.47
 462  739.2693
 463  849.7958
 464  909.3584
 465  909.5911
 466  924.1181
 467  924.5873
 468  889.0121
 469  765.1475
 470  784.7775
 471  773.0331
 472  740.1008
 473  856.4824
 474  963.2595
 475  885.4873
 476  881.2468
 477  851.4254
 478  816.1952
 479  808.2573
 480  818.5428
 481  817.584
 482  832.4203
 483  854.7378
 484  916.3278
 485  921.1284
 486  833.7662
 487  833.4568
 488  819.548
 489  935.0708
 490  928.5414
 491  953.4105
 492  837.9941
 493  795.4377
 494  824.858
 495  849.4751
 496  905.1691
 497  901.3491
 498  823.8506
 499  856.511
 500  915.0006
 501  884.9833
 502  809.3037
 503  798.6971
 504  919.0148
 505  816.678
 506  856.5916
 507  913.8791
 508  1025.663
 509  1180.643
 510  1434.513
 511  1450.098
