# Input file       =  1212663248.110032_cleaned.dat
# Candidate        =  PSR_0332+5434
# Telescope        =  AR
# Epoch_topo       =  58279.454480440188
# Epoch_bary       =  N/A
# T_sample         =  0.002
# Data Folded      =  7340032
# Data Avg         =  0.118200584480032
# Data StdDev      =  3.65156426314119 
# Profile Bins     =  512
# Profile Avg      =  1694.39724629107 
# Profile StdDev   =  437.212876750783 
# Reduced chi-sqr  =  1.131
# Prob(Noise)      <  0.021   (~2.0 sigma)
# P_topo (ms)      =  714.508147473951  +/- 0.000382
# P'_topo (s/s)    =  -0                +/- 2.01e-10
# P''_topo (s/s^2) =  0                 +/- 8.89e-14
# P_bary (ms)      =  N/A
# P'_bary (s/s)    =  N/A
# P''_bary (s/s^2) =  N/A
# P_orb (s)        =  N/A
# asin(i)/c (s)    =  N/A
# eccentricity     =  N/A
# w (rad)          =  N/A
# T_peri           =  N/A
######################################################
   0  1889.947
   1  1896.72
   2  1953.383
   3  2012.276
   4  1707.741
   5  1645.191
   6  1448.527
   7  1119.464
   8  1121.375
   9  1704.388
  10  1802.295
  11  1946.724
  12  1351.973
  13  1552.257
  14  1635.583
  15  1248.638
  16  1088.076
  17  1634.815
  18  1562.236
  19  1217.976
  20  1078.279
  21  1461.59
  22  1430.935
  23  1183.165
  24  1635.607
  25  2081.829
  26  1988.497
  27  1588.443
  28  1327.482
  29  1416.709
  30  1607.457
  31  1197.972
  32  1592.245
  33  1277.415
  34  1384.464
  35  1133.93
  36  1394.746
  37  1398.906
  38  1546.708
  39  1694.841
  40  1476.659
  41  1249.045
  42  1923.977
  43  2118.637
  44  1796.435
  45  2017.99
  46  2263.03
  47  2167.592
  48  1806.386
  49  1543.386
  50  1848.703
  51  1749.204
  52  1727.353
  53  1670.44
  54  1709.931
  55  1848.283
  56  1630.782
  57  1488.662
  58  1466.024
  59  1673.102
  60  1902.231
  61  1512.342
  62  1497.793
  63  1759.542
  64  1959.818
  65  2085.943
  66  2065.7
  67  2284.146
  68  1799.25
  69  1551.581
  70  1490.997
  71  1583.412
  72  1906.315
  73  1495.924
  74  1632.019
  75  1614.812
  76  1836.224
  77  1771.13
  78  1811.863
  79  1553.777
  80  1592.556
  81  1766.592
  82  1730.442
  83  2136.157
  84  1927.243
  85  1822.263
  86  1529.104
  87  1453.46
  88  1770.166
  89  1745.216
  90  1404.662
  91  999.5974
  92  1092.414
  93  1361.29
  94  1363.427
  95  1653.678
  96  2047.173
  97  1864.104
  98  1602.58
  99  1627.789
 100  1621.15
 101  1878.68
 102  1644.358
 103  1476.539
 104  1728.568
 105  1629.057
 106  1651.49
 107  1522.475
 108  1537.934
 109  1599.16
 110  1490.157
 111  1231.642
 112  1529.697
 113  1755.335
 114  1554.305
 115  1084.853
 116  1870.093
 117  1661.74
 118  1527.567
 119  1488.307
 120  2119.147
 121  1963.432
 122  1653.237
 123  1706.82
 124  1588.348
 125  1311.746
 126  1131.891
 127  1603.568
 128  1866.855
 129  2005.936
 130  1536.003
 131  1365.564
 132  1755.228
 133  2458.433
 134  2346.419
 135  1329.179
 136  1352.601
 137  1840.107
 138  1640.972
 139  1489.026
 140  1405.037
 141  1841.616
 142  1542.675
 143  1172.134
 144  1358.936
 145  1703.627
 146  1798.565
 147  1282.831
 148  1393.877
 149  1207.607
 150  1482.605
 151  1045.008
 152  1162.403
 153  1731.211
 154  1637.168
 155  1217.707
 156  1347.6
 157  1657.499
 158  1440.967
 159  1821.327
 160  1951.755
 161  2150.895
 162  2048.786
 163  1777.294
 164  1642.161
 165  1609.371
 166  2025.074
 167  2175.12
 168  2418.575
 169  2225.276
 170  1760.457
 171  1584.083
 172  1313.637
 173  1620.701
 174  1267.871
 175  1579.5
 176  1712.234
 177  1140.701
 178  1042.635
 179  1559.687
 180  1718.731
 181  1882.356
 182  2084.649
 183  2233.057
 184  1749.201
 185  2001.16
 186  1607.939
 187  1276.239
 188  1393.939
 189  1594.956
 190  1399.669
 191  1541.574
 192  1606.432
 193  1320.568
 194  1580.231
 195  1227.496
 196  1753.152
 197  1583.137
 198  1349.974
 199  1468.904
 200  1389.946
 201  1240.74
 202  1046.546
 203  1604.899
 204  1866.37
 205  1523.531
 206  1443.301
 207  1845.436
 208  1756.047
 209  1420.735
 210  1648.897
 211  1537.389
 212  1357.239
 213  1652.035
 214  1576.341
 215  1683.286
 216  1914.495
 217  2261.775
 218  1874.756
 219  1714.339
 220  1564.978
 221  1640.721
 222  1855.133
 223  1999.719
 224  1829.861
 225  1263.86
 226  1562.875
 227  1204.515
 228  1382.322
 229  1271.463
 230  1625.354
 231  1858.506
 232  1829.118
 233  1698.858
 234  1686.287
 235  1563.383
 236  1155.771
 237  1293.156
 238  1284.318
 239  1389.313
 240  1525.272
 241  1253.782
 242  1264.772
 243  1140.894
 244  1216.462
 245  1030.63
 246  1024.311
 247  1315.78
 248  1634.565
 249  1570.913
 250  1460.766
 251  1310.709
 252  1334.721
 253  1526.255
 254  1450.285
 255  1515.54
 256  1596.228
 257  1821.861
 258  1700.818
 259  1468.289
 260  1504.871
 261  1967.738
 262  1305.008
 263  1173.787
 264  1070.186
 265  1384.745
 266  2108.513
 267  1557.84
 268  1858.234
 269  1541.762
 270  1403.344
 271  1623.156
 272  1618.063
 273  1572.261
 274  1595.089
 275  1948.115
 276  1850.773
 277  1779.914
 278  1951.341
 279  2072.469
 280  1936.524
 281  1962.013
 282  1936.254
 283  2064.962
 284  1706.552
 285  1697.502
 286  1978.738
 287  1984.74
 288  2073.221
 289  1976.269
 290  2076.813
 291  2005.84
 292  1732.172
 293  1993.276
 294  2285.963
 295  3047.672
 296  2783.669
 297  3007.284
 298  3197.424
 299  3286.539
 300  3230.575
 301  2656.818
 302  2377.778
 303  1857.917
 304  1997.539
 305  1975.03
 306  2277.969
 307  2052.857
 308  1963.504
 309  2041.455
 310  2030.474
 311  2017.93
 312  1814.808
 313  2137.907
 314  1873.632
 315  1611.587
 316  1574.346
 317  1480.402
 318  1456.908
 319  1853.27
 320  2030.099
 321  1693.19
 322  2112.459
 323  1618.635
 324  1755.66
 325  1615.916
 326  1703.501
 327  1733.206
 328  1529.514
 329  1392.764
 330  1479.078
 331  1972.943
 332  1913.052
 333  1853.158
 334  1656.607
 335  1488.562
 336  1555.892
 337  1824.392
 338  2082.705
 339  1617.378
 340  1281.548
 341  1092.425
 342  1346.438
 343  1482.025
 344  1564.3
 345  1819.89
 346  1767.096
 347  1832.231
 348  1951.79
 349  1566.946
 350  1616.396
 351  1976.812
 352  1910.122
 353  1583.981
 354  1934.486
 355  2063.386
 356  1683.838
 357  1695.748
 358  1557.437
 359  1684.941
 360  1619.272
 361  1506.862
 362  1745.529
 363  1427.349
 364  1789.553
 365  1863.961
 366  1668.252
 367  1718.33
 368  1777.833
 369  2237.505
 370  2078.393
 371  1785.65
 372  2022.895
 373  1710.036
 374  1666.653
 375  1206.79
 376  1313.074
 377  1356.017
 378  1978.594
 379  2016.903
 380  2099.782
 381  1358.051
 382  885.7667
 383  1292.546
 384  1789.528
 385  1588.611
 386  1427.225
 387  1575.936
 388  1682.624
 389  1873.487
 390  1724.609
 391  1913.319
 392  1943.679
 393  1466.656
 394  1484.983
 395  1809.697
 396  1577.741
 397  1352.566
 398  1503.864
 399  1579.04
 400  1265.216
 401  1372.498
 402  1202.797
 403  1483.465
 404  1442.57
 405  1699.779
 406  1674.06
 407  1821.528
 408  1912.885
 409  1655.45
 410  1522.371
 411  1479.613
 412  1383.36
 413  1725.156
 414  1767.273
 415  1688.623
 416  1575.867
 417  1693.621
 418  1652.394
 419  1447.621
 420  1113.956
 421  1644.04
 422  1778.82
 423  1635.456
 424  1522.001
 425  1574.762
 426  1949.459
 427  1990.357
 428  1522.506
 429  1123.219
 430  1129.575
 431  1490.63
 432  1580.909
 433  1698.362
 434  1976.673
 435  1686.144
 436  1726.25
 437  1924.914
 438  2293.802
 439  2401.414
 440  2324.744
 441  1942.417
 442  1586.25
 443  1590.536
 444  1872.506
 445  1996.667
 446  2009.064
 447  1604.609
 448  1409.394
 449  2073.512
 450  2154.461
 451  2036.55
 452  2194.435
 453  2235.598
 454  2488.854
 455  2426.718
 456  2319.993
 457  2300.583
 458  2194.885
 459  2122.969
 460  1927.396
 461  2234.91
 462  2019.69
 463  1781.242
 464  1308.642
 465  1662.992
 466  1887.37
 467  1796.398
 468  1596.351
 469  2129.102
 470  2647.188
 471  2190.172
 472  1682.602
 473  1394.185
 474  1505.641
 475  1407.274
 476  1415.497
 477  1745.805
 478  1709.041
 479  1814.415
 480  1502.623
 481  1544.143
 482  1874.023
 483  1751.67
 484  1654.256
 485  1661.158
 486  2067.047
 487  1960.148
 488  1442.867
 489  1507.916
 490  1564.298
 491  1429.102
 492  2000.534
 493  2360.601
 494  2313.798
 495  1592.134
 496  1757.918
 497  1595.744
 498  1394.157
 499  1296.639
 500  1491.569
 501  1758.298
 502  2042.174
 503  1938.854
 504  1741.411
 505  1919.412
 506  1858.642
 507  2043.578
 508  1478.345
 509  1772.913
 510  2007.804
 511  1875.681
