# Input file       =  1212375269.110713_cleaned.dat
# Candidate        =  PSR_0332+5434
# Telescope        =  AR
# Epoch_topo       =  58276.121390170287
# Epoch_bary       =  N/A
# T_sample         =  0.002
# Data Folded      =  7143424
# Data Avg         =  0.0560754278818227
# Data StdDev      =  1.00003985890191 
# Profile Bins     =  512
# Profile Avg      =  782.329335712031 
# Profile StdDev   =  118.12329255894  
# Reduced chi-sqr  =  1.678
# Prob(Noise)      <  5.95e-20   (~9.1 sigma)
# P_topo (ms)      =  714.510999602018  +/- 0.000213
# P'_topo (s/s)    =  -0                +/- 1.16e-10
# P''_topo (s/s^2) =  0                 +/- 5.24e-14
# P_bary (ms)      =  N/A
# P'_bary (s/s)    =  N/A
# P''_bary (s/s^2) =  N/A
# P_orb (s)        =  N/A
# asin(i)/c (s)    =  N/A
# eccentricity     =  N/A
# w (rad)          =  N/A
# T_peri           =  N/A
######################################################
   0  699.7579
   1  687.2003
   2  706.6098
   3  805.2031
   4  692.7518
   5  562.8649
   6  543.0366
   7  652.775
   8  635.1625
   9  718.2015
  10  702.2632
  11  614.049
  12  579.0714
  13  621.216
  14  764.3421
  15  847.4643
  16  717.2559
  17  692.4621
  18  674.7853
  19  731.2202
  20  659.6573
  21  691.4463
  22  722.9541
  23  788.2462
  24  644.5792
  25  595.8309
  26  524.858
  27  596.2585
  28  747.9949
  29  792.0416
  30  781.0691
  31  760.9213
  32  684.2178
  33  722.0615
  34  723.6694
  35  700.6954
  36  869.9261
  37  911.068
  38  835.5041
  39  791.6862
  40  785.4212
  41  725.077
  42  724.3361
  43  707.019
  44  707.9203
  45  846.0959
  46  824.8791
  47  740.1141
  48  826.0953
  49  715.9503
  50  735.3854
  51  785.6575
  52  792.8021
  53  829.8371
  54  892.326
  55  958.7927
  56  868.2577
  57  807.3969
  58  847.8
  59  801.2906
  60  825.2346
  61  849.2877
  62  845.2707
  63  688.8776
  64  712.2136
  65  750.096
  66  787.4419
  67  859.4551
  68  761.1637
  69  761.7896
  70  818.2823
  71  866.4159
  72  922.6576
  73  846.9035
  74  826.5699
  75  822.8342
  76  760.1717
  77  708.9042
  78  711.2898
  79  808.8827
  80  893.6916
  81  810.6891
  82  983.1302
  83  980.8307
  84  889.272
  85  811.67
  86  709.6663
  87  826.4
  88  754.119
  89  575.3522
  90  720.3856
  91  746.3654
  92  804.6971
  93  798.7333
  94  797.1057
  95  814.0684
  96  822.8828
  97  835.5565
  98  769.607
  99  771.274
 100  791.9777
 101  841.4666
 102  928.6102
 103  931.7089
 104  949.0587
 105  869.9628
 106  900.2671
 107  825.455
 108  848.8503
 109  887.5536
 110  905.579
 111  832.8447
 112  927.8833
 113  854.8329
 114  795.7502
 115  710.9646
 116  792.8235
 117  787.7483
 118  854.0536
 119  782.9115
 120  819.6469
 121  709.1511
 122  651.201
 123  628.3159
 124  747.8085
 125  859.6487
 126  764.0365
 127  769.0481
 128  861.9506
 129  800.5991
 130  680.2955
 131  753.1389
 132  715.8441
 133  818.4725
 134  896.4312
 135  762.8517
 136  781.1947
 137  821.5396
 138  825.366
 139  786.901
 140  787.8311
 141  783.6532
 142  846.7495
 143  860.3761
 144  791.8965
 145  807.0825
 146  897.4758
 147  854.3872
 148  754.4457
 149  703.4553
 150  830.2853
 151  860.4531
 152  734.9404
 153  808.2687
 154  982.036
 155  960.8702
 156  843.0544
 157  651.6288
 158  684.4515
 159  732.9028
 160  818.1681
 161  889.2117
 162  811.5258
 163  876.821
 164  852.3383
 165  755.377
 166  770.9049
 167  728.8916
 168  697.2661
 169  817.923
 170  892.0068
 171  725.9589
 172  744.4471
 173  864.0166
 174  856.7632
 175  856.0244
 176  822.4506
 177  865.1061
 178  789.0848
 179  798.0031
 180  812.4455
 181  654.1679
 182  756.3654
 183  782.1925
 184  721.8439
 185  804.6273
 186  824.7115
 187  897.4664
 188  863.2033
 189  710.7723
 190  778.2809
 191  779.9279
 192  823.799
 193  776.644
 194  749.5997
 195  741.9153
 196  857.4098
 197  678.759
 198  759.4364
 199  788.546
 200  749.9608
 201  723.2706
 202  809.231
 203  799.8378
 204  675.6687
 205  758.5573
 206  805.9645
 207  779.7105
 208  784.2885
 209  783.5154
 210  806.2753
 211  867.8446
 212  764.9653
 213  770.361
 214  733.2843
 215  735.3213
 216  793.3285
 217  884.9109
 218  762.4689
 219  728.875
 220  725.2457
 221  864.2983
 222  832.7178
 223  699.9256
 224  763.3893
 225  800.0458
 226  709.3306
 227  807.9153
 228  925.8049
 229  808.4907
 230  639.2394
 231  711.2941
 232  670.2341
 233  706.8173
 234  810.6332
 235  872.9229
 236  845.6273
 237  788.6943
 238  766.0345
 239  676.4093
 240  663.1505
 241  814.006
 242  855.969
 243  941.1907
 244  906.5054
 245  736.6906
 246  669.4615
 247  781.477
 248  765.8879
 249  898.1752
 250  716.342
 251  747.0632
 252  765.9523
 253  717.1868
 254  793.335
 255  823.0606
 256  777.9683
 257  839.1022
 258  819.3102
 259  748.5032
 260  834.038
 261  798.1205
 262  801.8327
 263  807.9552
 264  805.7555
 265  791.1606
 266  770.3019
 267  702.7778
 268  755.8945
 269  875.4206
 270  722.3986
 271  685.9
 272  756.6702
 273  761.4026
 274  879.0179
 275  959.5059
 276  917.5554
 277  910.0441
 278  889.3677
 279  819.3536
 280  771.2488
 281  769.8544
 282  835.8559
 283  810.6055
 284  808.9553
 285  901.5514
 286  965.6347
 287  858.4409
 288  971.345
 289  963.3006
 290  867.0677
 291  819.4055
 292  686.6364
 293  826.1731
 294  831.7012
 295  872.483
 296  798.2936
 297  847.5691
 298  866.9554
 299  791.1093
 300  877.9171
 301  882.8111
 302  855.9279
 303  910.673
 304  803.1323
 305  834.5491
 306  787.9805
 307  839.4417
 308  772.307
 309  787.4622
 310  886.0259
 311  927.0449
 312  757.4664
 313  875.7095
 314  950.4294
 315  869.0616
 316  819.7648
 317  794.6636
 318  785.0522
 319  909.9442
 320  895.3485
 321  935.4488
 322  1029.469
 323  898.9717
 324  945.0694
 325  912.7308
 326  922.2507
 327  871.2828
 328  749.0121
 329  799.4944
 330  655.0278
 331  739.2892
 332  732.7798
 333  711.3412
 334  852.4317
 335  764.8649
 336  681.7936
 337  800.0778
 338  768.5583
 339  805.3347
 340  674.4163
 341  751.1371
 342  889.1109
 343  759.5838
 344  716.2177
 345  682.5707
 346  647.1846
 347  797.6107
 348  820.0042
 349  736.0275
 350  844.0238
 351  781.8978
 352  730.1851
 353  734.5477
 354  701.4341
 355  738.4087
 356  764.4554
 357  758.3486
 358  821.2758
 359  915.6819
 360  777.4962
 361  771.6422
 362  782.0901
 363  825.4276
 364  714.5383
 365  771.304
 366  898.7444
 367  899.0755
 368  852.8374
 369  847.738
 370  889.7664
 371  1015.003
 372  993.3466
 373  1113.014
 374  1289.333
 375  1417.766
 376  1518.895
 377  1534.147
 378  1374.646
 379  1086.75
 380  782.2915
 381  694.7233
 382  794.3719
 383  854.0103
 384  802.7744
 385  906.0546
 386  770.3527
 387  795.4081
 388  877.3344
 389  882.7883
 390  937.0262
 391  900.1382
 392  832.7098
 393  778.8568
 394  723.9894
 395  800.1987
 396  851.8666
 397  780.947
 398  781.8145
 399  882.5438
 400  793.0042
 401  834.1738
 402  848.4319
 403  781.7119
 404  740.7139
 405  775.6003
 406  813.2072
 407  646.502
 408  866.6111
 409  804.6642
 410  784.5157
 411  870.0538
 412  834.9229
 413  744.1051
 414  700.0458
 415  712.7252
 416  704.619
 417  815.5691
 418  772.6512
 419  735.1646
 420  617.1149
 421  635.3242
 422  700.3368
 423  691.646
 424  736.2454
 425  776.0903
 426  678.6311
 427  811.3645
 428  701.3918
 429  586.3747
 430  761.7987
 431  748.5557
 432  762.4846
 433  762.6323
 434  718.9886
 435  732.0707
 436  737.6067
 437  664.2222
 438  621.3187
 439  727.4634
 440  867.2328
 441  787.7714
 442  655.408
 443  610.4034
 444  594.1594
 445  560.5338
 446  704.4853
 447  709.0026
 448  635.8289
 449  571.8386
 450  629.0756
 451  618.3648
 452  746.1078
 453  728.2453
 454  599.0957
 455  630.3804
 456  639.3804
 457  637.5248
 458  650.8206
 459  653.3198
 460  715.1938
 461  612.8448
 462  702.0581
 463  692.8405
 464  649.6609
 465  617.8092
 466  637.9966
 467  656.7946
 468  643.6307
 469  625.9422
 470  711.215
 471  678.9269
 472  671.3724
 473  662.8751
 474  647.6096
 475  741.0732
 476  751.17
 477  668.5593
 478  619.4116
 479  601.8569
 480  622.0296
 481  739.587
 482  660.9911
 483  571.273
 484  667.4866
 485  708.3615
 486  588.1422
 487  618.8783
 488  649.1627
 489  670.5325
 490  652.9442
 491  712.265
 492  758.2228
 493  771.7243
 494  767.8655
 495  745.1391
 496  685.8312
 497  680.1673
 498  676.8905
 499  610.6708
 500  732.4969
 501  820.1931
 502  758.3257
 503  770.315
 504  711.8449
 505  665.8392
 506  710.6876
 507  780.6763
 508  681.7183
 509  704.161
 510  740.3707
 511  723.353
