# Input file       =  1212389877.101829_cleaned.dat
# Candidate        =  PSR_0332+5434
# Telescope        =  AR
# Epoch_topo       =  58276.290464141537
# Epoch_bary       =  N/A
# T_sample         =  0.002
# Data Folded      =  7340032
# Data Avg         =  0.101581960580786
# Data StdDev      =  2.89249089578768 
# Profile Bins     =  512
# Profile Avg      =  1456.2176205916  
# Profile StdDev   =  346.326717644811 
# Reduced chi-sqr  =  1.376
# Prob(Noise)      <  3.15e-08   (~5.4 sigma)
# P_topo (ms)      =  714.510847977675  +/- 0.000455
# P'_topo (s/s)    =  -0                +/- 2.4e-10
# P''_topo (s/s^2) =  0                 +/- 1.06e-13
# P_bary (ms)      =  N/A
# P'_bary (s/s)    =  N/A
# P''_bary (s/s^2) =  N/A
# P_orb (s)        =  N/A
# asin(i)/c (s)    =  N/A
# eccentricity     =  N/A
# w (rad)          =  N/A
# T_peri           =  N/A
######################################################
   0  954.5115
   1  897.9453
   2  826.3041
   3  1026.209
   4  1073.203
   5  1018.899
   6  1214.551
   7  974.1149
   8  1116.579
   9  1354.578
  10  1287.611
  11  1176.713
  12  1281.207
  13  1085.969
  14  1433.85
  15  1309.144
  16  1205.671
  17  1176.47
  18  1524.677
  19  1617.222
  20  1500.789
  21  1208.742
  22  883.7104
  23  1120.936
  24  1385.453
  25  1205.281
  26  1274.795
  27  1428.652
  28  1455.942
  29  1072.21
  30  1227.579
  31  1527.748
  32  1302.351
  33  1219.982
  34  1421.589
  35  1236.242
  36  1276.114
  37  1058.181
  38  1194.56
  39  1321.821
  40  1269.308
  41  1541.514
  42  1577.548
  43  1414.759
  44  1268.289
  45  1346.91
  46  1561.467
  47  1602.521
  48  1321.303
  49  1497.101
  50  1710.747
  51  1850.759
  52  1760.639
  53  1836.392
  54  1436.342
  55  1269.991
  56  1352.497
  57  1306.31
  58  1229.441
  59  1480.829
  60  1172.318
  61  1124.297
  62  1387.356
  63  1311.437
  64  1356.362
  65  1477.582
  66  1340.543
  67  1224.254
  68  1214.664
  69  1303.367
  70  1147.577
  71  1482.437
  72  1500.469
  73  1032.616
  74  1492.628
  75  1635.602
  76  1574.978
  77  1322.967
  78  1307.564
  79  1388.782
  80  1365.042
  81  1427.74
  82  1388.869
  83  1370.057
  84  1720.625
  85  1623.13
  86  1644.388
  87  1758.356
  88  1608.499
  89  1741.81
  90  1648.194
  91  1250.419
  92  1395.737
  93  1630.287
  94  1668.608
  95  1498.918
  96  1448.992
  97  1549.964
  98  1712.578
  99  1458.386
 100  1322.187
 101  1403.221
 102  1320.037
 103  1439.161
 104  1193.743
 105  1122.506
 106  1375.677
 107  1243.295
 108  1310.185
 109  1227.305
 110  1147.654
 111  1450.65
 112  1488.95
 113  1774.395
 114  1695.936
 115  1438.07
 116  1434.2
 117  1716.659
 118  1699.294
 119  1361.389
 120  1294.974
 121  1496.273
 122  1352.416
 123  1396.359
 124  1440.792
 125  1333.416
 126  1330.678
 127  1618.392
 128  1530.922
 129  1313.824
 130  1464.796
 131  1732.094
 132  1804.527
 133  1468.576
 134  1362.485
 135  1265.002
 136  1082.1
 137  1184.904
 138  1574.097
 139  2027.221
 140  1762.691
 141  1345.185
 142  1392.996
 143  1321.136
 144  1484.69
 145  1541.7
 146  1777.648
 147  1443.059
 148  1236.608
 149  1449.853
 150  1297.605
 151  1157.666
 152  1278.745
 153  1302.682
 154  1425.018
 155  1198.182
 156  1241.227
 157  1218.107
 158  1437.271
 159  1737.856
 160  1875.952
 161  1818.752
 162  1775.399
 163  1644.366
 164  1490.117
 165  1459.31
 166  1552.857
 167  1797.903
 168  1760.46
 169  1477.818
 170  1650.888
 171  1478.93
 172  1676.705
 173  1840.172
 174  1808.012
 175  1549.575
 176  1586.144
 177  1406.258
 178  1487.522
 179  1694.462
 180  1527.924
 181  1299.801
 182  1321.557
 183  1422.446
 184  1489.021
 185  1191.317
 186  1189.446
 187  1556.744
 188  1884.057
 189  1447.552
 190  1049.957
 191  1496.23
 192  1436.323
 193  1362.327
 194  1494.691
 195  1724.095
 196  1612.174
 197  1402.947
 198  1264.031
 199  1385.07
 200  1472.937
 201  1451.015
 202  1399.808
 203  1501.399
 204  1160.831
 205  993.918
 206  1050.923
 207  1066.64
 208  1350.132
 209  1107.609
 210  1199.013
 211  1260.089
 212  1318.273
 213  1227.854
 214  1206.742
 215  1018.885
 216  1165.587
 217  1234.875
 218  1487.889
 219  1233.97
 220  1379.494
 221  1262.301
 222  1106.766
 223  1051.724
 224  1218.57
 225  1289.921
 226  1527.256
 227  1122.213
 228  1001.278
 229  1124.008
 230  770.2836
 231  941.7845
 232  1323.189
 233  1476.704
 234  1055.284
 235  1093.076
 236  1152.427
 237  1099.937
 238  1017.173
 239  1119.444
 240  1376.09
 241  1116.166
 242  962.2236
 243  1138.526
 244  1357.139
 245  1497.615
 246  1073.736
 247  1281.155
 248  1344.312
 249  1332.568
 250  1353.923
 251  1484.122
 252  1280.132
 253  1423.131
 254  1394.464
 255  1213.906
 256  1147.861
 257  1382.885
 258  1265.07
 259  1010.478
 260  1067.075
 261  1387.122
 262  1792.12
 263  1256.053
 264  1014.402
 265  1450.922
 266  1383.647
 267  1433.005
 268  1119.628
 269  1235.903
 270  1356.655
 271  1327.519
 272  1296.312
 273  1433.171
 274  1491.649
 275  1518.253
 276  1288.886
 277  1304.667
 278  1328.225
 279  1377.377
 280  1357.483
 281  909.3004
 282  1253.38
 283  1664.443
 284  1063.274
 285  858.085
 286  1129.814
 287  1289.567
 288  1340.869
 289  1540.818
 290  1442.37
 291  1562.117
 292  1776.223
 293  1648.401
 294  1625.641
 295  1849.095
 296  2448.127
 297  3027.238
 298  3550.716
 299  3438.685
 300  3015.286
 301  2552.275
 302  2129.075
 303  1500.122
 304  1565.227
 305  1663.998
 306  1633.677
 307  1496.515
 308  1648.961
 309  1492.776
 310  1600.706
 311  1776.68
 312  1509.5
 313  1643.961
 314  1667.972
 315  1591.355
 316  1518.324
 317  1506.77
 318  1432.364
 319  1267.37
 320  1328.956
 321  1656.71
 322  1494.628
 323  1478.433
 324  1517.982
 325  1391.924
 326  1290.737
 327  931.2336
 328  959.0361
 329  1119.799
 330  1408.627
 331  1351.426
 332  1404.77
 333  1549.718
 334  1361.683
 335  1382.812
 336  1160.605
 337  1271.492
 338  1530.911
 339  1443.473
 340  1802.581
 341  1565
 342  1537.86
 343  1533.015
 344  1809.994
 345  1867.315
 346  1551.778
 347  1219.993
 348  1337.572
 349  1344.372
 350  1376.909
 351  1370.92
 352  1395.276
 353  1508.331
 354  1338.935
 355  1104.816
 356  1481.043
 357  1822.017
 358  1777.122
 359  1461.414
 360  1467.441
 361  1465.314
 362  1400.756
 363  1860.302
 364  1583.13
 365  1437.747
 366  1584.09
 367  1555.641
 368  1369.749
 369  1485.227
 370  1481.82
 371  1273.388
 372  1536.54
 373  1731.76
 374  1573.23
 375  1212.965
 376  1317.526
 377  1454.108
 378  1368.866
 379  1585.052
 380  1660.875
 381  1647.774
 382  1594.266
 383  1651.497
 384  1338.838
 385  1480.475
 386  1135.442
 387  1357.714
 388  1504.968
 389  1611.897
 390  1545.297
 391  1398.487
 392  1573.517
 393  1422.174
 394  1605.883
 395  1807.696
 396  1793.376
 397  1961.968
 398  1661.918
 399  1686.844
 400  1696.492
 401  1822.211
 402  1454.987
 403  1363.559
 404  1455.918
 405  1316.898
 406  1296.375
 407  1083.217
 408  1498.401
 409  1499.172
 410  1768.492
 411  1750.859
 412  1767.059
 413  1756.746
 414  1922.578
 415  1686.379
 416  1555.218
 417  1590.616
 418  1729.96
 419  2061.264
 420  1872.428
 421  1582.324
 422  1565.101
 423  1830.477
 424  1742.921
 425  1700.969
 426  1789.094
 427  1548.72
 428  1322.365
 429  1791.061
 430  2124.67
 431  1884.399
 432  1705.885
 433  1551.516
 434  1541.883
 435  1695.317
 436  1611.602
 437  1751.643
 438  1716.168
 439  1691.699
 440  1740.937
 441  1744.938
 442  1797.413
 443  1462.037
 444  1519.708
 445  1462.584
 446  1618.646
 447  1676.485
 448  1758.761
 449  1887.427
 450  1652.068
 451  1437.67
 452  1718.388
 453  1815.566
 454  1670.895
 455  1682.339
 456  1748.191
 457  1676.499
 458  1736.052
 459  1788.006
 460  1466.484
 461  1277.599
 462  1707.052
 463  2008.438
 464  1803.444
 465  1861.09
 466  1611.829
 467  1652.461
 468  1725.387
 469  1545.842
 470  1526.79
 471  1715.655
 472  1949.541
 473  1433.792
 474  1337.044
 475  1456.059
 476  1492.582
 477  1493.608
 478  1412.928
 479  1538.142
 480  1811.874
 481  1918.482
 482  1679.943
 483  1558.895
 484  1378.248
 485  1540.563
 486  1562.886
 487  1864.932
 488  1632.548
 489  1126.43
 490  1719.541
 491  1524.201
 492  1200.186
 493  1146.881
 494  1248.906
 495  1273.392
 496  1019.933
 497  715.3616
 498  1138.991
 499  1408.751
 500  1412.858
 501  1366.771
 502  1270.111
 503  1337.613
 504  1119.443
 505  1153.205
 506  1290.732
 507  1186.062
 508  1351.492
 509  1106.903
 510  969.5717
 511  1187.264
