# Input file       =  1212030580.120176_cleaned.dat
# Candidate        =  PSR_0332+5434
# Telescope        =  AR
# Epoch_topo       =  58272.131934261299
# Epoch_bary       =  N/A
# T_sample         =  0.002
# Data Folded      =  7208960
# Data Avg         =  0.0634458750215794
# Data StdDev      =  1.00007500701217 
# Profile Bins     =  512
# Profile Avg      =  893.37532326856  
# Profile StdDev   =  118.668076063773 
# Reduced chi-sqr  =  1.440
# Prob(Noise)      <  2.46e-10   (~6.2 sigma)
# P_topo (ms)      =  714.514857688037  +/- 0.000119
# P'_topo (s/s)    =  -0                +/- 6.41e-11
# P''_topo (s/s^2) =  0                 +/- 2.88e-14
# P_bary (ms)      =  N/A
# P'_bary (s/s)    =  N/A
# P''_bary (s/s^2) =  N/A
# P_orb (s)        =  N/A
# asin(i)/c (s)    =  N/A
# eccentricity     =  N/A
# w (rad)          =  N/A
# T_peri           =  N/A
######################################################
   0  1478.294
   1  1528.437
   2  1271.468
   3  1027.425
   4  929.1845
   5  1011.762
   6  963.217
   7  789.6865
   8  808.6749
   9  826.92
  10  864.6827
  11  956.3246
  12  980.1204
  13  962.9951
  14  930.6779
  15  912.4283
  16  844.2802
  17  868.5375
  18  932.9048
  19  965.3218
  20  885.3477
  21  875.0109
  22  841.1649
  23  741.8698
  24  815.5283
  25  871.4245
  26  880.2708
  27  895.6619
  28  870.8753
  29  881.8718
  30  760.7455
  31  861.275
  32  753.5715
  33  778.6254
  34  840.4741
  35  836.8945
  36  950.2197
  37  897.4532
  38  948.4409
  39  894.1442
  40  913.0115
  41  935.1045
  42  997.6552
  43  1005.904
  44  968.4805
  45  880.5181
  46  890.0956
  47  980.2355
  48  939.7374
  49  881.6846
  50  807.9039
  51  785.0211
  52  838.304
  53  981.5836
  54  1045.501
  55  931.0972
  56  991.0275
  57  927.084
  58  877.1158
  59  855.0059
  60  952.7398
  61  936.504
  62  1008.716
  63  1001.347
  64  894.0969
  65  893.8051
  66  855.6512
  67  967.3388
  68  1093.915
  69  974.3488
  70  903.4031
  71  897.5409
  72  803.5692
  73  713.8942
  74  820.1115
  75  927.0693
  76  980.9579
  77  903.3484
  78  786.5795
  79  803.3931
  80  847.5332
  81  914.4852
  82  824.4223
  83  816.9059
  84  866.0164
  85  888.9008
  86  951.481
  87  969.9839
  88  894.4135
  89  917.2654
  90  901.2615
  91  911.0042
  92  858.6521
  93  965.4552
  94  1033.615
  95  966.5602
  96  928.7023
  97  948.1851
  98  836.3408
  99  940.0274
 100  966.1465
 101  952.8448
 102  999.143
 103  901.647
 104  866.4926
 105  1030.499
 106  970.3839
 107  1050.619
 108  1059.304
 109  997.8854
 110  1031.467
 111  1000.036
 112  894.555
 113  942.3273
 114  856.1468
 115  805.889
 116  817.5066
 117  941.5181
 118  743.3274
 119  670.1212
 120  824.687
 121  864.6954
 122  751.6323
 123  865.3841
 124  946.4626
 125  868.1601
 126  740.2556
 127  827.2874
 128  905.2027
 129  851.8866
 130  861.5724
 131  944.7001
 132  904.6446
 133  907.6857
 134  886.1808
 135  903.0767
 136  903.1071
 137  857.4403
 138  863.1576
 139  896.3033
 140  834.9648
 141  881.5953
 142  866.6427
 143  834.9476
 144  814.29
 145  780.7145
 146  733.7448
 147  716.5257
 148  822.279
 149  998.0676
 150  946.8829
 151  912.4422
 152  850.6489
 153  867.8733
 154  823.7535
 155  862.4551
 156  903.9481
 157  943.9733
 158  960.1208
 159  987.1724
 160  946.7891
 161  822.293
 162  924.9615
 163  866.4613
 164  831.2297
 165  978.4186
 166  870.0233
 167  876.5193
 168  981.8704
 169  945.6819
 170  809.3669
 171  875.1866
 172  912.2692
 173  763.4099
 174  796.1401
 175  789.2776
 176  829.6024
 177  847.3792
 178  956.9675
 179  968.1677
 180  930.6479
 181  973.814
 182  968.2206
 183  931.1309
 184  911.6945
 185  922.0753
 186  889.8378
 187  707.2953
 188  823.5966
 189  941.6945
 190  877.1597
 191  837.1855
 192  870.2825
 193  963.6991
 194  931.1254
 195  991.2714
 196  1023.15
 197  916.7056
 198  896.8049
 199  976.7742
 200  970.7624
 201  802.022
 202  817.0417
 203  917.6631
 204  880.6931
 205  846.5201
 206  734.643
 207  707.3973
 208  833.2164
 209  846.5873
 210  859.2678
 211  907.7852
 212  704.1083
 213  691.3365
 214  756.2184
 215  738.3367
 216  800.6102
 217  878.4272
 218  928.7855
 219  823.5156
 220  773.9875
 221  854.3228
 222  896.8467
 223  797.2102
 224  725.926
 225  748.3268
 226  794.4921
 227  884.2448
 228  869.728
 229  820.4067
 230  899.5342
 231  817.4407
 232  877.8955
 233  927.7609
 234  808.7814
 235  671.8357
 236  705.9185
 237  871.6902
 238  1001.999
 239  964.0458
 240  910.407
 241  872.9497
 242  826.2744
 243  764.6078
 244  713.1429
 245  776.1323
 246  964.8003
 247  936.475
 248  820.3627
 249  774.8044
 250  809.2407
 251  896.5796
 252  937.0314
 253  890.0631
 254  791.5504
 255  756.8794
 256  796.5764
 257  930.39
 258  1060.085
 259  1104.575
 260  1069.267
 261  992.2971
 262  849.1863
 263  810.8936
 264  880.0002
 265  892.849
 266  892.346
 267  869.4451
 268  717.4072
 269  665.8083
 270  910.9556
 271  886.5143
 272  791.4598
 273  810.008
 274  952.7712
 275  956.2126
 276  861.7836
 277  794.5619
 278  767.6093
 279  858.0029
 280  804.7803
 281  815.5495
 282  823.275
 283  840.3712
 284  783.4405
 285  779.3604
 286  877.8983
 287  893.4517
 288  918.5754
 289  708.7043
 290  667.8223
 291  760.6331
 292  701.8817
 293  714.3149
 294  733.2244
 295  741.7668
 296  766.4165
 297  694.1689
 298  878.7209
 299  838.3984
 300  722.9498
 301  732.2172
 302  734.2004
 303  793.4893
 304  870.2144
 305  849.8253
 306  920.1337
 307  928.6443
 308  888.4827
 309  788.9869
 310  812.8369
 311  841.1491
 312  769.2711
 313  834.8401
 314  790.661
 315  795.0474
 316  851.3718
 317  836.6985
 318  788.2562
 319  866.054
 320  957.1228
 321  924.361
 322  852.6118
 323  864.534
 324  974.777
 325  908.8566
 326  839.0694
 327  850.4827
 328  802.9227
 329  861.1143
 330  961.0735
 331  956.9401
 332  899.1667
 333  872.9304
 334  891.8947
 335  893.0339
 336  911.7184
 337  1010.246
 338  902.3627
 339  776.3597
 340  839.6069
 341  779.7146
 342  789.973
 343  815.524
 344  765.886
 345  753.5135
 346  788.8438
 347  912.363
 348  973.387
 349  892.4384
 350  860.0902
 351  768.7649
 352  920.7518
 353  976.319
 354  917.8867
 355  914.8439
 356  818.2036
 357  877.7793
 358  951.57
 359  891.7803
 360  759.5601
 361  784.0453
 362  871.4234
 363  825.4121
 364  822.3214
 365  927.258
 366  946.4515
 367  801.1197
 368  819.3566
 369  842.3592
 370  891.6636
 371  859.0564
 372  838.3356
 373  879.7381
 374  969.7885
 375  976.0247
 376  982.0406
 377  957.3276
 378  812.2902
 379  798.625
 380  915.2276
 381  1025.084
 382  1083.054
 383  988.8883
 384  922.5024
 385  924.1757
 386  937.6209
 387  935.3315
 388  927.7072
 389  884.0707
 390  1002.231
 391  1035.763
 392  985.4803
 393  875.1894
 394  848.2214
 395  931.7056
 396  1039.296
 397  990.7595
 398  995.3204
 399  977.8354
 400  921.1889
 401  869.8799
 402  982.4831
 403  1023.095
 404  946.5936
 405  963.238
 406  958.7787
 407  1059.498
 408  976.3167
 409  1071.847
 410  963.4816
 411  891.4676
 412  850.4332
 413  782.7093
 414  914.9257
 415  891.9447
 416  921.3414
 417  874.5103
 418  857.5087
 419  836.2049
 420  764.4039
 421  818.9255
 422  825.6025
 423  801.7875
 424  890.7578
 425  889.3887
 426  810.39
 427  939.1333
 428  956.6066
 429  873.217
 430  895.1401
 431  995.2
 432  957.0928
 433  910.0773
 434  727.9551
 435  811.5892
 436  949.1548
 437  974.3495
 438  994.7338
 439  991.7623
 440  998.8455
 441  1009.706
 442  933.9829
 443  917.5267
 444  869.4035
 445  808.0807
 446  858.3931
 447  822.9527
 448  921.689
 449  966.6447
 450  964.4862
 451  1072.511
 452  823.9526
 453  867.1127
 454  897.8414
 455  934.0992
 456  942.5819
 457  926.314
 458  1046.87
 459  1017.327
 460  896.6546
 461  830.0707
 462  906.3982
 463  1083.875
 464  972.4722
 465  980.9039
 466  1058.014
 467  977.2234
 468  966.4007
 469  1006.612
 470  1006.058
 471  937.2599
 472  929.1088
 473  972.6924
 474  915.2793
 475  776.0686
 476  922.9957
 477  953.4821
 478  967.9321
 479  1076.791
 480  943.6772
 481  770.2112
 482  778.1238
 483  819.8159
 484  847.6188
 485  968.3953
 486  939.764
 487  894.6232
 488  884.1412
 489  1032.266
 490  1105.647
 491  1153.422
 492  1056.633
 493  974.5316
 494  903.7549
 495  915.6642
 496  913.1005
 497  915.7971
 498  866.7646
 499  801.2091
 500  784.6822
 501  779.5012
 502  753.1127
 503  880.52
 504  969.2151
 505  955.3462
 506  1014.086
 507  1104.699
 508  1193.47
 509  1225.755
 510  1331.676
 511  1514.984
