# Input file       =  1212030580.120176_cleaned.dat
# Candidate        =  PSR_0332+5434
# Telescope        =  AR
# Epoch_topo       =  58272.131934261299
# Epoch_bary       =  N/A
# T_sample         =  0.002
# Data Folded      =  7208960
# Data Avg         =  0.0634458750215794
# Data StdDev      =  1.00007500701217 
# Profile Bins     =  512
# Profile Avg      =  893.37531420093  
# Profile StdDev   =  118.668076063773 
# Reduced chi-sqr  =  1.436
# Prob(Noise)      <  3.19e-10   (~6.2 sigma)
# P_topo (ms)      =  714.514858422139  +/- 0.00012
# P'_topo (s/s)    =  -0                +/- 6.42e-11
# P''_topo (s/s^2) =  0                 +/- 2.89e-14
# P_bary (ms)      =  N/A
# P'_bary (s/s)    =  N/A
# P''_bary (s/s^2) =  N/A
# P_orb (s)        =  N/A
# asin(i)/c (s)    =  N/A
# eccentricity     =  N/A
# w (rad)          =  N/A
# T_peri           =  N/A
######################################################
   0  826.8121
   1  889.3925
   2  993.4747
   3  944.7605
   4  952.0026
   5  979.8757
   6  942.1769
   7  926.149
   8  897.9525
   9  936.4899
  10  803.2923
  11  716.1803
  12  916.8632
  13  911.7089
  14  848.1349
  15  849.1891
  16  914.9288
  17  968.8147
  18  931.45
  19  1028.765
  20  969.5366
  21  892.2759
  22  934.1457
  23  989.337
  24  904.7786
  25  770.79
  26  882.5615
  27  914.1221
  28  848.9717
  29  814.5881
  30  683.6122
  31  772.3271
  32  854.7629
  33  835.0859
  34  902.1393
  35  830.7358
  36  669.6055
  37  731.9089
  38  749.1089
  39  748.908
  40  833.8875
  41  915.8193
  42  882.6548
  43  804.7766
  44  791.8664
  45  900.7339
  46  849.2318
  47  765.9641
  48  717.5218
  49  775.2458
  50  816.3787
  51  921.0673
  52  815.696
  53  875.9767
  54  862.4451
  55  819.087
  56  925.4308
  57  878.7201
  58  740.3627
  59  661.5164
  60  771.259
  61  958.7549
  62  991.1027
  63  955.2935
  64  865.1159
  65  882.284
  66  776.8495
  67  772.8063
  68  696.5076
  69  859.7631
  70  992.6666
  71  864.2008
  72  810.9941
  73  755.5052
  74  874.6605
  75  898.7259
  76  932.4238
  77  838.7215
  78  775.7955
  79  760.1459
  80  851.4924
  81  992.7205
  82  1097.967
  83  1092.025
  84  1025.717
  85  942.4674
  86  797.4368
  87  861.8512
  88  874.5536
  89  904.5298
  90  890.6728
  91  825.4615
  92  652.9615
  93  758.2963
  94  941.8384
  95  813.0552
  96  796.4302
  97  863.2167
  98  990.7375
  99  910.9562
 100  829.4422
 101  772.183
 102  803.5844
 103  858.4618
 104  791.3821
 105  819.5995
 106  835.1168
 107  822.0864
 108  756.7714
 109  854.9092
 110  853.0792
 111  949.6144
 112  819.2251
 113  667.3705
 114  705.3204
 115  747.9834
 116  698.1575
 117  726.0748
 118  733.3682
 119  759.3641
 120  726.7974
 121  766.3488
 122  891.687
 123  775.2025
 124  724.9352
 125  731.8578
 126  749.4665
 127  829.7639
 128  865.5334
 129  872.4105
 130  940.6516
 131  917.6322
 132  833.3192
 133  787.7006
 134  846.5864
 135  816.0474
 136  774.248
 137  839.0686
 138  747.7496
 139  856.5767
 140  841.554
 141  824.4146
 142  783.8556
 143  928.0574
 144  960.4617
 145  885.7472
 146  841.1644
 147  906.0071
 148  972.3683
 149  868.246
 150  849.702
 151  832.1838
 152  803.9896
 153  916.407
 154  965.836
 155  935.4055
 156  885.3473
 157  879.4084
 158  912.8571
 159  874.8873
 160  948.429
 161  984.3368
 162  828.0881
 163  789.0724
 164  859.4835
 165  737.7302
 166  839.8409
 167  761.0653
 168  780.8399
 169  744.174
 170  848.9852
 171  970.9065
 172  922.5691
 173  892.0482
 174  803.8565
 175  814.2297
 176  985.9447
 177  919.337
 178  931.193
 179  859.5781
 180  836.9331
 181  920.4614
 182  935.0978
 183  837.662
 184  731.9122
 185  864.3907
 186  840.1721
 187  824.9211
 188  853.0266
 189  974.3935
 190  870.7764
 191  801.2803
 192  816.77
 193  878.062
 194  862.5013
 195  872.5761
 196  821.2089
 197  941.8441
 198  956.4977
 199  998.9966
 200  972.3363
 201  910.0912
 202  769.4889
 203  850.321
 204  970.7011
 205  1060.554
 206  1060.05
 207  932.3861
 208  925.6484
 209  929.8589
 210  938.7265
 211  937.3295
 212  904.9384
 213  930.9348
 214  1032.132
 215  1014.349
 216  940.1935
 217  840.6227
 218  897.3838
 219  972.7002
 220  1049.258
 221  964.2835
 222  1015.663
 223  927.9441
 224  897.3998
 225  890.1086
 226  1040.559
 227  986.7416
 228  948.8425
 229  952.0974
 230  1018.391
 231  1015.647
 232  1011.628
 233  1042.237
 234  915.8067
 235  877.3802
 236  806.8922
 237  838.4634
 238  927.8417
 239  904.4341
 240  895.119
 241  857.6317
 242  850.7533
 243  804.8981
 244  776.8895
 245  845.8853
 246  801.191
 247  851.8311
 248  896.6843
 249  850.3075
 250  836.8901
 251  978.2001
 252  910.4106
 253  877.2617
 254  931.7532
 255  1003.039
 256  940.6763
 257  825.5706
 258  740.7856
 259  869.5184
 260  976.562
 261  988.7231
 262  995.9069
 263  1001.807
 264  987.4177
 265  991.6982
 266  902.9656
 267  921.0969
 268  812.7786
 269  852.7286
 270  826.923
 271  865.1816
 272  944.07
 273  953.8962
 274  1032.369
 275  982.264
 276  799.8655
 277  894.5951
 278  930.0754
 279  933.452
 280  931.2137
 281  948.8793
 282  1082.429
 283  930.3285
 284  891.5562
 285  810.2197
 286  1029.159
 287  1042.385
 288  948.8964
 289  1043.517
 290  1029.885
 291  953.8737
 292  978.3808
 293  1023.012
 294  974.747
 295  918.172
 296  961.7378
 297  949.3148
 298  860.9144
 299  781.6508
 300  1001.934
 301  909.4457
 302  1044.616
 303  1043.15
 304  839.8317
 305  762.2916
 306  809.297
 307  823.5038
 308  908.2738
 309  966.4445
 310  925.3972
 311  858.7481
 312  954.0712
 313  1058.634
 314  1143.461
 315  1117.36
 316  1015.762
 317  936.11
 318  904.6844
 319  926.4745
 320  924.0023
 321  900.631
 322  840.8004
 323  769.2338
 324  799.4448
 325  734.317
 326  814.0602
 327  927.5638
 328  982.9003
 329  957.7452
 330  1065.936
 331  1141.519
 332  1233.684
 333  1223.72
 334  1437.377
 335  1488.145
 336  1516.094
 337  1459.296
 338  1137.416
 339  980.5751
 340  941.2578
 341  1027.516
 342  855.6768
 343  796.8118
 344  810.9705
 345  844.0106
 346  909.5219
 347  967.0552
 348  990.5215
 349  924.4072
 350  951.7661
 351  860.9122
 352  863.2296
 353  870.6805
 354  976.3529
 355  906.3596
 356  894.668
 357  861.5994
 358  802.4045
 359  751.9282
 360  849.2574
 361  875.5971
 362  894.411
 363  879.7438
 364  889.8275
 365  817.4214
 366  790.2175
 367  854.4393
 368  723.7385
 369  822.6833
 370  823.055
 371  889.4014
 372  952.5773
 373  887.2417
 374  952.8643
 375  872.8305
 376  929.8724
 377  966.4414
 378  993.3021
 379  1023.561
 380  910.2773
 381  891.9207
 382  914.3856
 383  989.5582
 384  886.6393
 385  862.1379
 386  795.1931
 387  791.6814
 388  897.0801
 389  1036.912
 390  998.6627
 391  952.6387
 392  973.1261
 393  905.3171
 394  854.9035
 395  907.8525
 396  937.429
 397  957.5472
 398  1020.793
 399  945.0237
 400  896.9335
 401  868.9423
 402  906.6694
 403  1029.513
 404  1070.545
 405  899.5133
 406  924.4242
 407  862.1371
 408  744.8146
 409  739.7772
 410  888.6531
 411  962.796
 412  964.7524
 413  832.0202
 414  768.0008
 415  829.3137
 416  884.3232
 417  900.9371
 418  796.2281
 419  837.8126
 420  881.0849
 421  907.2251
 422  981.5267
 423  929.7946
 424  903.1957
 425  909.7733
 426  899.6552
 427  886.5113
 428  874.3948
 429  1032.664
 430  1006.496
 431  934.2656
 432  966.3679
 433  881.4256
 434  877.1523
 435  960.9443
 436  959.6741
 437  969.342
 438  983.6919
 439  847.2026
 440  951.0554
 441  1012.879
 442  984.3912
 443  1077.779
 444  1021.675
 445  1007.623
 446  1056.08
 447  931.3751
 448  913.1644
 449  905.5982
 450  817.3244
 451  804.0028
 452  878.3146
 453  879.4261
 454  669.0919
 455  737.4429
 456  882.2168
 457  814.799
 458  760.3898
 459  930.7582
 460  912.5756
 461  809.9128
 462  750.4247
 463  881.0656
 464  890.4714
 465  840.3507
 466  900.4413
 467  947.3801
 468  893.5274
 469  907.7022
 470  869.697
 471  924.6176
 472  867.845
 473  877.8796
 474  867.1946
 475  882.0957
 476  827.5276
 477  895.0186
 478  849.9453
 479  829.7532
 480  805.0715
 481  757.4936
 482  716.3438
 483  734.4462
 484  914.5042
 485  1008.241
 486  919.2289
 487  891.9827
 488  847.5282
 489  869.3818
 490  819.6561
 491  878.7351
 492  906.2606
 493  963.57
 494  970.5485
 495  993.1747
 496  874.1545
 497  862.2428
 498  909.5789
 499  837.2687
 500  877.3433
 501  987.7487
 502  807.6407
 503  945.6838
 504  985.3873
 505  879.3643
 506  818.0831
 507  922.1211
 508  837.5244
 509  773.8367
 510  794.9528
 511  800.4529
