# Input file       =  1212131393.119983_cleaned.dat
# Candidate        =  PSR_0332+5434
# Telescope        =  AR
# Epoch_topo       =  58273.298751388691
# Epoch_bary       =  N/A
# T_sample         =  0.002
# Data Folded      =  7340032
# Data Avg         =  0.0517570637530211
# Data StdDev      =  1.00023268153056 
# Profile Bins     =  512
# Profile Avg      =  741.915173302308 
# Profile StdDev   =  119.760896042929 
# Reduced chi-sqr  =  0.890
# Prob(Noise)      <  0.965   (~0.0 sigma)
# P_topo (ms)      =  714.513737362769  +/- 0.000458
# P'_topo (s/s)    =  -0                +/- 2.42e-10
# P''_topo (s/s^2) =  0                 +/- 1.07e-13
# P_bary (ms)      =  N/A
# P'_bary (s/s)    =  N/A
# P''_bary (s/s^2) =  N/A
# P_orb (s)        =  N/A
# asin(i)/c (s)    =  N/A
# eccentricity     =  N/A
# w (rad)          =  N/A
# T_peri           =  N/A
######################################################
   0  1191
   1  1089.294
   2  970.2594
   3  891.5408
   4  817.9615
   5  676.5854
   6  670.4389
   7  660.7283
   8  688.8366
   9  668.3727
  10  651.966
  11  659.846
  12  576.7233
  13  548.0433
  14  669.267
  15  788.1168
  16  746.0159
  17  635.0911
  18  700.5936
  19  724.7888
  20  726.2302
  21  634.7408
  22  549.4131
  23  621.1725
  24  594.3817
  25  616.8487
  26  596.3792
  27  611.9597
  28  686.1971
  29  730.3069
  30  720.7582
  31  672.0197
  32  669.9021
  33  673.3461
  34  642.6557
  35  717.0778
  36  704.1378
  37  751.3184
  38  770.9219
  39  814.2687
  40  865.7219
  41  804.0382
  42  806.0859
  43  822.2129
  44  715.8296
  45  645.7996
  46  648.0887
  47  703.4172
  48  742.3726
  49  815.0848
  50  791.8309
  51  762.2064
  52  790.6555
  53  764.4353
  54  673.8756
  55  711.2372
  56  779.5135
  57  734.3757
  58  703.1754
  59  789.2792
  60  840.6418
  61  808.432
  62  829.1849
  63  854.0379
  64  842.6823
  65  835.2767
  66  897.5627
  67  938.2561
  68  878.1791
  69  896.1506
  70  725.6269
  71  720.1196
  72  723.1907
  73  757.1132
  74  691.9955
  75  695.8007
  76  708.4347
  77  739.4619
  78  738.5623
  79  681.3571
  80  697.3829
  81  648.5136
  82  647.9824
  83  700.1768
  84  722.8967
  85  821.9235
  86  864.9346
  87  863.8676
  88  864.9528
  89  805.7897
  90  783.2889
  91  819.8846
  92  932.2251
  93  807.0908
  94  735.0472
  95  841.707
  96  861.4503
  97  878.2604
  98  795.2266
  99  820.9441
 100  788.3812
 101  840.3066
 102  782.6061
 103  699.3384
 104  713.8641
 105  713.4943
 106  723.912
 107  722.0912
 108  710.6529
 109  804.6961
 110  758.9019
 111  754.3768
 112  712.6913
 113  626.0089
 114  727.2132
 115  709.9783
 116  687.2653
 117  647.5129
 118  743.1589
 119  706.8915
 120  716.4597
 121  749.8066
 122  662.5023
 123  743.4543
 124  805.591
 125  693.9599
 126  643.3278
 127  658.89
 128  811.5968
 129  934.0428
 130  810.2376
 131  699.7252
 132  823.524
 133  841.2574
 134  792.6765
 135  820.545
 136  712.3848
 137  676.8622
 138  707.4583
 139  710.8427
 140  707.4922
 141  716.4552
 142  750.7326
 143  649.3877
 144  693.5145
 145  776.6763
 146  693.6881
 147  638.0155
 148  677.1085
 149  631.2227
 150  652.381
 151  710.0252
 152  788.1689
 153  830.2563
 154  800.7486
 155  681.3801
 156  658.096
 157  744.3212
 158  697.1866
 159  721.0602
 160  750.407
 161  767.9998
 162  748.717
 163  644.0135
 164  667.4428
 165  796.9673
 166  679.6238
 167  604.1309
 168  616.2786
 169  560.3376
 170  668.7752
 171  711.9719
 172  706.817
 173  664.6133
 174  624.1767
 175  593.5154
 176  650.3865
 177  626.29
 178  623.5979
 179  586.2876
 180  645.3454
 181  676.9896
 182  710.3115
 183  682.3193
 184  629.7219
 185  583.909
 186  669.5661
 187  667.1743
 188  716.0099
 189  651.5275
 190  597.1639
 191  682.8062
 192  739.4277
 193  753.653
 194  811.2728
 195  701.5483
 196  665.45
 197  787.0894
 198  817.1552
 199  833.4282
 200  670.9354
 201  711.93
 202  765.7193
 203  668.2894
 204  744.4185
 205  753.3524
 206  789.9823
 207  845.2869
 208  816.9788
 209  725.5376
 210  730.3374
 211  717.9044
 212  795.9908
 213  778.5414
 214  714.1848
 215  741.9237
 216  785.8522
 217  854.3163
 218  787.0688
 219  725.3478
 220  808.8677
 221  918.5212
 222  885.5422
 223  905.6238
 224  918.8162
 225  805.9413
 226  809.4899
 227  727.6435
 228  912.9171
 229  891.4244
 230  791.2095
 231  689.8013
 232  759.1592
 233  808.6015
 234  827.8664
 235  815.3291
 236  833.5377
 237  812.9701
 238  800.0834
 239  884.4669
 240  873.2951
 241  845.8898
 242  852.3735
 243  806.8345
 244  726.19
 245  723.689
 246  714.3919
 247  762.1395
 248  835.1417
 249  785.3046
 250  703.1641
 251  737.0378
 252  937.0795
 253  778.8771
 254  709.7854
 255  791.511
 256  863.4031
 257  746.8326
 258  765.9719
 259  761.0577
 260  769.2094
 261  803.4661
 262  742.8149
 263  676.0063
 264  750.657
 265  797.679
 266  794.6769
 267  734.8003
 268  790.3915
 269  663.1698
 270  688.843
 271  695.6771
 272  705.4006
 273  785.0653
 274  755.5942
 275  723.6576
 276  737.5829
 277  757.2482
 278  759.8102
 279  789.3811
 280  764.8564
 281  739.0875
 282  741.2626
 283  638.8141
 284  711.6677
 285  727.1256
 286  781.4062
 287  757.9226
 288  775.5064
 289  798.1563
 290  743.4129
 291  679.8993
 292  704.5827
 293  757.1221
 294  707.2131
 295  725.976
 296  777.4046
 297  724.3844
 298  781.9272
 299  724.5851
 300  700.2499
 301  665.758
 302  724.0422
 303  744.8309
 304  711.5024
 305  785.4573
 306  791.735
 307  694.0818
 308  783.624
 309  746.73
 310  773.3442
 311  831.4478
 312  825.3979
 313  805.512
 314  793.6233
 315  756.1834
 316  789.0754
 317  724.7039
 318  702.1565
 319  668.1832
 320  670.3961
 321  778.6899
 322  713.1197
 323  693.5057
 324  774.5281
 325  644.2936
 326  641.9993
 327  684.8459
 328  738.0018
 329  843.4966
 330  754.0417
 331  679.9539
 332  744.6921
 333  776.4695
 334  757.21
 335  833.4237
 336  834.3217
 337  673.0912
 338  725.0555
 339  794.8271
 340  745.5345
 341  763.4643
 342  669.4529
 343  746.4811
 344  627.1821
 345  723.186
 346  598.4106
 347  652.9952
 348  686.9168
 349  709.8994
 350  791.2712
 351  868.8434
 352  808.2299
 353  807.9529
 354  719.1124
 355  709.933
 356  799.379
 357  782.3962
 358  776.2084
 359  721.0939
 360  797.6147
 361  795.8894
 362  802.4361
 363  666.1191
 364  715.0627
 365  711.0234
 366  706.0178
 367  660.4047
 368  661.8154
 369  762.9027
 370  779.3077
 371  749.0236
 372  751.8163
 373  677.1296
 374  671.6463
 375  667.3784
 376  742.9542
 377  738.9503
 378  637.0579
 379  682.5206
 380  653.4202
 381  699.7446
 382  737.3652
 383  650.7228
 384  583.3186
 385  690.4166
 386  654.6621
 387  640.9478
 388  729.171
 389  683.2531
 390  636.103
 391  609.3927
 392  635.9395
 393  739.7762
 394  750.989
 395  588.3149
 396  588.913
 397  548.0764
 398  575.3094
 399  736.5048
 400  793.8832
 401  701.5496
 402  691.1349
 403  702.8145
 404  655.5439
 405  730.6862
 406  703.9238
 407  656.04
 408  628.4235
 409  770.8453
 410  890.6719
 411  789.1564
 412  818.6317
 413  779.7958
 414  778.8909
 415  794.5057
 416  817.6129
 417  810.5784
 418  828.3867
 419  821.0959
 420  763.3898
 421  830.6386
 422  781.2528
 423  825.7414
 424  843.3415
 425  796.4295
 426  818.659
 427  823.377
 428  768.9778
 429  726.904
 430  780.5373
 431  823.4571
 432  830.1809
 433  903.6579
 434  785.7244
 435  759.9546
 436  807.7493
 437  853.537
 438  750.2502
 439  733.0646
 440  805.9243
 441  697.5645
 442  695.219
 443  820.5706
 444  876.8303
 445  795.3972
 446  815.7289
 447  688.6794
 448  691.1979
 449  637.6402
 450  692.9086
 451  792.7883
 452  777.5899
 453  741.3378
 454  710.551
 455  558.054
 456  707.9805
 457  767.4933
 458  694.6451
 459  683.0221
 460  854.6744
 461  729.6704
 462  693.0078
 463  753.9691
 464  729.6059
 465  709.6079
 466  631.5216
 467  624.9786
 468  720.9987
 469  813.4146
 470  727.8352
 471  704.2745
 472  576.2217
 473  618.7704
 474  636.6744
 475  737.1989
 476  847.9293
 477  767.7245
 478  828.1213
 479  781.1317
 480  723.2496
 481  748.5298
 482  731.7037
 483  682.8286
 484  680.3735
 485  668.7648
 486  667.9152
 487  744.7311
 488  734.6169
 489  732.0436
 490  727.0064
 491  677.811
 492  729.4587
 493  715.5643
 494  782.6948
 495  741.3
 496  743.4086
 497  632.4854
 498  647.285
 499  686.9148
 500  712.5976
 501  676.5349
 502  805.6334
 503  743.5857
 504  735.6479
 505  724.4636
 506  813.7841
 507  767.1249
 508  731.4411
 509  833.5052
 510  1048.317
 511  1198.739
