# Input file       =  1212217597.124563_cleaned.dat
# Candidate        =  PSR_0332+5434
# Telescope        =  AR
# Epoch_topo       =  58274.296482923186
# Epoch_bary       =  N/A
# T_sample         =  0.002
# Data Folded      =  7340032
# Data Avg         =  0.125487418952357
# Data StdDev      =  2.98676898151911 
# Profile Bins     =  1024
# Profile Avg      =  900.001371206699 
# Profile StdDev   =  252.871934358439 
# Reduced chi-sqr  =  1.259
# Prob(Noise)      <  2.71e-08   (~5.4 sigma)
# P_topo (ms)      =  714.512772883041  +/- 0.000513
# P'_topo (s/s)    =  -0                +/- 2.71e-10
# P''_topo (s/s^2) =  0                 +/- 1.19e-13
# P_bary (ms)      =  N/A
# P'_bary (s/s)    =  N/A
# P''_bary (s/s^2) =  N/A
# P_orb (s)        =  N/A
# asin(i)/c (s)    =  N/A
# eccentricity     =  N/A
# w (rad)          =  N/A
# T_peri           =  N/A
######################################################
   0  1217.349
   1  1181.254
   2  1187.915
   3  1196.504
   4  1028.237
   5  966.9443
   6  1000.662
   7  1121.773
   8  1059.914
   9  1064.638
  10  1086.72
  11  1198.953
  12  1177.665
  13  1199.36
  14  1190.598
  15  1115.319
  16  1078.696
  17  1048.809
  18  1095.469
  19  1127.756
  20  1121.213
  21  1105.883
  22  1134.186
  23  1127.213
  24  1016.736
  25  994.3435
  26  990.2772
  27  1121.562
  28  1055.026
  29  1025.687
  30  887.5037
  31  897.092
  32  878.2728
  33  911.0302
  34  992.584
  35  1034.367
  36  1084.397
  37  1024.037
  38  1112.076
  39  1045.704
  40  1075.529
  41  1038.639
  42  986.3897
  43  855.627
  44  768.358
  45  709.1123
  46  694.7072
  47  740.014
  48  824.9233
  49  863.1302
  50  910.8608
  51  1030.062
  52  1085.736
  53  1053.045
  54  1029.685
  55  931.3226
  56  928.0045
  57  869.6849
  58  976.3906
  59  964.0812
  60  955.506
  61  872.6892
  62  797.4655
  63  748.1964
  64  844.304
  65  840.6557
  66  1000.209
  67  934.2517
  68  981.0327
  69  852.4054
  70  884.674
  71  948.2324
  72  959.5477
  73  987.1432
  74  970.2605
  75  963.3871
  76  1028.255
  77  1101.846
  78  1085.259
  79  1016.912
  80  918.5158
  81  955.3122
  82  1009.038
  83  1110.884
  84  1089.912
  85  993.6893
  86  947.911
  87  940.8576
  88  941.476
  89  881.9136
  90  833.4365
  91  821.7356
  92  965.473
  93  1011.123
  94  1003.365
  95  877.1123
  96  923.1771
  97  925.6438
  98  1005.439
  99  929.136
 100  900.2658
 101  1002.023
 102  1124.632
 103  1116.683
 104  1051.658
 105  967.328
 106  1003.201
 107  964.2602
 108  1052.807
 109  1060.995
 110  1041.073
 111  989.7984
 112  979.5339
 113  1023.285
 114  1047.998
 115  979.9734
 116  1030.256
 117  941.6742
 118  909.8551
 119  792.5235
 120  840.8328
 121  858.7601
 122  794.0366
 123  722.0027
 124  676.6448
 125  718.5967
 126  869.1585
 127  920.2224
 128  1006.114
 129  991.2384
 130  989.2184
 131  1029.891
 132  1048.49
 133  976.2204
 134  953.8683
 135  903.9188
 136  990.5696
 137  998.9688
 138  1034.446
 139  1048.558
 140  956.3912
 141  874.7146
 142  833.0294
 143  896.1891
 144  990.2069
 145  999.288
 146  986.3077
 147  905.2076
 148  944.7098
 149  946.7992
 150  982.1143
 151  981.0754
 152  1068.318
 153  1074.788
 154  1010.451
 155  938.007
 156  878.399
 157  866.5584
 158  839.4927
 159  1004.413
 160  1057.73
 161  1113.299
 162  1028.62
 163  1034.962
 164  986.4728
 165  984.343
 166  977.7142
 167  1130.151
 168  1273.118
 169  1250.223
 170  1056.992
 171  907.4848
 172  910.4536
 173  921.6803
 174  1015.356
 175  1045.838
 176  988.3964
 177  953.6866
 178  941.1962
 179  961.4547
 180  889.1708
 181  875.9049
 182  912.415
 183  942.5709
 184  971.2559
 185  899.2684
 186  801.8243
 187  853.429
 188  925.2
 189  999.718
 190  945.393
 191  935.0722
 192  949.7
 193  951.644
 194  988.7999
 195  947.4484
 196  995.9719
 197  957.1061
 198  927.3807
 199  918.8015
 200  1008.023
 201  1011.727
 202  1000.066
 203  1005.18
 204  991.1887
 205  1018.485
 206  966.3746
 207  1123.334
 208  1107.224
 209  1033.962
 210  839.587
 211  825.9003
 212  973.6458
 213  1003.055
 214  976.1699
 215  920.9321
 216  840.4341
 217  853.0121
 218  768.3177
 219  852.0982
 220  909.8222
 221  1065.127
 222  1021.853
 223  1024.703
 224  1075.466
 225  1152.339
 226  984.5049
 227  821.0521
 228  807.4294
 229  908.9348
 230  868.2805
 231  810.0693
 232  819.4728
 233  1056.681
 234  1092.905
 235  1063.557
 236  931.1611
 237  1002.898
 238  929.9595
 239  940.381
 240  859.8889
 241  850.4883
 242  765.168
 243  720.5804
 244  746.2448
 245  788.5465
 246  838.0771
 247  923.019
 248  1010.489
 249  1066.779
 250  1120.813
 251  1130.467
 252  1011.689
 253  923.0767
 254  831.967
 255  854.3837
 256  937.0586
 257  940.4873
 258  914.0289
 259  736.4366
 260  736.2025
 261  687.7805
 262  695.8621
 263  702.6011
 264  711.4965
 265  740.3668
 266  720.5024
 267  833.6237
 268  893.9907
 269  911.3215
 270  842.7237
 271  795.8436
 272  898.7693
 273  924.5888
 274  933.1126
 275  851.9295
 276  798.8662
 277  747.2166
 278  717.3783
 279  605.1689
 280  568.9748
 281  670.327
 282  755.5033
 283  791.5461
 284  735.0256
 285  839.4637
 286  854.4667
 287  846.5908
 288  846.6683
 289  907.9659
 290  1017.197
 291  978.765
 292  935.967
 293  948.837
 294  1039.706
 295  975.0019
 296  912.6071
 297  822.6738
 298  761.9555
 299  730.2936
 300  831.2258
 301  921.0424
 302  811.7834
 303  811.0057
 304  797.4338
 305  909.7582
 306  911.2156
 307  930.4982
 308  944.71
 309  915.7861
 310  997.1607
 311  999.9077
 312  989.5822
 313  910.6036
 314  894.2234
 315  916.4796
 316  881.1688
 317  850.087
 318  830.0646
 319  759.0942
 320  757.4263
 321  823.162
 322  892.6233
 323  874.303
 324  824.509
 325  880.1198
 326  867.5854
 327  806.1974
 328  678.7876
 329  719.0197
 330  728.6251
 331  879.7665
 332  893.2742
 333  898.2388
 334  865.7585
 335  842.2894
 336  893.5697
 337  922.0285
 338  894.0001
 339  850.5704
 340  806.333
 341  907.2197
 342  850.7905
 343  811.9451
 344  747.9836
 345  796.351
 346  836.8662
 347  838.4456
 348  958.47
 349  975.3717
 350  931.6063
 351  873.7947
 352  883.7247
 353  878.1968
 354  770.1369
 355  711.9492
 356  691.6442
 357  701.2136
 358  712.558
 359  713.725
 360  675.9888
 361  639.4221
 362  539.4002
 363  567.5221
 364  633.4192
 365  779.8151
 366  787.3362
 367  692.1744
 368  751.6085
 369  829.2614
 370  950.7961
 371  899.8013
 372  884.2471
 373  894.0391
 374  899.5588
 375  922.7767
 376  865.0812
 377  726.7172
 378  698.2831
 379  631.8537
 380  676.9556
 381  603.6161
 382  578.5546
 383  585.8264
 384  673.8016
 385  770.3512
 386  842.2182
 387  874.8241
 388  870.6678
 389  789.2764
 390  788.3591
 391  824.9161
 392  789.3127
 393  872.9218
 394  782.8237
 395  758.697
 396  696.5566
 397  761.6069
 398  773.0795
 399  677.8376
 400  634.5092
 401  639.9597
 402  717.772
 403  760.9039
 404  717.0613
 405  699.9525
 406  718.9509
 407  653.9453
 408  673.7275
 409  657.6012
 410  708.1284
 411  689.7302
 412  766.1246
 413  845.3817
 414  793.8806
 415  807.2299
 416  957.0162
 417  1011.936
 418  832.3235
 419  619.3696
 420  622.6572
 421  656.8488
 422  645.0595
 423  755.4229
 424  829.571
 425  868.133
 426  863.6545
 427  780.8734
 428  777.882
 429  723.0767
 430  831.9235
 431  825.7624
 432  863.2464
 433  770.8524
 434  749.217
 435  696.6139
 436  699.5016
 437  759.572
 438  728.2352
 439  822.7571
 440  859.821
 441  944.6106
 442  899.8372
 443  855.8414
 444  720.0507
 445  772.9937
 446  802.5986
 447  851.8775
 448  821.0642
 449  694.6713
 450  604.3371
 451  600.0604
 452  621.8679
 453  703.3402
 454  605.5692
 455  684.0565
 456  765.4314
 457  935.8396
 458  920.8683
 459  830.1842
 460  644.9643
 461  613.9005
 462  567.3893
 463  592.1349
 464  606.2783
 465  692.9434
 466  811.7416
 467  897.0686
 468  951.5122
 469  961.5652
 470  832.4042
 471  732.925
 472  803.4366
 473  984.7661
 474  970.4359
 475  837.5934
 476  736.7684
 477  701.2065
 478  638.5977
 479  621.2886
 480  660.6033
 481  735.1942
 482  749.1793
 483  784.2698
 484  674.8453
 485  734.3255
 486  730.0746
 487  737.6992
 488  654.4226
 489  598.3219
 490  625.8197
 491  540.8007
 492  596.6594
 493  490.7678
 494  531.3518
 495  429.4998
 496  544.2687
 497  700.8147
 498  846.3715
 499  836.1819
 500  781.6628
 501  807.6226
 502  727.5679
 503  670.4481
 504  668.0662
 505  645.7128
 506  587.6752
 507  544.8036
 508  616.3788
 509  599.0276
 510  651.2742
 511  748.6899
 512  862.9929
 513  845.563
 514  736.4823
 515  773.9837
 516  697.4753
 517  747.4964
 518  752.9039
 519  773.1299
 520  744.9456
 521  603.5591
 522  602.2419
 523  572.5812
 524  640.6526
 525  602.1466
 526  585.8799
 527  487.0411
 528  469.2051
 529  453.7233
 530  589.5898
 531  672.4508
 532  731.0236
 533  617.9761
 534  646.0192
 535  738.5533
 536  846.634
 537  936.2599
 538  939.9449
 539  902.8442
 540  822.2895
 541  763.591
 542  758.7473
 543  632.8807
 544  607.2204
 545  614.8748
 546  678.4394
 547  734.7293
 548  777.1733
 549  852.5746
 550  813.0412
 551  810.3184
 552  774.2791
 553  763.4684
 554  744.2123
 555  765.0654
 556  805.997
 557  845.229
 558  789.4383
 559  684.2432
 560  578.2317
 561  526.4286
 562  536.6398
 563  521.0515
 564  604.2877
 565  723.5817
 566  769.2487
 567  703.9747
 568  577.8374
 569  443.7389
 570  460.8347
 571  561.2196
 572  727.107
 573  814.8512
 574  792.0903
 575  846.8237
 576  828.2525
 577  888.0758
 578  713.5203
 579  761.2073
 580  637.2874
 581  660.791
 582  634.5436
 583  677.1695
 584  855.9893
 585  952.0881
 586  1008.127
 587  882.6661
 588  808.7514
 589  896.4307
 590  1025.965
 591  1139.065
 592  1199.057
 593  1272.485
 594  1377.62
 595  1446.812
 596  1596.708
 597  1574.871
 598  1533.838
 599  1511.327
 600  1483.417
 601  1341.201
 602  1096.27
 603  953.4615
 604  922.8727
 605  910.3321
 606  1010.555
 607  998.1727
 608  993.4801
 609  882.1821
 610  833.3941
 611  837.0453
 612  890.3558
 613  775.4864
 614  665.2863
 615  640.9944
 616  761.2513
 617  847.8331
 618  805.6723
 619  806.0353
 620  760.5567
 621  822.6646
 622  883.8399
 623  1073.077
 624  1033.144
 625  1027.779
 626  957.1121
 627  1003.566
 628  920.4301
 629  844.5952
 630  794.4756
 631  833.1418
 632  855.8123
 633  878.5121
 634  846.7939
 635  863.1545
 636  923.8676
 637  991.8909
 638  949.551
 639  829.5256
 640  843.9587
 641  909.7938
 642  904.5079
 643  873.9073
 644  860.2789
 645  844.2722
 646  733.1204
 647  752.8729
 648  840.8135
 649  959.8461
 650  987.2896
 651  910.699
 652  780.7939
 653  715.8754
 654  679.7602
 655  671.7319
 656  644.3174
 657  689.6044
 658  820.9233
 659  915.7322
 660  956.6495
 661  875.0957
 662  855.752
 663  774.6265
 664  694.5937
 665  632.2482
 666  681.2278
 667  818.767
 668  965.6833
 669  951.2463
 670  853.0935
 671  839.1271
 672  783.779
 673  836.554
 674  844.6847
 675  896.1104
 676  832.6965
 677  808.0859
 678  888.558
 679  921.851
 680  860.2254
 681  884.8715
 682  920.8396
 683  954.5287
 684  878.0231
 685  911.1861
 686  979.3926
 687  951.9448
 688  877.3474
 689  893.9973
 690  845.1545
 691  927.4737
 692  939.7418
 693  979.1921
 694  850.5688
 695  645.8875
 696  655.8721
 697  750.4769
 698  826.4045
 699  821.9301
 700  885.0052
 701  971.4131
 702  880.4599
 703  795.8485
 704  852.7659
 705  856.8115
 706  835.8387
 707  838.6273
 708  809.2454
 709  807.082
 710  746.0699
 711  820.6011
 712  838.5106
 713  922.7319
 714  951.7085
 715  984.5868
 716  900.9939
 717  886.9716
 718  1002.842
 719  1169.38
 720  1075.614
 721  901.2542
 722  802.0765
 723  784.6318
 724  813.2849
 725  786.6205
 726  840.9495
 727  879.4044
 728  873.3228
 729  891.1315
 730  871.2579
 731  877.9069
 732  896.9847
 733  978.6955
 734  1017.455
 735  927.4734
 736  860.6176
 737  937.7122
 738  973.3607
 739  950.3665
 740  944.2969
 741  1050.501
 742  984.8821
 743  909.1641
 744  864.6373
 745  890.8153
 746  819.5932
 747  827.5016
 748  947.5164
 749  1056.424
 750  975.3522
 751  907.4678
 752  894.7642
 753  888.5987
 754  870.1475
 755  852.9879
 756  1048.046
 757  1119.367
 758  1063.877
 759  936.7688
 760  877.2191
 761  1005.349
 762  988.2521
 763  995.7023
 764  1004.106
 765  1033.669
 766  1057.19
 767  913.2681
 768  925.0154
 769  969.6652
 770  1061.968
 771  986.4874
 772  939.8333
 773  940.0834
 774  959.808
 775  801.0481
 776  666.5782
 777  664.4399
 778  786.5691
 779  920.1053
 780  939.0846
 781  927.8502
 782  789.6159
 783  880.8179
 784  851.4858
 785  857.2381
 786  837.6801
 787  876.1992
 788  877.7612
 789  824.6157
 790  772.0527
 791  760.1865
 792  833.9594
 793  850.4917
 794  885.6901
 795  935.949
 796  970.6605
 797  942.6053
 798  852.6228
 799  834.3307
 800  877.8175
 801  934.2318
 802  914.4034
 803  906.7847
 804  892.3702
 805  869.2582
 806  931.3894
 807  994.2111
 808  919.0475
 809  841.7733
 810  853.2377
 811  978.8904
 812  988.7023
 813  934.8322
 814  925.9365
 815  837.6591
 816  923.6932
 817  906.2354
 818  938.2396
 819  799.6437
 820  804.626
 821  892.6627
 822  876.4227
 823  797.4998
 824  830.5506
 825  856.7252
 826  903.9868
 827  828.9144
 828  854.7773
 829  919.6495
 830  1031.69
 831  1063.312
 832  1028.562
 833  972.4011
 834  996.2802
 835  982.5519
 836  994.4648
 837  1051.021
 838  1084.867
 839  1082.634
 840  1105.837
 841  1062.23
 842  1044.912
 843  948.1143
 844  1022.698
 845  948.7682
 846  897.4107
 847  905.3632
 848  991.9498
 849  1123.305
 850  1043.72
 851  1035.986
 852  1032.26
 853  1050.955
 854  1029.01
 855  889.274
 856  875.6727
 857  905.7603
 858  925.8588
 859  926.583
 860  882.1417
 861  922.1227
 862  917.4411
 863  950.6948
 864  955.3542
 865  1075.35
 866  1057.979
 867  986.2983
 868  889.2611
 869  960.5662
 870  927.443
 871  947.3552
 872  932.3682
 873  1005.329
 874  1041.807
 875  1073.341
 876  1114.112
 877  1044.277
 878  912.7205
 879  902.3904
 880  882.3881
 881  906.6937
 882  848.3546
 883  921.2021
 884  1092.991
 885  1223.237
 886  1322.571
 887  1229.6
 888  1062.228
 889  1047.014
 890  1121.389
 891  1126.187
 892  1076.589
 893  999.5923
 894  1053.204
 895  1053.958
 896  1105.19
 897  1136.823
 898  1168.786
 899  1171.317
 900  1188.943
 901  1163.284
 902  1076.266
 903  863.1479
 904  851.2863
 905  930.0253
 906  1121.394
 907  1006.693
 908  962.2336
 909  952.9586
 910  953.9346
 911  954.9325
 912  966.4609
 913  1085.204
 914  1118.213
 915  1072.943
 916  958.2582
 917  945.2952
 918  1004.096
 919  1033.136
 920  937.0815
 921  930.1364
 922  927.9352
 923  951.8816
 924  976.9123
 925  1012.489
 926  1014.902
 927  1053.079
 928  1118.662
 929  1102.911
 930  990.4969
 931  955.3414
 932  1004.948
 933  1068.388
 934  1025.073
 935  965.2039
 936  978.5766
 937  1054.283
 938  1033.977
 939  1057.381
 940  1096.639
 941  1114.807
 942  1108.372
 943  1019.384
 944  1083.042
 945  1097.715
 946  1090.521
 947  1043.805
 948  950.9947
 949  967.3309
 950  973.4685
 951  930.8585
 952  929.8855
 953  851.8355
 954  901.0474
 955  870.3859
 956  822.9967
 957  915.8757
 958  924.2361
 959  1113.824
 960  1148.913
 961  1144.947
 962  1018.086
 963  975.6776
 964  1020.756
 965  1023.901
 966  981.4361
 967  929.4213
 968  958.2625
 969  1007.765
 970  976.7815
 971  941.6626
 972  971.0332
 973  1037.036
 974  1174.387
 975  1181.904
 976  969.7585
 977  869.0322
 978  820.7557
 979  953.0705
 980  1017.822
 981  1032.046
 982  1033.938
 983  1009.487
 984  1123.684
 985  1170.147
 986  1150.99
 987  1132.709
 988  1160.71
 989  1184.544
 990  1098.486
 991  1020.728
 992  1048.924
 993  1203.406
 994  1251.19
 995  1239.789
 996  1066.838
 997  1060.262
 998  1009.088
 999  989.2067
1000  956.8171
1001  1036.466
1002  1141.117
1003  1151.458
1004  1125.558
1005  1118.053
1006  1085.596
1007  1021.658
1008  1027.227
1009  1098.589
1010  1205.138
1011  1170.261
1012  1209.115
1013  1230.086
1014  1247.828
1015  1093.811
1016  1030.68
1017  1133.685
1018  1131.701
1019  1067.859
1020  961.7941
1021  954.8459
1022  1104.105
1023  1194.526
