# Input file       =  1212562175.108889_cleaned.dat
# Candidate        =  PSR_0332+5434
# Telescope        =  AR
# Epoch_topo       =  58278.284654038071
# Epoch_bary       =  N/A
# T_sample         =  0.002
# Data Folded      =  7340032
# Data Avg         =  0.10428213733186 
# Data StdDev      =  2.93257713286233 
# Profile Bins     =  1024
# Profile Avg      =  747.534640876688 
# Profile StdDev   =  248.283833410193 
# Reduced chi-sqr  =  0.945
# Prob(Noise)      <  0.897   (~0.0 sigma)
# P_topo (ms)      =  714.508932484829  +/- 0.000128
# P'_topo (s/s)    =  -0                +/- 6.75e-11
# P''_topo (s/s^2) =  0                 +/- 2.98e-14
# P_bary (ms)      =  N/A
# P'_bary (s/s)    =  N/A
# P''_bary (s/s^2) =  N/A
# P_orb (s)        =  N/A
# asin(i)/c (s)    =  N/A
# eccentricity     =  N/A
# w (rad)          =  N/A
# T_peri           =  N/A
######################################################
   0  617.8041
   1  740.8979
   2  776.379
   3  919.9773
   4  906.9381
   5  880.069
   6  795.2942
   7  705.0961
   8  737.3161
   9  801.0146
  10  861.0037
  11  839.3143
  12  810.3961
  13  704.4092
  14  643.9352
  15  690.4764
  16  819.1818
  17  884.1119
  18  902.1848
  19  786.537
  20  828.21
  21  742.228
  22  694.4076
  23  597.6356
  24  767.5769
  25  861.9048
  26  808.5909
  27  687.2454
  28  668.1619
  29  579.3545
  30  610.7415
  31  689.9373
  32  803.3874
  33  687.926
  34  623.5295
  35  639.7145
  36  712.136
  37  803.2969
  38  810.4904
  39  814.7849
  40  847.4692
  41  769.916
  42  784.894
  43  811.9659
  44  932.9018
  45  958.3298
  46  938.4733
  47  883.5391
  48  899.0115
  49  789.0013
  50  747.3548
  51  716.8948
  52  822.1417
  53  742.8914
  54  712.4711
  55  721.9685
  56  827.0618
  57  813.7487
  58  802.709
  59  798.443
  60  884.931
  61  818.6748
  62  829.179
  63  811.7987
  64  873.1089
  65  946.8521
  66  913.9781
  67  903.583
  68  820.609
  69  866.9224
  70  858.0905
  71  794.4369
  72  744.6349
  73  720.0997
  74  848.3466
  75  844.5361
  76  836.0052
  77  834.3602
  78  944.165
  79  965.1553
  80  849.4988
  81  756.6945
  82  690.9679
  83  760.8215
  84  820.0214
  85  898.7279
  86  918.5226
  87  841.2379
  88  777.3412
  89  740.8721
  90  636.0512
  91  623.1872
  92  598.3843
  93  676.3608
  94  698.9069
  95  705.0908
  96  668.1349
  97  620.0528
  98  681.1755
  99  720.779
 100  739.7219
 101  661.0353
 102  716.991
 103  775.8004
 104  855.561
 105  760.5813
 106  695.5741
 107  684.753
 108  718.7338
 109  805.634
 110  855.3869
 111  892.0584
 112  927.9081
 113  1012.115
 114  934.0147
 115  829.6218
 116  697.4072
 117  755.7468
 118  808.8588
 119  774.4853
 120  634.9896
 121  587.9609
 122  603.0982
 123  673.356
 124  775.9891
 125  778.8
 126  751.534
 127  690.4047
 128  867.8675
 129  955.1773
 130  996.1489
 131  850.6234
 132  791.9279
 133  821.4845
 134  776.3937
 135  753.269
 136  760.4725
 137  885.1202
 138  898.7416
 139  704.8404
 140  577.222
 141  571.4856
 142  603.0591
 143  655.8185
 144  811.1702
 145  950.8971
 146  963.3968
 147  882.1931
 148  883.5858
 149  802.4493
 150  711.4761
 151  664.4075
 152  674.8976
 153  609.821
 154  583.6307
 155  594.3633
 156  598.9854
 157  580.3096
 158  670.9188
 159  724.14
 160  753.0139
 161  653.7656
 162  701.4244
 163  728.2369
 164  741.7127
 165  691.7648
 166  743.2425
 167  839.3105
 168  823.4353
 169  811.2834
 170  801.8224
 171  859.5106
 172  829.0747
 173  843.0085
 174  852.981
 175  767.124
 176  656.2649
 177  658.6656
 178  776.5578
 179  718.2571
 180  634.1885
 181  604.4646
 182  692.7106
 183  736.5892
 184  677.6099
 185  689.0533
 186  772.4182
 187  808.4767
 188  712.1615
 189  658.065
 190  651.7072
 191  660.8835
 192  605.7943
 193  539.4365
 194  587.4022
 195  593.0204
 196  629.5403
 197  558.5353
 198  636.2244
 199  644.9883
 200  705.0218
 201  644.0689
 202  668.9013
 203  625.6899
 204  634.9214
 205  617.7454
 206  604.5357
 207  816.4842
 208  939.2972
 209  916.7089
 210  727.1802
 211  691.2755
 212  722.0081
 213  635.9689
 214  573.2241
 215  574.0075
 216  697.48
 217  624.5852
 218  570.7448
 219  652.174
 220  687.2413
 221  638.0143
 222  684.1505
 223  812.769
 224  891.9275
 225  761.6784
 226  619.2487
 227  605.2818
 228  643.059
 229  671.083
 230  617.8381
 231  761.6559
 232  807.6892
 233  817.1802
 234  666.0474
 235  635.5248
 236  661.6407
 237  602.8106
 238  641.2815
 239  629.6285
 240  729.694
 241  724.3045
 242  720.6191
 243  723.8726
 244  753.7476
 245  829.1432
 246  800.9009
 247  720.9555
 248  712.6315
 249  705.1068
 250  754.1598
 251  723.1974
 252  702.8205
 253  724.6464
 254  803.0268
 255  815.6306
 256  758.3956
 257  665.0665
 258  699.5164
 259  691.9982
 260  609.3028
 261  600.316
 262  520.0676
 263  541.7212
 264  587.6681
 265  738.1771
 266  758.0734
 267  631.3388
 268  481.4774
 269  500.7575
 270  575.2545
 271  558.0464
 272  555.1011
 273  611.405
 274  716.3007
 275  730.4309
 276  641.1396
 277  567.4254
 278  642.4088
 279  676.829
 280  632.0253
 281  656.3651
 282  667.5894
 283  649.0248
 284  544.9139
 285  588.8299
 286  501.5695
 287  584.5798
 288  626.4052
 289  771.0747
 290  744.86
 291  719.7919
 292  582.0268
 293  520.9008
 294  481.7569
 295  513.4279
 296  538.5425
 297  592.4396
 298  515.0137
 299  591.9283
 300  650.1232
 301  705.097
 302  640.4028
 303  714.2494
 304  842.7045
 305  829.4005
 306  786.4832
 307  770.2732
 308  695.075
 309  764.6266
 310  734.8853
 311  764.9182
 312  669.9861
 313  739.7191
 314  871.9299
 315  750.3282
 316  693.5234
 317  716.5209
 318  855.1469
 319  663.5465
 320  565.9104
 321  558.2042
 322  724.07
 323  799.4693
 324  678.8284
 325  666.972
 326  666.1129
 327  745.9421
 328  779.0132
 329  733.9158
 330  800.8481
 331  726.1502
 332  770.7534
 333  831.1109
 334  942.1475
 335  899.9711
 336  817.6011
 337  763.3325
 338  746.3718
 339  770.1667
 340  707.7617
 341  662.1417
 342  580.5623
 343  637.5651
 344  677.9193
 345  697.729
 346  627.8778
 347  606.4468
 348  560.5023
 349  646.0616
 350  654.4321
 351  643.0803
 352  674.0934
 353  701.5553
 354  717.581
 355  679.606
 356  711.364
 357  628.8054
 358  676.067
 359  804.3744
 360  978.782
 361  1020.736
 362  966.7939
 363  901.6925
 364  738.3252
 365  697.0931
 366  648.7092
 367  694.3793
 368  673.1732
 369  744.7875
 370  736.9601
 371  813.4019
 372  759.5712
 373  705.3091
 374  638.9345
 375  793.5869
 376  860.3293
 377  917.1024
 378  868.4063
 379  829.5607
 380  755.8354
 381  730.752
 382  830.3594
 383  846.3704
 384  746.1527
 385  616.8568
 386  629.9737
 387  766.4325
 388  819.3868
 389  795.0298
 390  720.8898
 391  737.1022
 392  805.3305
 393  835.6806
 394  738.1826
 395  687.0206
 396  655.1946
 397  696.6996
 398  665.1809
 399  614.8334
 400  647.8677
 401  658.8789
 402  707.9419
 403  578.9756
 404  670.0504
 405  697.8625
 406  776.7075
 407  677.136
 408  663.1025
 409  712.0027
 410  761.3929
 411  797.8799
 412  811.3886
 413  748.6646
 414  661.9094
 415  666.5287
 416  716.2577
 417  669.3618
 418  542.0869
 419  492.2137
 420  574.4957
 421  687.426
 422  737.6186
 423  720.82
 424  700.6989
 425  719.5639
 426  777.3554
 427  699.0751
 428  656.8764
 429  708.6531
 430  880.8297
 431  887.0031
 432  715.2399
 433  584.6339
 434  569.1069
 435  567.0947
 436  705.8266
 437  773.2742
 438  843.0773
 439  844.5125
 440  818.6434
 441  674.5209
 442  543.5531
 443  495.6299
 444  555.5406
 445  575.1445
 446  651.8353
 447  725.9716
 448  665.5676
 449  571.3452
 450  569.5842
 451  661.131
 452  666.8599
 453  622.2705
 454  664.14
 455  791.8491
 456  933.73
 457  902.8069
 458  876.2822
 459  904.3107
 460  870.4045
 461  810.8162
 462  711.5334
 463  692.5809
 464  721.9097
 465  757.2263
 466  754.9511
 467  670.8932
 468  700.3162
 469  693.4803
 470  691.8581
 471  736.9139
 472  859.8828
 473  865.428
 474  825.2106
 475  700.0654
 476  642.2781
 477  655.297
 478  654.1105
 479  649.8898
 480  668.6556
 481  708.0342
 482  761.8303
 483  703.5405
 484  643.3841
 485  595.7068
 486  589.8467
 487  619.2294
 488  609.6876
 489  623.319
 490  547.8316
 491  532.6755
 492  657.3506
 493  746.2814
 494  764.1221
 495  745.8922
 496  657.1339
 497  580.9785
 498  545.1318
 499  622.6539
 500  652.5469
 501  664.2369
 502  667.7609
 503  705.3235
 504  747.6108
 505  781.115
 506  692.718
 507  720.0764
 508  708.3684
 509  777.0967
 510  676.2429
 511  605.5657
 512  548.821
 513  595.2509
 514  633.9839
 515  626.81
 516  603.5992
 517  481.2932
 518  439.2747
 519  415.9009
 520  479.5816
 521  524.5106
 522  594.7805
 523  747.6093
 524  745.5123
 525  896.9771
 526  917.4161
 527  951.3411
 528  684.9474
 529  560.9089
 530  505.7285
 531  621.6365
 532  663.5304
 533  645.9825
 534  667.818
 535  727.243
 536  754.8738
 537  744.8274
 538  736.5198
 539  786.2987
 540  756.8063
 541  760.1245
 542  769.1583
 543  799.283
 544  804.9041
 545  741.7389
 546  685.4379
 547  576.1193
 548  609.3988
 549  617.8401
 550  690.4132
 551  783.0926
 552  921.0761
 553  893.1764
 554  727.4682
 555  612.5472
 556  705.9615
 557  831.726
 558  821.5817
 559  810.9789
 560  762.446
 561  793.2769
 562  865.705
 563  932.6503
 564  963.3909
 565  985.5499
 566  1017.133
 567  990.5983
 568  832.8766
 569  704.0191
 570  718.4034
 571  779.8255
 572  803.098
 573  737.9689
 574  705.1169
 575  691.7047
 576  746.0406
 577  807.9898
 578  863.0628
 579  784.3651
 580  705.4273
 581  732.8807
 582  727.8493
 583  720.8447
 584  722.5964
 585  873.4872
 586  1039.189
 587  1109.536
 588  1087.515
 589  1036.502
 590  1129.124
 591  1271.926
 592  1371.747
 593  1311.795
 594  1421.968
 595  1609.563
 596  1756.049
 597  1600.485
 598  1445.175
 599  1363.473
 600  1332.746
 601  1327.718
 602  1206.278
 603  1126.511
 604  929.6448
 605  959.4503
 606  960.434
 607  1051.897
 608  1056.376
 609  1008.646
 610  966.5604
 611  845.401
 612  836.6156
 613  813.0742
 614  836.7411
 615  779.418
 616  790.1333
 617  813.1499
 618  729.2115
 619  713.9883
 620  747.0104
 621  891.6781
 622  819.2411
 623  809.7081
 624  737.4753
 625  764.2912
 626  769.1279
 627  829.1525
 628  909.1581
 629  897.3929
 630  820.2063
 631  823.3176
 632  770.8219
 633  643.0789
 634  532.2686
 635  643.3315
 636  712.8268
 637  834.9141
 638  905.8354
 639  941.2969
 640  835.244
 641  847.9249
 642  857.3357
 643  912.8542
 644  817.9044
 645  796.5956
 646  730.4604
 647  819.4434
 648  798.1066
 649  736.7114
 650  698.2858
 651  711.0718
 652  828.2928
 653  933.2167
 654  975.6188
 655  878.9188
 656  789.4843
 657  764.8161
 658  866.9883
 659  961.1547
 660  950.1749
 661  882.3172
 662  800.541
 663  863.4351
 664  824.2615
 665  794.657
 666  788.6146
 667  768.8693
 668  731.2065
 669  638.3928
 670  664.1495
 671  721.3392
 672  818.7972
 673  885.1673
 674  844.3328
 675  856.6626
 676  914.3267
 677  910.2101
 678  884.5299
 679  722.7712
 680  778.2103
 681  696.7786
 682  758.7846
 683  711.6324
 684  727.4316
 685  708.5823
 686  743.519
 687  771.9486
 688  783.6836
 689  780.6385
 690  768.6566
 691  836.7603
 692  766.5045
 693  714.9836
 694  608.7247
 695  767.5759
 696  910.5051
 697  911.751
 698  876.866
 699  780.3913
 700  797.2252
 701  626.5549
 702  583.6297
 703  671.3555
 704  784.0852
 705  933.1092
 706  848.0192
 707  910.4494
 708  929.1338
 709  891.6859
 710  787.2263
 711  690.4642
 712  754.8925
 713  751.3553
 714  783.5016
 715  798.3341
 716  803.4066
 717  710.5555
 718  618.6116
 719  544.5238
 720  598.584
 721  757.8582
 722  980.1575
 723  1067.196
 724  1035.598
 725  924.9341
 726  827.2453
 727  706.8612
 728  732.7438
 729  716.144
 730  805.4783
 731  745.1712
 732  802.1132
 733  775.996
 734  724.0337
 735  749.2785
 736  704.1259
 737  707.3892
 738  614.4022
 739  706.6609
 740  858.5849
 741  893.3519
 742  869.3672
 743  819.4547
 744  897.7264
 745  879.9349
 746  850.6754
 747  708.7116
 748  683.3957
 749  747.247
 750  800.1412
 751  847.2668
 752  850.2008
 753  855.2037
 754  773.6208
 755  741.1976
 756  810.2357
 757  775.7296
 758  661.3805
 759  586.816
 760  637.0568
 761  768.8493
 762  859.2643
 763  898.2069
 764  905.8358
 765  879.6216
 766  840.6169
 767  650.7067
 768  563.4278
 769  494.5279
 770  597.5337
 771  541.9561
 772  570.2234
 773  563.9764
 774  647.0761
 775  660.8185
 776  785.9125
 777  867.4552
 778  939.2255
 779  875.9956
 780  800.6012
 781  779.6428
 782  747.6156
 783  786.7156
 784  729.5274
 785  716.8538
 786  655.6158
 787  682.0151
 788  694.4348
 789  670.2162
 790  722.9323
 791  758.074
 792  809.493
 793  698.8488
 794  626.774
 795  691.473
 796  710.8373
 797  808.8162
 798  864.5147
 799  900.4788
 800  835.2361
 801  726.7055
 802  707.0401
 803  615.6662
 804  714.6479
 805  793.5273
 806  907.2042
 807  834.6434
 808  780.8997
 809  688.2833
 810  588.6826
 811  500.706
 812  477.3206
 813  443.2825
 814  474.4612
 815  527.8741
 816  607.2779
 817  697.3384
 818  760.8351
 819  789.2936
 820  865.6321
 821  764.5991
 822  698.4958
 823  601.3846
 824  659.7321
 825  719.2562
 826  729.0168
 827  680.3381
 828  711.423
 829  767.3622
 830  825.8858
 831  823.3199
 832  734.6295
 833  731.3401
 834  691.3212
 835  762.556
 836  715.1921
 837  690.4733
 838  697.6129
 839  641.051
 840  668.9037
 841  714.8295
 842  755.7726
 843  906.477
 844  808.3898
 845  889.4513
 846  812.6637
 847  923.3251
 848  911.3429
 849  916.0477
 850  841.4359
 851  817.8797
 852  694.9175
 853  742.5186
 854  681.5372
 855  655.4828
 856  669.4014
 857  748.0906
 858  783.0621
 859  661.221
 860  619.015
 861  670.6057
 862  644.8011
 863  633.8566
 864  616.9249
 865  704.5468
 866  706.7067
 867  735.1395
 868  783.5726
 869  797.2473
 870  761.42
 871  780.3854
 872  800.0532
 873  839.5858
 874  784.538
 875  808.2154
 876  764.7224
 877  801.7749
 878  792.9447
 879  780.1292
 880  686.7377
 881  617.1024
 882  639.4866
 883  703.6537
 884  770.6603
 885  813.6227
 886  887.007
 887  886.6216
 888  857.2
 889  780.1628
 890  717.6437
 891  689.1476
 892  572.4521
 893  634.9612
 894  705.2643
 895  895.9964
 896  1017.723
 897  1040.374
 898  978.9274
 899  816.4755
 900  776.5582
 901  695.5123
 902  782.3217
 903  771.7979
 904  733.7938
 905  609.9257
 906  649.0707
 907  689.1897
 908  709.1269
 909  694.3004
 910  642.9625
 911  829.2714
 912  945.6816
 913  939.2039
 914  736.2667
 915  671.3018
 916  738.2003
 917  823.1534
 918  850.1491
 919  801.0647
 920  793.8154
 921  841.6866
 922  917.325
 923  924.3052
 924  797.3434
 925  715.7755
 926  684.4426
 927  734.5275
 928  784.7272
 929  768.796
 930  761.2764
 931  656.579
 932  671.6325
 933  709.2369
 934  816.1042
 935  819.0872
 936  737.6724
 937  703.7609
 938  729.0687
 939  759.2148
 940  779.2519
 941  764.613
 942  777.7222
 943  750.6867
 944  739.4807
 945  679.6821
 946  737.7255
 947  748.8989
 948  688.9626
 949  650.5381
 950  636.3196
 951  748.6764
 952  694.3392
 953  719.6945
 954  678.1633
 955  785.7974
 956  822.7193
 957  740.9303
 958  653.1309
 959  499.4492
 960  477.5367
 961  571.6438
 962  708.1738
 963  674.6093
 964  668.0609
 965  762.2515
 966  819.3545
 967  769.9811
 968  800.0757
 969  816.7151
 970  742.8014
 971  622.0217
 972  578.7623
 973  624.2145
 974  735.5877
 975  717.2609
 976  682.8638
 977  569.2349
 978  569.9687
 979  528.5507
 980  623.479
 981  587.9292
 982  566.8715
 983  587.6316
 984  673.5158
 985  755.7221
 986  730.2236
 987  618.0287
 988  568.9905
 989  622.7891
 990  710.3188
 991  677.001
 992  558.1264
 993  586.0068
 994  609.1508
 995  714.6105
 996  691.157
 997  699.0782
 998  718.8042
 999  822.9587
1000  773.3534
1001  681.5231
1002  602.0579
1003  718.8125
1004  819.962
1005  922.8174
1006  908.919
1007  799.0057
1008  711.654
1009  765.8646
1010  775.182
1011  752.9263
1012  742.9828
1013  708.2098
1014  690.5305
1015  671.8088
1016  772.3378
1017  770.6122
1018  730.4146
1019  639.5684
1020  616.962
1021  644.6125
1022  635.3092
1023  700.6626
