# Input file       =  1212476026.101743_cleaned.dat
# Candidate        =  PSR_0332+5434
# Telescope        =  AR
# Epoch_topo       =  58277.287559047953
# Epoch_bary       =  N/A
# T_sample         =  0.002
# Data Folded      =  7340032
# Data Avg         =  0.0420265499776507
# Data StdDev      =  1.00008604527323 
# Profile Bins     =  512
# Profile Avg      =  602.449718008332 
# Profile StdDev   =  119.743338838596 
# Reduced chi-sqr  =  1.298
# Prob(Noise)      <  5.9e-06   (~4.4 sigma)
# P_topo (ms)      =  714.509888392988  +/- 0.000241
# P'_topo (s/s)    =  -0                +/- 1.27e-10
# P''_topo (s/s^2) =  0                 +/- 5.61e-14
# P_bary (ms)      =  N/A
# P'_bary (s/s)    =  N/A
# P''_bary (s/s^2) =  N/A
# P_orb (s)        =  N/A
# asin(i)/c (s)    =  N/A
# eccentricity     =  N/A
# w (rad)          =  N/A
# T_peri           =  N/A
######################################################
   0  1435.833
   1  1225.664
   2  1038.168
   3  874.1655
   4  682.8559
   5  588.9775
   6  635.1282
   7  558.0312
   8  569.8882
   9  669.5974
  10  656.4939
  11  618.5886
  12  618.4289
  13  617.538
  14  542.2142
  15  614.8911
  16  687.1908
  17  597.9244
  18  603.8548
  19  651.4409
  20  750.8951
  21  612.2609
  22  528.0646
  23  493.0227
  24  487.4042
  25  540.8766
  26  598.9742
  27  660.0861
  28  600.6076
  29  620.1064
  30  776.5598
  31  673.2861
  32  644.9473
  33  622.6226
  34  531.7928
  35  633.295
  36  659.6813
  37  653.7416
  38  542.3686
  39  542.0687
  40  641.3088
  41  676.4071
  42  517.9135
  43  556.6972
  44  553.1202
  45  635.1951
  46  635.6991
  47  544.0977
  48  543.5278
  49  607.9932
  50  653.0527
  51  664.9955
  52  654.5171
  53  630.239
  54  706.4781
  55  514.5587
  56  381.6694
  57  436.5504
  58  596.9825
  59  663.8514
  60  715.0029
  61  700.2114
  62  738.0537
  63  650.4825
  64  604.069
  65  518.2781
  66  560.9658
  67  625.5034
  68  638.6668
  69  616.7997
  70  597.7657
  71  574.0002
  72  613.3636
  73  557.3817
  74  576.6186
  75  585.7688
  76  661.3692
  77  628.3777
  78  576.8858
  79  664.6076
  80  553.7742
  81  507.7282
  82  640.1895
  83  572.0469
  84  636.7869
  85  589.0553
  86  563.2112
  87  641.2108
  88  697.4665
  89  630.4328
  90  633.2017
  91  581.8235
  92  617.4949
  93  589.0034
  94  543.2723
  95  607.5504
  96  577.5094
  97  534.032
  98  514.9107
  99  626.6112
 100  622.1443
 101  668.6479
 102  695.5919
 103  640.8831
 104  575.1534
 105  670.5393
 106  686.5199
 107  714.6918
 108  590.4682
 109  671.1237
 110  627.4672
 111  445.132
 112  555.2467
 113  660.8701
 114  725.6846
 115  607.3007
 116  621.0906
 117  651.4597
 118  565.46
 119  615.2669
 120  603.1093
 121  556.8737
 122  540.3376
 123  601.4135
 124  679.7767
 125  595.4196
 126  613.3463
 127  658.3295
 128  693.6294
 129  677.321
 130  679.0007
 131  620.3688
 132  683.4751
 133  664.1484
 134  631.6573
 135  588.5454
 136  673.4275
 137  626.5963
 138  595.7831
 139  600.3344
 140  630.8723
 141  632.0052
 142  583.8443
 143  640.9495
 144  665.6282
 145  655.5894
 146  732.2961
 147  743.0623
 148  713.4598
 149  655.3422
 150  718.425
 151  613.9528
 152  595.5231
 153  575.6575
 154  565.4701
 155  514.2987
 156  450.5185
 157  439.5325
 158  562.619
 159  577.7935
 160  597.5228
 161  685.4143
 162  585.7972
 163  489.5846
 164  602.0582
 165  675.7212
 166  682.0854
 167  644.6801
 168  622.1138
 169  582.2722
 170  732.7654
 171  700.9477
 172  666.7195
 173  618.1992
 174  662.9683
 175  696.8135
 176  671.4337
 177  511.0644
 178  592.3976
 179  705.7234
 180  623.5821
 181  651.0657
 182  695.7327
 183  691.3516
 184  676.5286
 185  686.7598
 186  645.918
 187  696.0475
 188  660.924
 189  696.8655
 190  744.9686
 191  725.5507
 192  690.6454
 193  738.934
 194  781.1492
 195  717.2922
 196  768.8483
 197  717.9843
 198  643.1071
 199  616.2743
 200  676.9559
 201  703.7935
 202  685.584
 203  683.9252
 204  699.7474
 205  682.0134
 206  728.095
 207  729.2324
 208  516.3323
 209  569.6605
 210  745.6108
 211  686.2042
 212  681.5356
 213  683.1065
 214  644.2047
 215  604.9529
 216  562.2953
 217  582.9279
 218  483.6662
 219  568.9514
 220  567.8157
 221  593.4707
 222  556.9966
 223  697.8851
 224  667.3121
 225  597.8534
 226  620.6049
 227  665.6251
 228  670.6172
 229  589.7512
 230  585.1728
 231  503.8709
 232  478.145
 233  401.0862
 234  413.0108
 235  570.8208
 236  633.5432
 237  669.7062
 238  684.8875
 239  564.9778
 240  558.2296
 241  575.309
 242  595.3405
 243  591.4412
 244  600.2448
 245  689.6958
 246  677.3918
 247  589.4387
 248  573.2169
 249  583.4986
 250  575.8033
 251  568.5331
 252  666.9525
 253  582.9526
 254  519.832
 255  510.133
 256  541.9647
 257  484.0813
 258  502.9388
 259  509.7872
 260  421.0125
 261  460.9166
 262  529.6456
 263  519.3518
 264  562.6039
 265  612.5144
 266  495.7949
 267  381.8213
 268  426.1313
 269  464.6597
 270  593.7379
 271  524.2871
 272  548.4491
 273  639.7829
 274  476.118
 275  506.7897
 276  552.2957
 277  599.0011
 278  634.7056
 279  660.5162
 280  661.1479
 281  617.4458
 282  593.0665
 283  502.4074
 284  576.7731
 285  553.9354
 286  539.2938
 287  620.0752
 288  721.8912
 289  658.5847
 290  546.3193
 291  510.5356
 292  586.2295
 293  520.9628
 294  473.8859
 295  576.7803
 296  648.4965
 297  593.5121
 298  532.9178
 299  640.3746
 300  606.9084
 301  447.8317
 302  441.2173
 303  509.7602
 304  589.4505
 305  564.1797
 306  476.757
 307  540.9653
 308  553.1036
 309  522.7621
 310  614.1448
 311  616.8989
 312  704.6129
 313  720.8741
 314  628.1809
 315  559.779
 316  504.0864
 317  497.1614
 318  414.0602
 319  626.9435
 320  660.2713
 321  610.8229
 322  596.3817
 323  573.0287
 324  623.9739
 325  497.8146
 326  431.4538
 327  541.0259
 328  663.2773
 329  708.7553
 330  597.489
 331  565.1235
 332  706.527
 333  665.1703
 334  600.4612
 335  595.267
 336  539.5205
 337  630.5916
 338  651.2663
 339  525.3948
 340  517.9582
 341  463.1176
 342  547.4092
 343  619.5397
 344  647.3634
 345  765.6339
 346  667.9246
 347  574.4467
 348  566.2241
 349  717.0128
 350  661.2202
 351  602.2715
 352  606.0908
 353  665.8447
 354  635.1277
 355  719.8762
 356  738.618
 357  578.4467
 358  536.1339
 359  531.5498
 360  473.3816
 361  616.6554
 362  594.8666
 363  664.9683
 364  650.9803
 365  709.6385
 366  651.9903
 367  639.2767
 368  685.381
 369  639.4724
 370  571.5078
 371  665.5557
 372  588.72
 373  617.8587
 374  622.7099
 375  607.009
 376  536.3892
 377  538.108
 378  513.8917
 379  599.1779
 380  570.4302
 381  579.5936
 382  646.7153
 383  556.3131
 384  590.3482
 385  709.1958
 386  661.6014
 387  610.0403
 388  597.3757
 389  668.2412
 390  559.0406
 391  474.2982
 392  556.4791
 393  574.908
 394  640.4356
 395  564.2
 396  547.8674
 397  689.5966
 398  697.9663
 399  581.6331
 400  562.5009
 401  714.4681
 402  594.6876
 403  449.3763
 404  554.2252
 405  694.3838
 406  659.7682
 407  536.9355
 408  601.2971
 409  618.283
 410  619.2169
 411  554.3134
 412  552.8671
 413  576.4206
 414  521.7233
 415  610.8513
 416  455.1078
 417  489.8909
 418  617.1582
 419  613.5203
 420  584.8985
 421  536.9108
 422  558.8336
 423  557.3059
 424  582.9262
 425  535.8243
 426  503.8606
 427  580.3919
 428  486.7069
 429  487.3755
 430  427.698
 431  468.9081
 432  562.6817
 433  458.6842
 434  300.9865
 435  520.2601
 436  449.0045
 437  485.3899
 438  425.7625
 439  470.8216
 440  545.6056
 441  578.6866
 442  635.2654
 443  481.4486
 444  483.6198
 445  516.8361
 446  582.4465
 447  506.0051
 448  535.8995
 449  555.7264
 450  452.0347
 451  487.2378
 452  529.8505
 453  470.9352
 454  501.8891
 455  492.4348
 456  503.1027
 457  537.9888
 458  539.6713
 459  412.5211
 460  457.2675
 461  512.9698
 462  518.1635
 463  568.1254
 464  548.9022
 465  553.3921
 466  598.4105
 467  577.6166
 468  569.0029
 469  475.7704
 470  591.647
 471  483.6995
 472  414.2112
 473  545.8905
 474  598.2236
 475  550.2227
 476  502.9851
 477  537.7461
 478  576.7955
 479  626.1663
 480  664.2645
 481  571.4
 482  449.7916
 483  505.9193
 484  619.6577
 485  556.299
 486  612.3294
 487  660.9318
 488  682.5692
 489  625.4289
 490  470.8932
 491  494.4189
 492  544.5915
 493  589.7629
 494  703.3102
 495  600.3776
 496  582.3897
 497  615.2415
 498  586.5684
 499  671.7985
 500  606.4318
 501  544.7557
 502  666.7077
 503  601.5701
 504  568.5381
 505  635.7426
 506  700.4929
 507  762.4453
 508  752.5892
 509  857.0411
 510  1017.207
 511  1219.56
