# Input file       =  1212202951.119541_cleaned.dat
# Candidate        =  PSR_0332+5434
# Telescope        =  AR
# Epoch_topo       =  58274.126968976168
# Epoch_bary       =  N/A
# T_sample         =  0.002
# Data Folded      =  7208960
# Data Avg         =  0.297321679172191
# Data StdDev      =  6.07720551365003 
# Profile Bins     =  1024
# Profile Avg      =  2093.14154923417 
# Profile StdDev   =  509.906153189167 
# Reduced chi-sqr  =  1.661
# Prob(Noise)      <  1.94e-36   (~12.6 sigma)
# P_topo (ms)      =  714.512924506954  +/- 3.44e-05
# P'_topo (s/s)    =  -0                +/- 1.85e-11
# P''_topo (s/s^2) =  0                 +/- 8.31e-15
# P_bary (ms)      =  N/A
# P'_bary (s/s)    =  N/A
# P''_bary (s/s^2) =  N/A
# P_orb (s)        =  N/A
# asin(i)/c (s)    =  N/A
# eccentricity     =  N/A
# w (rad)          =  N/A
# T_peri           =  N/A
######################################################
   0  2200.509
   1  1947.885
   2  1856.376
   3  1795.349
   4  1749.244
   5  1777.559
   6  1909.986
   7  1906.297
   8  1946.596
   9  1875.766
  10  1802.162
  11  1735.08
  12  1587.65
  13  1615.333
  14  1640.761
  15  1642.909
  16  1466.17
  17  1563.423
  18  1517.142
  19  1415.91
  20  1377.069
  21  1453.075
  22  1388.13
  23  1427.157
  24  1603.808
  25  1710.877
  26  1856.961
  27  1959.122
  28  2034.888
  29  2107.013
  30  2332.523
  31  2312.09
  32  2415.002
  33  2222.982
  34  2072.489
  35  1962.49
  36  1790.165
  37  1671.909
  38  1712.983
  39  1867.758
  40  2097.888
  41  2086.442
  42  2112.391
  43  1966.084
  44  1929.319
  45  1890.537
  46  2174.833
  47  2268.355
  48  2191.317
  49  2037.83
  50  1777.31
  51  1353.847
  52  1170.256
  53  948.8872
  54  1098.148
  55  1001.145
  56  1332.241
  57  1642.444
  58  1752.516
  59  1823.031
  60  2030.033
  61  2278.27
  62  2281.452
  63  2418.508
  64  2643.646
  65  2633.458
  66  2363.171
  67  2153.968
  68  1850.035
  69  1699.475
  70  1873.828
  71  1848.332
  72  1699.676
  73  1806.403
  74  1753.367
  75  1945.324
  76  1928.223
  77  1879.013
  78  1851.395
  79  1971.733
  80  1947.909
  81  2110.081
  82  2015.218
  83  1782.294
  84  1626.269
  85  1540.104
  86  1359.867
  87  1265.552
  88  1289.034
  89  1423.137
  90  1621.284
  91  1902.312
  92  1938.016
  93  2060.228
  94  2101.899
  95  2001.61
  96  2269.596
  97  2681.882
  98  2606.722
  99  2450.881
 100  2693.632
 101  2481.389
 102  2298.878
 103  2089.107
 104  2105.655
 105  2110.433
 106  2124.983
 107  1953.3
 108  1988.074
 109  1754.837
 110  1697.123
 111  1981.729
 112  2325.154
 113  2179.456
 114  2327.597
 115  2179.624
 116  2022.606
 117  1597.407
 118  1534.541
 119  1430.498
 120  1469.845
 121  1586.45
 122  1645.852
 123  1587.97
 124  1543.233
 125  1613.383
 126  1728.273
 127  1993.835
 128  2121.369
 129  2567.608
 130  2730.436
 131  2591.629
 132  2526.509
 133  2577.509
 134  2404.867
 135  2247.047
 136  2085.027
 137  2048.4
 138  1844.796
 139  1807.925
 140  1914.459
 141  1990.257
 142  1803.073
 143  1763.067
 144  1732.267
 145  1836.262
 146  1909.392
 147  2078.724
 148  1992.362
 149  1816.904
 150  1705.31
 151  1777.022
 152  1956.777
 153  1815.924
 154  1867.42
 155  1716.935
 156  1602.529
 157  1521.736
 158  1567.664
 159  1674.853
 160  1945.702
 161  2106.308
 162  2295.548
 163  2327.933
 164  2373.126
 165  2431.264
 166  2321.792
 167  2433.207
 168  2216.067
 169  1956.267
 170  1956.52
 171  1904.719
 172  2097.896
 173  2065.471
 174  1925.65
 175  1822.872
 176  1874.364
 177  1838.062
 178  1915.105
 179  2104.16
 180  2084.253
 181  2196.927
 182  2119.465
 183  1902.907
 184  1824.422
 185  1651.701
 186  1485.77
 187  1503.438
 188  1643.979
 189  1718.202
 190  1813.13
 191  1911.162
 192  1805.469
 193  1864.477
 194  2291.906
 195  2433.027
 196  2494.955
 197  2585.629
 198  2384.279
 199  2338.398
 200  2293.088
 201  2000.684
 202  1918.567
 203  1927.5
 204  1950.135
 205  1948.91
 206  2105.995
 207  2036.873
 208  2131.009
 209  2026.91
 210  2009.382
 211  2091.559
 212  2402.979
 213  2283.073
 214  2241.113
 215  1937.194
 216  1890.774
 217  1607.606
 218  1534.955
 219  1272.761
 220  1215.215
 221  1280.344
 222  1480.803
 223  1755.07
 224  1981.515
 225  1989.689
 226  2147.327
 227  2359.305
 228  2416.92
 229  2471.431
 230  2593.954
 231  2509.55
 232  2393.608
 233  2161.839
 234  1973.394
 235  1929.854
 236  1865.94
 237  2006.205
 238  2053.875
 239  2027.229
 240  1872.85
 241  1825.121
 242  1725.559
 243  1907.548
 244  2077.253
 245  2321.897
 246  2257.617
 247  2106.689
 248  2002.765
 249  1917.253
 250  1486.293
 251  1379.897
 252  1426.92
 253  1688.283
 254  1564.671
 255  1480.423
 256  1584.749
 257  1801.586
 258  1863.307
 259  1887.68
 260  2066.508
 261  2289.906
 262  2452.776
 263  2529.944
 264  2522.977
 265  2442.301
 266  2308.297
 267  2354.016
 268  2079.174
 269  1867.466
 270  1869.828
 271  1839.771
 272  1838.313
 273  1893.302
 274  1779.16
 275  1782.976
 276  1926.333
 277  2016.383
 278  2273.756
 279  2283.942
 280  2164.762
 281  2113.522
 282  2037.984
 283  1753.623
 284  1712.663
 285  1716.87
 286  1701.605
 287  1695.949
 288  1749.104
 289  1711.453
 290  1726.754
 291  1878.274
 292  1876.178
 293  2137.577
 294  2427.058
 295  2606.477
 296  2748.345
 297  2861.605
 298  2613.773
 299  2229.025
 300  2320.585
 301  2183.933
 302  2181.637
 303  2182.688
 304  2008.292
 305  2147.135
 306  1972.514
 307  1707.73
 308  1709.716
 309  1774.289
 310  2014.275
 311  2202.455
 312  2292.595
 313  2174.194
 314  2083.56
 315  1965.649
 316  1772.466
 317  1621.748
 318  1570.591
 319  1618.805
 320  1647.517
 321  1785.446
 322  1609.394
 323  1783.387
 324  1846.966
 325  1887.742
 326  2137.873
 327  2489.042
 328  2538.276
 329  2577.154
 330  2510.644
 331  2334.979
 332  2172.616
 333  2149.506
 334  2111.205
 335  2097.357
 336  2083.393
 337  2008.103
 338  2025.51
 339  1875.949
 340  1876.635
 341  1926.16
 342  2070.408
 343  2055.212
 344  2043.369
 345  2178.95
 346  2192.435
 347  2142.776
 348  1848.105
 349  1758.57
 350  1545.009
 351  1543.888
 352  1516.132
 353  1691.375
 354  1779.153
 355  1834.098
 356  2084.866
 357  2252.428
 358  2314.708
 359  2356.85
 360  2586.524
 361  2689.025
 362  2547.1
 363  2528.783
 364  2629.622
 365  2521.668
 366  2256.642
 367  2159.222
 368  1982.369
 369  1888.282
 370  2104.41
 371  2238.661
 372  2111.911
 373  2093.82
 374  2010.324
 375  2146.32
 376  2407.356
 377  2444.886
 378  2611.336
 379  2459.853
 380  2282.397
 381  2129.219
 382  1972.378
 383  1641.683
 384  1625.948
 385  1714.394
 386  1850.041
 387  1920.627
 388  2020.375
 389  2090.919
 390  2225.739
 391  2472.956
 392  2483.017
 393  2529.374
 394  2770.097
 395  2803.455
 396  2768.854
 397  2640.515
 398  2427.884
 399  2391.789
 400  2519.971
 401  2384.125
 402  2271.7
 403  2298.884
 404  2159.193
 405  2270.76
 406  2191.083
 407  2217.386
 408  2292.493
 409  2397.73
 410  2427.771
 411  2442.354
 412  2176.123
 413  1906.714
 414  1850.991
 415  1923.301
 416  1784.81
 417  1606.206
 418  1761.258
 419  1755.767
 420  1989.071
 421  2031.955
 422  1996.967
 423  2144.747
 424  2411.87
 425  2554.689
 426  2562.86
 427  2763.101
 428  2689.053
 429  2947.959
 430  2952.274
 431  2795.833
 432  2433.924
 433  2205.593
 434  2152.647
 435  2247.355
 436  2377.106
 437  2195.891
 438  2359.591
 439  2291.27
 440  2268.764
 441  2187.808
 442  2127.256
 443  2335.736
 444  2417.138
 445  2422.424
 446  2251.962
 447  1948.015
 448  1775.941
 449  1656.116
 450  1571.605
 451  1610.041
 452  1712.03
 453  1915.79
 454  2033.776
 455  2031.114
 456  2032.043
 457  2091.284
 458  2129.408
 459  2290.9
 460  2581.026
 461  2661.603
 462  2700.805
 463  2588.816
 464  2535.091
 465  2307.693
 466  2149.093
 467  2369.804
 468  2410.512
 469  2448.611
 470  2344.893
 471  2274.893
 472  2135.437
 473  2118.641
 474  1881.27
 475  1993.125
 476  2231.503
 477  2274.659
 478  2191.975
 479  2040.76
 480  1620.678
 481  1629.918
 482  1716.106
 483  1980.372
 484  1867.582
 485  1770.136
 486  1706.935
 487  1670.525
 488  1890.516
 489  1861.894
 490  2170.804
 491  2249.767
 492  2396.202
 493  2634.926
 494  2994.557
 495  2810.695
 496  2538.449
 497  2421.43
 498  2104.462
 499  1839.591
 500  1854.528
 501  1916.499
 502  2056.543
 503  2153.195
 504  2147.245
 505  2178.222
 506  2142.483
 507  1947.63
 508  2081.915
 509  2297.517
 510  2248.499
 511  2279.419
 512  2218.907
 513  2064.401
 514  1953.142
 515  1826.591
 516  1787.649
 517  1645.071
 518  1815.167
 519  1772.771
 520  1774.827
 521  1888.397
 522  1947.661
 523  2220.311
 524  2293.417
 525  2430.372
 526  2668.211
 527  2796.664
 528  2509.077
 529  2413.907
 530  2420.234
 531  2346.606
 532  2336.033
 533  2277.023
 534  2148.783
 535  2166.094
 536  2227.31
 537  2206.409
 538  2089.058
 539  2015.929
 540  2072.306
 541  2173.264
 542  2178.893
 543  2205.855
 544  2398.703
 545  2272.109
 546  2138.943
 547  1970.951
 548  1970.961
 549  1928.937
 550  1856.005
 551  1993.152
 552  1872.847
 553  2047.146
 554  2289.815
 555  2314.53
 556  2252.263
 557  2382.856
 558  2674.215
 559  2905.594
 560  2927.498
 561  2860.692
 562  2716.945
 563  2597.427
 564  2705.18
 565  2541.875
 566  2381.916
 567  2263.6
 568  2238.466
 569  2220.661
 570  2220.743
 571  2175.335
 572  2121.481
 573  2187.373
 574  2247.549
 575  2433.725
 576  2629.09
 577  2624.525
 578  2438.784
 579  2129.989
 580  1723.646
 581  1620.839
 582  1525.719
 583  1668.038
 584  1796.145
 585  1874.904
 586  1899.242
 587  2098.951
 588  2336.364
 589  2445.913
 590  2750.058
 591  3045.051
 592  3310.462
 593  3431.662
 594  3625.974
 595  3324.312
 596  3213.103
 597  3302.507
 598  3187.911
 599  2934.044
 600  2887.482
 601  2661.159
 602  2629.343
 603  2367.041
 604  2171.99
 605  2157.556
 606  2286.49
 607  2368.126
 608  2607.365
 609  2639.856
 610  2342.854
 611  2188.752
 612  2145.808
 613  2030.969
 614  1937.716
 615  1815.484
 616  1842.679
 617  1759.927
 618  1757.785
 619  1837.203
 620  2162.339
 621  2261.461
 622  2193.049
 623  2470.146
 624  2788.687
 625  2812.474
 626  2964.084
 627  3126.938
 628  2886.282
 629  2580.533
 630  2436.511
 631  2325.06
 632  2263.877
 633  2305.054
 634  2211.754
 635  2280.435
 636  2219.308
 637  2230.902
 638  2298.325
 639  2230.387
 640  2184.692
 641  2295.563
 642  2405.624
 643  2344.423
 644  2063.53
 645  1990.18
 646  1932.24
 647  1769.714
 648  1653.494
 649  1760.091
 650  1906.277
 651  2058.507
 652  1893.261
 653  1824.256
 654  1699.017
 655  1754.984
 656  2075.291
 657  2514.796
 658  2554.54
 659  2714.75
 660  2752.643
 661  2841.676
 662  2599.693
 663  2311.871
 664  2240.642
 665  2228.649
 666  2267.042
 667  2288.423
 668  2218.519
 669  2074.436
 670  2252.25
 671  2237.389
 672  2059.371
 673  1963.944
 674  2007.806
 675  2180.088
 676  2172.411
 677  1989.587
 678  1881.737
 679  1991.197
 680  2069.019
 681  2113.62
 682  2031.181
 683  1879.423
 684  1854.35
 685  1951.893
 686  1947.889
 687  2215.636
 688  2475.134
 689  2668.499
 690  2716.059
 691  2782.835
 692  2621.517
 693  2443.074
 694  2523.067
 695  2386.045
 696  2449.32
 697  2518.005
 698  2218.43
 699  2087.036
 700  2162.797
 701  2345.01
 702  2479.958
 703  2540.449
 704  2297.514
 705  2140.74
 706  2164.772
 707  2169.757
 708  2377.867
 709  2440.006
 710  2371.117
 711  2281.331
 712  2054.699
 713  1899.985
 714  1924.597
 715  1958.949
 716  1795.856
 717  1855.324
 718  2039.14
 719  2155.129
 720  2420.268
 721  2646.533
 722  2766.411
 723  2699.241
 724  2993.746
 725  2867.738
 726  2739.796
 727  2621.866
 728  2361.859
 729  2407.524
 730  2223.806
 731  2161.586
 732  2180.229
 733  2385.521
 734  2357.775
 735  2346.621
 736  2268.381
 737  2186.065
 738  2300.848
 739  2398.091
 740  2528.131
 741  2642.914
 742  2537.649
 743  2317.371
 744  2172.22
 745  2083.396
 746  2036.767
 747  1792.587
 748  1705.223
 749  1605.14
 750  1790.401
 751  1952.16
 752  2089.199
 753  2280.908
 754  2569.46
 755  2699.676
 756  2823.801
 757  3108.416
 758  3137.908
 759  3197.463
 760  3113.806
 761  2952.969
 762  2675.04
 763  2272.605
 764  2379.355
 765  2376.713
 766  2299.555
 767  2256.182
 768  2331.77
 769  2404.662
 770  2320.453
 771  2231.664
 772  2208.17
 773  2386.169
 774  2379.743
 775  2447.97
 776  2366.157
 777  2084.408
 778  1928.43
 779  1822.387
 780  1750.781
 781  1771.151
 782  1764.519
 783  1926.678
 784  1993.005
 785  2046.043
 786  1965.31
 787  2025.292
 788  2029.948
 789  2113.495
 790  2377.557
 791  2638.688
 792  2691.253
 793  2699.549
 794  2891.982
 795  2611.519
 796  2178.987
 797  2021.335
 798  2015.829
 799  2155.916
 800  2255.653
 801  2110.094
 802  2045.557
 803  1923.473
 804  1758.53
 805  2029.548
 806  2226.549
 807  2280.62
 808  2292.335
 809  2273.697
 810  2050.911
 811  1893.427
 812  1703.826
 813  1784.435
 814  1639.503
 815  1681.372
 816  1546.576
 817  1676.369
 818  1880.845
 819  1886.608
 820  2121.683
 821  2252.304
 822  2241.148
 823  2347.123
 824  2474.434
 825  2217.558
 826  2083.57
 827  2250.848
 828  2120.921
 829  2048.487
 830  1987.041
 831  1980.137
 832  1929.369
 833  1938.506
 834  1962.632
 835  2084.485
 836  1920.283
 837  1873.546
 838  1929.189
 839  1876.129
 840  1789.363
 841  1794.624
 842  1763.177
 843  1668.73
 844  1620.535
 845  1447.279
 846  1360.985
 847  1367.824
 848  1627.004
 849  1741.624
 850  1838.435
 851  1858.7
 852  1689.108
 853  1749.123
 854  1841.212
 855  2014.753
 856  2253.866
 857  2390.182
 858  2341.688
 859  2119.824
 860  2032.075
 861  1895.409
 862  1875.742
 863  1907.294
 864  2188.732
 865  2364.685
 866  2218.7
 867  2215.224
 868  2151.612
 869  2026.19
 870  2029.835
 871  1887.699
 872  1869.385
 873  1907.141
 874  1908.776
 875  1973.298
 876  1953.672
 877  1915.143
 878  1956.633
 879  1769.936
 880  1675.322
 881  1747.922
 882  1848.993
 883  1759.777
 884  1742.727
 885  1950.221
 886  2124.187
 887  2274.703
 888  2421.353
 889  2544.72
 890  2587.436
 891  2555.62
 892  2380.457
 893  2263.584
 894  2422.062
 895  2356.397
 896  2273.508
 897  2177.133
 898  2059.158
 899  2077.189
 900  2183.824
 901  2048.553
 902  2141.322
 903  2266.437
 904  2229.087
 905  2183.157
 906  2244.208
 907  2157.919
 908  2232.381
 909  2041.047
 910  1914.928
 911  1718.868
 912  1804.047
 913  1622.288
 914  1780.86
 915  1850.97
 916  1984.691
 917  2072.664
 918  2266.762
 919  2172.458
 920  2143.024
 921  2365.194
 922  2528.381
 923  2665.888
 924  2669.119
 925  2482.032
 926  2481.818
 927  2471.137
 928  2332.872
 929  2272.22
 930  2090.076
 931  1875.892
 932  1942.878
 933  1939.033
 934  1744.06
 935  1803.731
 936  1983.551
 937  2047.815
 938  2128.363
 939  2221.531
 940  2208.778
 941  2212.438
 942  2058.474
 943  1886.757
 944  1552.177
 945  1516.256
 946  1651.897
 947  1722.018
 948  1666.678
 949  1601.367
 950  1960.398
 951  2183.778
 952  2217.946
 953  2204.456
 954  2426.808
 955  2373.568
 956  2471.918
 957  2658.779
 958  2653.579
 959  2428.136
 960  2170.008
 961  2177.551
 962  2047.37
 963  1836.211
 964  1828.512
 965  1902.193
 966  1909.839
 967  1885.648
 968  1922.228
 969  1893.454
 970  1971.49
 971  2113.249
 972  2255.694
 973  2177.987
 974  1825.774
 975  1706.872
 976  1719.86
 977  1518.775
 978  1323.145
 979  1333.474
 980  1496.492
 981  1594.94
 982  1562.671
 983  1662.73
 984  1830.674
 985  1959.401
 986  1965.848
 987  2106.756
 988  2154.906
 989  2237.32
 990  2228.113
 991  2314.01
 992  2052.368
 993  1873.729
 994  2111.915
 995  2010.067
 996  1998.339
 997  1954.397
 998  1847.038
 999  1713.6
1000  1699.542
1001  1683.418
1002  1699.417
1003  1746.634
1004  1768.335
1005  1784.294
1006  1926.063
1007  1520.113
1008  1417.157
1009  1265.534
1010  1245.392
1011  1326.207
1012  1381.56
1013  1405.146
1014  1387.044
1015  1480.383
1016  1410.391
1017  1372.862
1018  1371.867
1019  1501.47
1020  1778.18
1021  1997.551
1022  1991.45
1023  2004.269
