# Input file       =  1212719885.108598_cleaned.dat
# Candidate        =  PSR_0332+5434
# Telescope        =  AR
# Epoch_topo       =  58280.110001256922
# Epoch_bary       =  N/A
# T_sample         =  0.002
# Data Folded      =  7143424
# Data Avg         =  0.0469955437916299
# Data StdDev      =  1.00002888013482 
# Profile Bins     =  512
# Profile Avg      =  655.569599100926 
# Profile StdDev   =  118.121995762512 
# Reduced chi-sqr  =  1.119
# Prob(Noise)      <  0.0324   (~1.8 sigma)
# P_topo (ms)      =  714.507179151031  +/- 0.000278
# P'_topo (s/s)    =  -0                +/- 1.5e-10
# P''_topo (s/s^2) =  0                 +/- 6.83e-14
# P_bary (ms)      =  N/A
# P'_bary (s/s)    =  N/A
# P''_bary (s/s^2) =  N/A
# P_orb (s)        =  N/A
# asin(i)/c (s)    =  N/A
# eccentricity     =  N/A
# w (rad)          =  N/A
# T_peri           =  N/A
######################################################
   0  832.0421
   1  702.6523
   2  628.545
   3  691.5391
   4  614.4342
   5  619.876
   6  607.8056
   7  728.5818
   8  707.9348
   9  631.759
  10  729.7294
  11  615.6757
  12  702.5093
  13  746.2096
  14  699.7768
  15  779.2669
  16  896.2501
  17  759.3915
  18  620.461
  19  646.1385
  20  741.8987
  21  736.3858
  22  618.6995
  23  684.3674
  24  677.7676
  25  631.6298
  26  685.3176
  27  582.8665
  28  621.3412
  29  656.6882
  30  651.3297
  31  775.9191
  32  713.389
  33  717.472
  34  788.1901
  35  797.113
  36  803.3972
  37  788.5538
  38  848.897
  39  628.8851
  40  531.8657
  41  651.4361
  42  696.7237
  43  729.1671
  44  750.782
  45  684.7616
  46  691.5782
  47  758.5188
  48  712.1704
  49  695.5914
  50  728.551
  51  719.9709
  52  646.0303
  53  648.8312
  54  708.0208
  55  647.1852
  56  670.2181
  57  735.5441
  58  626.3572
  59  686.2894
  60  628.4764
  61  594.6725
  62  621.4996
  63  579.9433
  64  590.4435
  65  613.2323
  66  762.7646
  67  619.1129
  68  523.3826
  69  633.4142
  70  665.6396
  71  651.3813
  72  506.9748
  73  597.5295
  74  593.7245
  75  519.3047
  76  521.3502
  77  634.6431
  78  583.4932
  79  615.8296
  80  793.8467
  81  743.9456
  82  616.5189
  83  542.7162
  84  547.5892
  85  614.7755
  86  641.4631
  87  643.8733
  88  567.8558
  89  594.5992
  90  619.6202
  91  734.7678
  92  775.8891
  93  735.024
  94  585.446
  95  582.2947
  96  672.8352
  97  597.7659
  98  633.8744
  99  619.597
 100  620.8354
 101  695.1972
 102  706.6589
 103  684.9924
 104  755.2131
 105  757.0538
 106  788.1983
 107  839.3563
 108  647.9996
 109  572.8979
 110  560.1413
 111  604.4211
 112  722.5358
 113  693.2659
 114  528.2028
 115  568.0745
 116  673.007
 117  742.774
 118  795.0596
 119  851.6067
 120  776.1754
 121  615.4807
 122  666.2678
 123  639.3572
 124  693.9358
 125  662.8928
 126  638.6285
 127  817.9136
 128  784.0837
 129  713.7041
 130  628.6464
 131  713.8485
 132  727.8453
 133  689.194
 134  632.8007
 135  666.1923
 136  611.2199
 137  668.3981
 138  726.8082
 139  725.4674
 140  732.4498
 141  643.6769
 142  697.1415
 143  667.696
 144  683.7969
 145  684.3186
 146  649.1007
 147  658.2935
 148  709.8502
 149  726.4365
 150  719.843
 151  662.1107
 152  651.7953
 153  598.4
 154  610.1473
 155  572.1489
 156  577.2628
 157  597.121
 158  643.5416
 159  659.6238
 160  666.9888
 161  610.3245
 162  589.7496
 163  543.4276
 164  555.1291
 165  590.8281
 166  649.1888
 167  623.6694
 168  618.5959
 169  558.6036
 170  520.6597
 171  580.7293
 172  576.217
 173  542.5432
 174  488.3891
 175  613.3276
 176  639.8616
 177  617.3159
 178  761.4738
 179  746.3889
 180  515.429
 181  610.7452
 182  654.8786
 183  653.9579
 184  722.9178
 185  713.731
 186  603.8692
 187  688.9589
 188  806.7296
 189  875.2988
 190  927.9044
 191  838.7515
 192  940.535
 193  1101.728
 194  1203.983
 195  1089.082
 196  884.0964
 197  693.1832
 198  614.1071
 199  584.8008
 200  718.5919
 201  713.9165
 202  672.0984
 203  554.9708
 204  581.9005
 205  741.6183
 206  679.4417
 207  708.367
 208  738.2092
 209  705.8243
 210  612.166
 211  591.7781
 212  565.768
 213  444.9591
 214  509.6755
 215  606.9729
 216  723.8617
 217  646.6172
 218  621.5195
 219  559.7648
 220  489.9717
 221  740.5479
 222  756.5302
 223  701.8149
 224  648.4861
 225  645.827
 226  666.4105
 227  564.9984
 228  583.6951
 229  571.5837
 230  615.4308
 231  692.5399
 232  572.8659
 233  588.321
 234  704.6976
 235  675.71
 236  658.6642
 237  501.0435
 238  511.5662
 239  709.7742
 240  804.6069
 241  615.116
 242  449.6539
 243  540.6777
 244  658.0616
 245  635.6465
 246  522.9191
 247  515.968
 248  627.2502
 249  685.0325
 250  694.6346
 251  700.2137
 252  607.4926
 253  577.0693
 254  608.4326
 255  588.1147
 256  689.2568
 257  770.802
 258  700.3355
 259  634.0001
 260  625.2676
 261  519.9261
 262  521.0658
 263  608.5985
 264  683.3329
 265  725.5417
 266  590.8287
 267  546.9917
 268  660.2183
 269  613.0072
 270  517.9556
 271  619.1965
 272  727.8292
 273  580.2524
 274  570.4395
 275  567.1157
 276  645.6844
 277  625.4167
 278  531.8878
 279  559.7742
 280  616.7428
 281  696.6208
 282  778.4877
 283  600.7103
 284  667.821
 285  799.1693
 286  709.9993
 287  599.002
 288  574.7822
 289  445.4688
 290  549.8052
 291  525.5696
 292  650.2838
 293  803.2889
 294  664.9237
 295  508.4383
 296  542.5916
 297  636.0632
 298  711.9351
 299  623.6136
 300  640.4971
 301  656.0712
 302  623.8998
 303  651.3149
 304  684.1329
 305  643.2954
 306  597.851
 307  658.7552
 308  658.8166
 309  511.1428
 310  580.4355
 311  677.6938
 312  666.4971
 313  560.5778
 314  609.7017
 315  628.5275
 316  577.5245
 317  594.5058
 318  570.6733
 319  465.8631
 320  478.6581
 321  555.9072
 322  670.7522
 323  632.4733
 324  704.5483
 325  559.5309
 326  597.5422
 327  678.1567
 328  642.0435
 329  543.4081
 330  588.9451
 331  821.3414
 332  749.6891
 333  724.965
 334  742.0572
 335  508.711
 336  595.4839
 337  663.6409
 338  739.8008
 339  686.7763
 340  645.7287
 341  632.8888
 342  524.2387
 343  591.2354
 344  708.3754
 345  669.6482
 346  648.0215
 347  626.3705
 348  661.3314
 349  539.4314
 350  543.5392
 351  643.2872
 352  651.2216
 353  573.4757
 354  520.9336
 355  738.6953
 356  772.2637
 357  652.0123
 358  637.5372
 359  698.0258
 360  609.6223
 361  490.9117
 362  464.0436
 363  571.9454
 364  665.9616
 365  655.1072
 366  677.3938
 367  694.069
 368  670.6633
 369  632.4597
 370  602.7828
 371  623.8716
 372  586.1237
 373  586.2672
 374  565.2275
 375  538.024
 376  607.9258
 377  511.7285
 378  552.991
 379  662.1991
 380  561.3301
 381  422.6726
 382  482.7856
 383  622.0873
 384  640.9796
 385  628.1429
 386  563.2751
 387  701.8253
 388  793.6541
 389  755.5317
 390  705.9854
 391  580.2692
 392  634.7935
 393  685.2599
 394  596.5899
 395  580.6251
 396  554.4286
 397  582.2567
 398  606.8786
 399  624.8493
 400  650.6118
 401  650.8595
 402  581.6164
 403  649.2398
 404  677.8712
 405  713.5502
 406  675.7528
 407  713.7027
 408  685.6751
 409  674.9814
 410  608.5831
 411  576.6226
 412  512.1053
 413  628.3969
 414  628.2766
 415  615.6395
 416  564.0889
 417  566.6108
 418  572.3206
 419  646.5079
 420  693.947
 421  610.5367
 422  697.4077
 423  644.5259
 424  620.3254
 425  487.3395
 426  606.7031
 427  733.5483
 428  805.5192
 429  600.2623
 430  669.6339
 431  690.4818
 432  719.8179
 433  806.9126
 434  800.7992
 435  808.0921
 436  781.0345
 437  639.7003
 438  604.9595
 439  576.5502
 440  615.9998
 441  584.0388
 442  654.6393
 443  724.2455
 444  630.3891
 445  714.6306
 446  785.1273
 447  669.5206
 448  739.4205
 449  694.1359
 450  552.2642
 451  657.6252
 452  617.1484
 453  656.1279
 454  597.6606
 455  696.2321
 456  741.5194
 457  746.1489
 458  667.9045
 459  716.0815
 460  642.9429
 461  659.4048
 462  647.7137
 463  730.7045
 464  761.0061
 465  779.1412
 466  823.3687
 467  805.2426
 468  680.483
 469  766.4404
 470  817.8395
 471  690.9128
 472  654.122
 473  626.9235
 474  621.5015
 475  631.2405
 476  723.5638
 477  719.0812
 478  791.6537
 479  857.8973
 480  714.6368
 481  617.9363
 482  592.9006
 483  582.5838
 484  701.9396
 485  600.3034
 486  741.8536
 487  760.645
 488  796.5593
 489  713.3619
 490  552.6458
 491  551.8884
 492  553.7935
 493  686.8243
 494  756.7889
 495  739.4181
 496  754.7435
 497  714.1522
 498  658.5475
 499  551.1918
 500  764.1588
 501  694.0004
 502  533.4234
 503  628.197
 504  682.501
 505  639.511
 506  616.8728
 507  695.1591
 508  731.6519
 509  720.4438
 510  696.2503
 511  719.5586
