# Input file       =  1212303721.111694_cleaned.dat
# Candidate        =  PSR_0332+5434
# Telescope        =  AR
# Epoch_topo       =  58275.293288329791
# Epoch_bary       =  N/A
# T_sample         =  0.002
# Data Folded      =  7340032
# Data Avg         =  0.108667686094123
# Data StdDev      =  2.89485174862554 
# Profile Bins     =  512
# Profile Avg      =  1557.94935770988 
# Profile StdDev   =  346.609389723527 
# Reduced chi-sqr  =  1.707
# Prob(Noise)      <  2.59e-21   (~9.4 sigma)
# P_topo (ms)      =  714.511809310777  +/- 0.000523
# P'_topo (s/s)    =  -0                +/- 2.76e-10
# P''_topo (s/s^2) =  0                 +/- 1.22e-13
# P_bary (ms)      =  N/A
# P'_bary (s/s)    =  N/A
# P''_bary (s/s^2) =  N/A
# P_orb (s)        =  N/A
# asin(i)/c (s)    =  N/A
# eccentricity     =  N/A
# w (rad)          =  N/A
# T_peri           =  N/A
######################################################
   0  1506.904
   1  1852.746
   2  1806.02
   3  1596.662
   4  1201.468
   5  1355.611
   6  1294.354
   7  1224.858
   8  1135.008
   9  1396
  10  1287.113
  11  1296.114
  12  1535.66
  13  1325.469
  14  1350.143
  15  1526.801
  16  1594.2
  17  1611.511
  18  1879.418
  19  1939.518
  20  1542.461
  21  1666.467
  22  1669.602
  23  1397.878
  24  1412.714
  25  1477.319
  26  1503.287
  27  1405.842
  28  1494.863
  29  1236.655
  30  1115.268
  31  1215.271
  32  1313.543
  33  1485.97
  34  1569.727
  35  1533.477
  36  1502.745
  37  1361.122
  38  1404.881
  39  1163.375
  40  1323.413
  41  1332.231
  42  1033.039
  43  1050.722
  44  1209.311
  45  1272.097
  46  1212.65
  47  1322.635
  48  1212.19
  49  1464.827
  50  1667.589
  51  1737.191
  52  1652.172
  53  1589.175
  54  1493.46
  55  1349.164
  56  1593.04
  57  1768.689
  58  1435.407
  59  1218.075
  60  1251.045
  61  1542.403
  62  1319.499
  63  1541.043
  64  1740.864
  65  1650.993
  66  1274.34
  67  1382.236
  68  1679.8
  69  1664.819
  70  1556.687
  71  1385.602
  72  1283.146
  73  1761.95
  74  1872.171
  75  1525.326
  76  1630.45
  77  1624.824
  78  1490.865
  79  1495.456
  80  1418.028
  81  1254.057
  82  1509.682
  83  1397.77
  84  1285.239
  85  1526.3
  86  1627.488
  87  1362.634
  88  1026.622
  89  1340.154
  90  1445.417
  91  1807.12
  92  2056.432
  93  2049.947
  94  1813.356
  95  1726.739
  96  1726.362
  97  1565.528
  98  1422.142
  99  1452.606
 100  1402.393
 101  1473.009
 102  1747.96
 103  1911.906
 104  1488.473
 105  1212.369
 106  1595.25
 107  1807.38
 108  1687.63
 109  1730.851
 110  1633.798
 111  1597.092
 112  1590.855
 113  1472.863
 114  1615.187
 115  1727.602
 116  1933.313
 117  2035.839
 118  1921.586
 119  2318.848
 120  2564.93
 121  2517.678
 122  3223.194
 123  3719.691
 124  3555.768
 125  2869.387
 126  2380.964
 127  2040.533
 128  1640.771
 129  1672.924
 130  1611.129
 131  1782.053
 132  1680.11
 133  1851.023
 134  1695.74
 135  1740.896
 136  1955.244
 137  1762.384
 138  1970.565
 139  1918.921
 140  1628.932
 141  1465.556
 142  1687.955
 143  1807.067
 144  1891.402
 145  1831.739
 146  1416.527
 147  1556.617
 148  1784.754
 149  1900.295
 150  2083.586
 151  1735.647
 152  1668.251
 153  1341.932
 154  1619.409
 155  1542.484
 156  1722.948
 157  1900.173
 158  1543.335
 159  1315.123
 160  1666.221
 161  1434.921
 162  1366.038
 163  1548.919
 164  1336.911
 165  1699.329
 166  1579.132
 167  1658.019
 168  1734.183
 169  1695.335
 170  1841.037
 171  1574.902
 172  1643.449
 173  1844.833
 174  1600.469
 175  1417.139
 176  1338.308
 177  1497.242
 178  1529.245
 179  1415.761
 180  1542.726
 181  1726.851
 182  1624.817
 183  1948.679
 184  1921.98
 185  2195.417
 186  2021.959
 187  1551.851
 188  1664.463
 189  1922.554
 190  1857.706
 191  1792.019
 192  1988.172
 193  1541.033
 194  1709.523
 195  1774.601
 196  1800.018
 197  1680.686
 198  2109.435
 199  2168.225
 200  1686.158
 201  1493.552
 202  1653.193
 203  1997.011
 204  2023.356
 205  2146.427
 206  2025.372
 207  1471.247
 208  1647.586
 209  2120.985
 210  2220.033
 211  1810.351
 212  1541.479
 213  1595.728
 214  1751.693
 215  1838.901
 216  1932.575
 217  1675.463
 218  1742.942
 219  1930.928
 220  1683.775
 221  1675.614
 222  2071.137
 223  1852.266
 224  1651.666
 225  1722.541
 226  1994.382
 227  1893.985
 228  1765.463
 229  1653.032
 230  1739.522
 231  1732.068
 232  1765.923
 233  1929.058
 234  1963.74
 235  1868.388
 236  1612.803
 237  1557.01
 238  1872.768
 239  1720.703
 240  1786.076
 241  1756.253
 242  1758.37
 243  1815.12
 244  1447.571
 245  1547.892
 246  1722.738
 247  1829.841
 248  1727.12
 249  1463.771
 250  1849.453
 251  1988.121
 252  1942.178
 253  1857.797
 254  1517.961
 255  1693.147
 256  1720.353
 257  1783.099
 258  1713.041
 259  1794.818
 260  1706.885
 261  2021.574
 262  1671.158
 263  1793.139
 264  1851.224
 265  1751.123
 266  2043.254
 267  2143.971
 268  1715.48
 269  1527.698
 270  1465.923
 271  1607.28
 272  1868.628
 273  2196.997
 274  2402.1
 275  1821.23
 276  1678.369
 277  1910.874
 278  1876.25
 279  1795.013
 280  1836.342
 281  1862.953
 282  1880.071
 283  1734.727
 284  1996.758
 285  2142.129
 286  1721.057
 287  1283.508
 288  1644.537
 289  1616.55
 290  1708.49
 291  1698.754
 292  1990.823
 293  1990.469
 294  1815.039
 295  2102.964
 296  1672.684
 297  1602.215
 298  1926.459
 299  1890.667
 300  1763.214
 301  1850.969
 302  1925.591
 303  2016.432
 304  1708.006
 305  1767.463
 306  1637.296
 307  1569.134
 308  1740.96
 309  1719.327
 310  1526.121
 311  1362.032
 312  1488.925
 313  1488.594
 314  1823.707
 315  1681.138
 316  1427.036
 317  1607.807
 318  1704.312
 319  1712.24
 320  1549.354
 321  1674.63
 322  1464.389
 323  1716.347
 324  1886.939
 325  1785.004
 326  1626.773
 327  1567.44
 328  1791.509
 329  1896.726
 330  1770.31
 331  1692.397
 332  1727.429
 333  1524.492
 334  1667.859
 335  1731.207
 336  1620.39
 337  1657.366
 338  1637.234
 339  1438.759
 340  1543.343
 341  1473.169
 342  1716.171
 343  1631.208
 344  1313.328
 345  1430.393
 346  1541.62
 347  1364.851
 348  1453.007
 349  1502.752
 350  1774.261
 351  1533.766
 352  1359.89
 353  1118.668
 354  1506.733
 355  1688.612
 356  1423.06
 357  1331.077
 358  1303.776
 359  1038.268
 360  1360.441
 361  1498.303
 362  1109.622
 363  1110.115
 364  1265.887
 365  1273.229
 366  1493.79
 367  1446.86
 368  1329.55
 369  1461.057
 370  1367.457
 371  1248.706
 372  1086.503
 373  1448.284
 374  1672.457
 375  1449.608
 376  1404.141
 377  1341.756
 378  1448.27
 379  1503.282
 380  1391.779
 381  1299.143
 382  1057.825
 383  1251.794
 384  1567.075
 385  1581.029
 386  1115.416
 387  1504.509
 388  1653.811
 389  1446.167
 390  1402.299
 391  1261.652
 392  1254.641
 393  1496.883
 394  1296.364
 395  1276.98
 396  1621.023
 397  1367.733
 398  1391.086
 399  1255.58
 400  1305.932
 401  1191.356
 402  1103.224
 403  1334.321
 404  1386.498
 405  1421.986
 406  1056.736
 407  1181.591
 408  1376.113
 409  1387.291
 410  1223.381
 411  1237.827
 412  1285.991
 413  1541.94
 414  1572.979
 415  1449.353
 416  1249.306
 417  1080.062
 418  1041.812
 419  1036.842
 420  1033.464
 421  979.2714
 422  1069.975
 423  995.559
 424  944.6529
 425  1156.819
 426  1242.949
 427  1434.574
 428  1181.171
 429  1160.238
 430  1100.235
 431  1365.1
 432  1445.211
 433  1347.383
 434  1048.785
 435  1164.46
 436  1379.331
 437  1115.474
 438  1439.831
 439  1424.9
 440  1101.096
 441  1115.456
 442  1300.707
 443  1252.351
 444  1134.996
 445  1277.02
 446  1185.068
 447  1301.545
 448  1592.083
 449  1628.895
 450  1310.308
 451  1354.774
 452  1378.15
 453  1438.197
 454  1280.597
 455  1091.026
 456  984.5062
 457  1337.032
 458  945.3682
 459  766.5887
 460  1249.203
 461  1028.167
 462  1417.039
 463  1488.408
 464  1225.446
 465  1262.692
 466  1296.665
 467  1405.747
 468  1068.737
 469  1239.318
 470  1336.082
 471  1217.254
 472  1162.368
 473  927.0571
 474  1178.546
 475  1115.362
 476  1272.057
 477  1443.989
 478  1122.556
 479  931.5111
 480  1203.25
 481  1313.266
 482  1218.007
 483  1223.959
 484  1258.438
 485  1216.349
 486  1309.008
 487  1137.358
 488  806.8741
 489  844.3209
 490  946.8003
 491  1333.166
 492  1456.044
 493  1337.517
 494  1255.631
 495  1352.838
 496  1421.595
 497  1350.16
 498  1424.24
 499  1194.683
 500  1238.863
 501  1324.928
 502  1743.679
 503  1567.332
 504  1470.589
 505  1650.827
 506  1517.316
 507  1451.021
 508  1352.575
 509  1039.49
 510  1100.215
 511  1355.804
