# Input file       =  1212476026.101743_cleaned.dat
# Candidate        =  PSR_0332+5434
# Telescope        =  AR
# Epoch_topo       =  58277.287559047953
# Epoch_bary       =  N/A
# T_sample         =  0.002
# Data Folded      =  7340032
# Data Avg         =  0.0420265499776507
# Data StdDev      =  1.00008604527323 
# Profile Bins     =  512
# Profile Avg      =  602.449709120542 
# Profile StdDev   =  119.743338838596 
# Reduced chi-sqr  =  1.296
# Prob(Noise)      <  6.66e-06   (~4.4 sigma)
# P_topo (ms)      =  714.509889030151  +/- 0.00024
# P'_topo (s/s)    =  -0                +/- 1.27e-10
# P''_topo (s/s^2) =  0                 +/- 5.6e-14
# P_bary (ms)      =  N/A
# P'_bary (s/s)    =  N/A
# P''_bary (s/s^2) =  N/A
# P_orb (s)        =  N/A
# asin(i)/c (s)    =  N/A
# eccentricity     =  N/A
# w (rad)          =  N/A
# T_peri           =  N/A
######################################################
   0  513.6907
   1  425.5895
   2  530.1968
   3  654.2003
   4  709.8966
   5  609.5516
   6  560.0557
   7  695.6562
   8  678.3138
   9  598.3328
  10  598.7706
  11  541.5407
  12  616.7203
  13  663.7679
  14  531.6133
  15  514.9579
  16  464.8175
  17  536.5059
  18  617.8741
  19  644.3591
  20  757.8317
  21  683.1747
  22  576.691
  23  563.0153
  24  703.0325
  25  672.5692
  26  604.1075
  27  606.3291
  28  660.9543
  29  640.7245
  30  706.3611
  31  745.6852
  32  592.0444
  33  532.1796
  34  541.279
  35  465.007
  36  612.0668
  37  595.8175
  38  659.0213
  39  653.6185
  40  701.5347
  41  659.6301
  42  637.3087
  43  681.6607
  44  652.5775
  45  562.6868
  46  665.2816
  47  594.8578
  48  619.4925
  49  615.6248
  50  615.7249
  51  537.9917
  52  539.6102
  53  510.2071
  54  593.2053
  55  574.6212
  56  573.7823
  57  647.5263
  58  562.1589
  59  580.0439
  60  707.4549
  61  669.0358
  62  614.2257
  63  591.0505
  64  669.6247
  65  572.159
  66  472.2398
  67  550.1668
  68  570.9034
  69  640.9473
  70  569.799
  71  541.4205
  72  677.8821
  73  708.3783
  74  591.7
  75  554.8905
  76  704.3315
  77  614.8759
  78  451.9232
  79  540.7199
  80  690.6688
  81  666.7361
  82  540.0007
  83  592.0285
  84  619.4822
  85  623.5948
  86  560.2993
  87  548.851
  88  583.2319
  89  517.0082
  90  607.5621
  91  468.0136
  92  476.1986
  93  611.2963
  94  617.7167
  95  585.13
  96  545.7784
  97  547.5783
  98  563.1928
  99  579.1163
 100  545.4033
 101  499.6451
 102  577.0905
 103  496.0293
 104  485.71
 105  435.9432
 106  458.3931
 107  558.5074
 108  478.0184
 109  299.5734
 110  502.9858
 111  466.0545
 112  472.3166
 113  437.5256
 114  456.6941
 115  542.0503
 116  574.5998
 117  636.8996
 118  496.032
 119  477.7032
 120  516.3188
 121  582.2161
 122  509.0565
 123  536.6394
 124  551.2015
 125  462.5937
 126  475.2725
 127  534.2007
 128  472.7078
 129  498.016
 130  495.4394
 131  500.0288
 132  537.2764
 133  540.3327
 134  423.9763
 135  447.4228
 136  512.075
 137  512.0951
 138  569.0859
 139  553.5433
 140  546.5888
 141  601.6419
 142  572.545
 143  578.9808
 144  473.5315
 145  585.3693
 146  501.7496
 147  408.4425
 148  532.4274
 149  604.8384
 150  549.4822
 151  508.2422
 152  528.2939
 153  577.5547
 154  619.4442
 155  668.3664
 156  580.421
 157  456.7275
 158  490.0702
 159  621.4969
 160  558.3167
 161  609.8083
 162  655.092
 163  679.321
 164  640.6524
 165  479.5789
 166  491.4137
 167  541.5309
 168  580.1387
 169  697.3267
 170  614.3446
 171  575.1051
 172  617.0091
 173  590.2969
 174  657.0092
 175  622.1868
 176  536.0043
 177  662.4916
 178  612.7306
 179  566.8853
 180  627.5599
 181  691.3173
 182  764.9979
 183  750.1982
 184  845.7148
 185  1001.109
 186  1197.267
 187  1431.131
 188  1250.668
 189  1051.622
 190  884.4557
 191  705.9207
 192  581.5598
 193  641.6593
 194  558.1696
 195  567.1637
 196  660.4155
 197  667.4987
 198  611.0507
 199  625.7521
 200  617.565
 201  548.7411
 202  601.4221
 203  691.7248
 204  596.9315
 205  602.824
 206  644.6984
 207  752.1179
 208  624.6505
 209  534.1279
 210  491.162
 211  487.6521
 212  538.8681
 213  593.1301
 214  657.0151
 215  605.5076
 216  608.2745
 217  768.8918
 218  688.7721
 219  643.5807
 220  631.5079
 221  530.8699
 222  620.4419
 223  663.8294
 224  653.8981
 225  556.4805
 226  533.9899
 227  632.6141
 228  678.3538
 229  532.3853
 230  545.9777
 231  558.2571
 232  626.3596
 233  643.6963
 234  548.7203
 235  539.1367
 236  601.1266
 237  653.4801
 238  662.187
 239  658.1917
 240  625.0732
 241  711.8159
 242  532.0411
 243  387.4584
 244  421.3633
 245  589.8755
 246  656.9814
 247  715.5238
 248  698.0588
 249  737.5809
 250  660.7252
 251  608.1297
 252  522.6522
 253  551.7093
 254  619.407
 255  642.0385
 256  621.3245
 257  598.946
 258  573.4521
 259  614.8083
 260  559.3687
 261  575.3191
 262  578.8984
 263  658.0165
 264  638.7537
 265  570.3029
 266  661.8489
 267  568.86
 268  497.7458
 269  636.6879
 270  573.174
 271  636.2445
 272  593.1411
 273  562.0983
 274  632.1713
 275  698.4142
 276  635.2819
 277  634.3577
 278  586.0297
 279  612.2697
 280  598.5803
 281  540.3163
 282  601.5101
 283  584.457
 284  537.4556
 285  508.0263
 286  621.1158
 287  621.9337
 288  663.0002
 289  694.2416
 290  655.3356
 291  571.9936
 292  662.3588
 293  683.385
 294  719.1564
 295  599.7892
 296  657.8052
 297  648.9765
 298  447.4104
 299  539.9688
 300  653.5143
 301  724.9577
 302  620.782
 303  614.3254
 304  658.6757
 305  566.0311
 306  606.5602
 307  608.8376
 308  562.0621
 309  539.1528
 310  592.7003
 311  681.5706
 312  596.284
 313  614.9215
 314  650.8007
 315  692.684
 316  678.5261
 317  679.0318
 318  626.0083
 319  674.7657
 320  669.8135
 321  631.7158
 322  587.4698
 323  674.3267
 324  632.5664
 325  593.371
 326  600.8651
 327  625.6461
 328  635.2092
 329  588.9355
 330  626.4287
 331  674.9445
 332  652.0927
 333  724.4416
 334  746.6013
 335  716.1608
 336  654.618
 337  716.5321
 338  623.4332
 339  597.8456
 340  575.5651
 341  573.7143
 342  512.9644
 343  460.2373
 344  425.2715
 345  561.0544
 346  579.022
 347  592.7369
 348  681.1524
 349  601.3297
 350  489.7686
 351  582.7208
 352  680.082
 353  676.6942
 354  655.8549
 355  618.4459
 356  581.6108
 357  722.5513
 358  706.1542
 359  672.3514
 360  616.8562
 361  661.2947
 362  691.8313
 363  688.1003
 364  514.7279
 365  579.6246
 366  706.4355
 367  624.3302
 368  648.4009
 369  688.1713
 370  696.77
 371  678.5453
 372  686.8271
 373  645.6264
 374  693.7813
 375  660.8145
 376  694.9777
 377  740.2591
 378  730.9261
 379  693.2154
 380  726.1701
 381  788.8372
 382  711.692
 383  774.2868
 384  720.1365
 385  649.2707
 386  615.1936
 387  676.3959
 388  700.0893
 389  687.4149
 390  680.5575
 391  701.72
 392  681.9968
 393  722.4964
 394  737.7667
 395  535.9391
 396  547.9289
 397  748.6194
 398  683.8179
 399  685.4196
 400  680.3246
 401  647.7719
 402  607.5989
 403  561.0631
 404  591.2853
 405  480.3131
 406  564.3346
 407  568.6013
 408  599.7354
 409  548.2512
 410  688.9752
 411  676.6544
 412  600.3622
 413  616.3586
 414  663.8036
 415  673.2437
 416  592.6384
 417  589.0754
 418  507.1057
 419  480.9413
 420  408.3975
 421  406.7401
 422  559.3945
 423  629.828
 424  666.513
 425  685.8586
 426  577.1302
 427  552.4171
 428  575.6804
 429  595.4147
 430  589.7501
 431  599.6062
 432  679.0185
 433  687.7045
 434  591.4055
 435  576.2199
 436  580.0628
 437  581.8877
 438  559.1304
 439  665.6943
 440  591.7537
 441  522.9651
 442  507.1161
 443  544.283
 444  486.0847
 445  502.6558
 446  511.982
 447  426.216
 448  450.2993
 449  529.2446
 450  521.3929
 451  554.4837
 452  613.1558
 453  510.4021
 454  383.9854
 455  422.8818
 456  456.2181
 457  592.6276
 458  532.6273
 459  534.949
 460  645.2327
 461  489.7432
 462  494.2478
 463  555.2715
 464  589.3942
 465  637.3351
 466  651.8828
 467  668.0114
 468  619.7216
 469  597.6118
 470  506.3986
 471  572.3417
 472  557.8936
 473  530.7197
 474  614.1716
 475  714.5466
 476  672.0682
 477  552.4377
 478  509.6342
 479  582.3153
 480  527.9208
 481  474.465
 482  565.3113
 483  649.8896
 484  597.2471
 485  534.6207
 486  625.5013
 487  624.2408
 488  451.9059
 489  439.6625
 490  503.3413
 491  587.2867
 492  571.3917
 493  479.9516
 494  530.6
 495  560.3483
 496  518.6093
 497  608.6549
 498  613.4532
 499  696.1211
 500  727.3887
 501  638.1966
 502  564.2094
 503  501.3177
 504  506.0349
 505  408.6993
 506  610.2974
 507  662.6102
 508  613.2883
 509  602.0239
 510  573.9519
 511  621.4063
