# Input file       =  1212734494.117161_cleaned.dat
# Candidate        =  PSR_0332+5434
# Telescope        =  AR
# Epoch_topo       =  58280.279087004179
# Epoch_bary       =  N/A
# T_sample         =  0.002
# Data Folded      =  7340032
# Data Avg         =  0.111011949896887
# Data StdDev      =  2.97020949968935 
# Profile Bins     =  1024
# Profile Avg      =  795.700813705006 
# Profile StdDev   =  251.469941694067 
# Reduced chi-sqr  =  1.050
# Prob(Noise)      <  0.132   (~1.1 sigma)
# P_topo (ms)      =  714.507028445226  +/- 0.000617
# P'_topo (s/s)    =  -0                +/- 3.26e-10
# P''_topo (s/s^2) =  0                 +/- 1.44e-13
# P_bary (ms)      =  N/A
# P'_bary (s/s)    =  N/A
# P''_bary (s/s^2) =  N/A
# P_orb (s)        =  N/A
# asin(i)/c (s)    =  N/A
# eccentricity     =  N/A
# w (rad)          =  N/A
# T_peri           =  N/A
######################################################
   0  786.9819
   1  745.5786
   2  699.7357
   3  617.7365
   4  735.8822
   5  715.808
   6  725.0055
   7  642.7065
   8  701.4928
   9  780.9928
  10  789.2975
  11  779.0548
  12  756.94
  13  724.9099
  14  728.3176
  15  762.5963
  16  748.2135
  17  656.8769
  18  632.2986
  19  701.5414
  20  671.3596
  21  642.2169
  22  584.2321
  23  588.6312
  24  632.1057
  25  645.8436
  26  671.1656
  27  663.4766
  28  542.5964
  29  538.6102
  30  498.5359
  31  649.4056
  32  690.9203
  33  747.1703
  34  769.3399
  35  734.6733
  36  666.513
  37  555.0051
  38  562.3057
  39  556.2179
  40  584.6857
  41  637.6442
  42  771.7933
  43  879.8551
  44  920.1612
  45  776.6624
  46  547.9707
  47  515.0414
  48  627.5953
  49  725.8763
  50  785.7469
  51  773.8958
  52  792.7215
  53  665.3552
  54  709.2474
  55  598.5522
  56  494.7944
  57  493.969
  58  614.9486
  59  730.4268
  60  644.5967
  61  623.8837
  62  599.6513
  63  776.9191
  64  858.2916
  65  930.0943
  66  876.7921
  67  824.6716
  68  850.4813
  69  759.5967
  70  782.9058
  71  731.6609
  72  784.4435
  73  631.0652
  74  597.1136
  75  599.8969
  76  647.4328
  77  604.3483
  78  666.8342
  79  723.3341
  80  759.9435
  81  710.4633
  82  686.7037
  83  700.5156
  84  720.1986
  85  787.9084
  86  800.2061
  87  812.9332
  88  863.9276
  89  892.0066
  90  920.8504
  91  759.5164
  92  675.3205
  93  654.2809
  94  702.0076
  95  759.7655
  96  772.0866
  97  843.8864
  98  841.9218
  99  882.9185
 100  898.0192
 101  842.6531
 102  651.6457
 103  553.1342
 104  604.194
 105  647.9042
 106  573.2963
 107  577.7891
 108  655.8365
 109  772.9163
 110  817.0132
 111  795.0527
 112  804.8306
 113  721.168
 114  759.2756
 115  794.0829
 116  777.0157
 117  789.2017
 118  720.1087
 119  759.6799
 120  759.1891
 121  737.5839
 122  680.7557
 123  688.9061
 124  659.7311
 125  650.4343
 126  656.2388
 127  625.9685
 128  583.5359
 129  618.4772
 130  713.3394
 131  735.8282
 132  755.2528
 133  808.9742
 134  882.824
 135  796.869
 136  663.4808
 137  610.233
 138  633.3603
 139  603.8888
 140  543.2321
 141  521.0917
 142  532.6129
 143  595.1921
 144  651.1752
 145  667.3911
 146  729.6844
 147  762.064
 148  831.5811
 149  804.4708
 150  910.1747
 151  992.2314
 152  971.5636
 153  831.8163
 154  677.2241
 155  606.5676
 156  623.0331
 157  732.3066
 158  787.3536
 159  832.075
 160  865.8391
 161  917.4688
 162  921.7548
 163  893.674
 164  780.7673
 165  733.1271
 166  742.0966
 167  729.4407
 168  696.8731
 169  664.6985
 170  759.7903
 171  807.8765
 172  734.1077
 173  727.714
 174  836.48
 175  848.1094
 176  846.4487
 177  814.583
 178  814.6452
 179  840.3342
 180  793.6076
 181  805.4123
 182  846.9587
 183  841.4343
 184  976.9259
 185  945.2233
 186  970.541
 187  946.5438
 188  934.8243
 189  854.2801
 190  755.9058
 191  751.0859
 192  735.6423
 193  806.8387
 194  828.6241
 195  873.6339
 196  893.3807
 197  894.3093
 198  920.9691
 199  882.775
 200  954.5631
 201  926.9523
 202  940.8546
 203  879.4208
 204  921.2751
 205  921.6614
 206  998.1618
 207  883.0688
 208  862.153
 209  872.0562
 210  1013.344
 211  1031.324
 212  936.0117
 213  853.2039
 214  779.1009
 215  819.0553
 216  861.9226
 217  987.8591
 218  1062.763
 219  999.1172
 220  845.7051
 221  814.7574
 222  901.2492
 223  961.9496
 224  971.4282
 225  877.0095
 226  825.9817
 227  759.9985
 228  734.8516
 229  711.5764
 230  680.0546
 231  801.9347
 232  921.4045
 233  1045.44
 234  1066.041
 235  1022.93
 236  1064.47
 237  1010.027
 238  981.9971
 239  930.0869
 240  883.4787
 241  824.9968
 242  689.244
 243  661.8121
 244  759.7249
 245  834.9859
 246  879.0941
 247  888.6688
 248  904.5057
 249  921.8742
 250  823.8194
 251  836.1956
 252  838.977
 253  801.4943
 254  717.898
 255  640.8502
 256  765.3128
 257  747.2405
 258  748.1917
 259  799.3239
 260  999.5229
 261  1070.566
 262  997.5771
 263  868.707
 264  819.611
 265  919.5311
 266  998.9042
 267  988.9243
 268  875.9852
 269  791.2994
 270  750.3098
 271  749.9184
 272  912.2621
 273  998.2578
 274  1047.601
 275  889.2995
 276  764.1186
 277  672.7181
 278  668.2317
 279  814.6766
 280  943.8668
 281  905.29
 282  979.5784
 283  949.877
 284  994.9798
 285  837.7467
 286  755.5841
 287  661.5637
 288  593.7268
 289  579.0839
 290  624.5012
 291  651.0975
 292  582.3906
 293  617.2009
 294  649.0072
 295  727.1308
 296  772.9598
 297  851.437
 298  903.0472
 299  917.046
 300  980.0309
 301  806.0338
 302  684.8499
 303  684.2575
 304  862.0372
 305  873.508
 306  792.1082
 307  692.4811
 308  585.1123
 309  539.4286
 310  612.1737
 311  699.4065
 312  741.083
 313  744.812
 314  773.3934
 315  720.8826
 316  741.9387
 317  734.0914
 318  819.9886
 319  803.9639
 320  692.0369
 321  622.8116
 322  691.7194
 323  791.0728
 324  790.2488
 325  783.4437
 326  784.7053
 327  811.0009
 328  703.7772
 329  757.469
 330  782.9031
 331  908.6733
 332  951.4224
 333  1036.698
 334  911.571
 335  708.4907
 336  626.4807
 337  702.1513
 338  738.4812
 339  773.7483
 340  849.8548
 341  941.1354
 342  825.5897
 343  781.2112
 344  745.6224
 345  935.5066
 346  838.9034
 347  834.3962
 348  882.5459
 349  960.4813
 350  1001.965
 351  859.2063
 352  967.8524
 353  927.033
 354  938.2635
 355  832.6337
 356  789.5035
 357  695.6108
 358  534.6456
 359  559.446
 360  760.5766
 361  873.3181
 362  902.423
 363  823.9465
 364  898.8178
 365  969.4421
 366  946.0038
 367  812.1215
 368  714.6913
 369  646.6291
 370  627.3043
 371  765.6141
 372  955.6356
 373  1104.967
 374  1010.638
 375  889.3549
 376  768.2701
 377  757.2422
 378  757.8754
 379  858.3874
 380  905.8674
 381  922.7838
 382  869.0545
 383  845.0444
 384  854.1383
 385  812.0965
 386  701.5677
 387  608.4131
 388  523.298
 389  600.7029
 390  704.8929
 391  722.6451
 392  733.852
 393  843.5032
 394  964.2674
 395  1006.184
 396  861.869
 397  803.6424
 398  680.1063
 399  691.9346
 400  727.4619
 401  836.0458
 402  819.2633
 403  799.4376
 404  777.4138
 405  810.5765
 406  770.2922
 407  742.7444
 408  745.2319
 409  817.7225
 410  865.8975
 411  902.2947
 412  897.5454
 413  845.5252
 414  829.0283
 415  827.0728
 416  819.7846
 417  771.3821
 418  778.8334
 419  798.7913
 420  776.5284
 421  720.1164
 422  630.864
 423  664.5572
 424  740.379
 425  813.566
 426  870.8619
 427  811.7715
 428  729.9462
 429  594.0873
 430  601.1915
 431  729.1912
 432  760.8649
 433  904.2999
 434  886.724
 435  846.5823
 436  643.7692
 437  634.9875
 438  695.4503
 439  734.7625
 440  763.1944
 441  674.6987
 442  626.4612
 443  651.1091
 444  711.6326
 445  657.5969
 446  572.9181
 447  617.9558
 448  677.1339
 449  703.8466
 450  663.5342
 451  568.3059
 452  631.832
 453  667.6435
 454  734.3853
 455  668.9153
 456  664.4144
 457  751.249
 458  806.8585
 459  772.5352
 460  648.9467
 461  698.2051
 462  769.3918
 463  748.8954
 464  641.9621
 465  579.534
 466  637.5943
 467  810.4089
 468  859.0998
 469  807.6597
 470  593.007
 471  580.9581
 472  491.9301
 473  546.0711
 474  630.1801
 475  763.553
 476  824.7432
 477  795.3101
 478  726.9067
 479  636.4517
 480  663.5851
 481  758.5907
 482  858.7802
 483  893.1905
 484  872.5176
 485  723.6516
 486  733.7856
 487  806.1335
 488  840.7859
 489  763.2543
 490  656.3812
 491  734.8734
 492  758.2064
 493  731.3137
 494  683.2987
 495  610.9914
 496  692.8409
 497  791.0129
 498  909.3231
 499  846.7574
 500  813.3716
 501  792.1151
 502  883.8358
 503  825.6674
 504  814.7086
 505  742.9535
 506  817.6773
 507  877.938
 508  966.9344
 509  870.5114
 510  775.4092
 511  711.5117
 512  819.6175
 513  757.2316
 514  765.1
 515  826.1373
 516  828.2115
 517  783.1217
 518  777.7695
 519  959.7617
 520  955.7182
 521  889.0621
 522  864.4876
 523  830.7758
 524  851.1188
 525  770.4996
 526  744.8651
 527  678.112
 528  653.5668
 529  742.7687
 530  780.8256
 531  829.2755
 532  889.5801
 533  945.722
 534  884.2869
 535  818.7517
 536  807.6536
 537  828.0156
 538  779.2029
 539  851.6484
 540  932.6581
 541  959.9389
 542  832.0521
 543  777.9091
 544  741.2701
 545  811.9105
 546  850.3989
 547  881.5369
 548  917.9279
 549  884.5421
 550  878.0833
 551  938.462
 552  944.6037
 553  943.216
 554  827.1235
 555  906.9843
 556  933.3192
 557  976.1892
 558  981.2989
 559  936.9153
 560  927.1125
 561  904.4207
 562  865.0124
 563  809.5621
 564  841.7892
 565  934.7286
 566  912.6293
 567  885.1456
 568  745.8651
 569  819.805
 570  809.9357
 571  909.2303
 572  883.1302
 573  886.1334
 574  813.6271
 575  755.3321
 576  860.3342
 577  898.6408
 578  958.9373
 579  989.9062
 580  1005.455
 581  989.0342
 582  921.2722
 583  1004.977
 584  1014.566
 585  1016.931
 586  991.462
 587  1104.423
 588  1119.803
 589  1119.717
 590  1227.305
 591  1425.241
 592  1465.655
 593  1402.749
 594  1444.83
 595  1496.058
 596  1518.1
 597  1549.72
 598  1627.091
 599  1660.789
 600  1540.217
 601  1231.635
 602  1001.503
 603  913.9289
 604  929.0201
 605  901.137
 606  904.0319
 607  925.5333
 608  912.8494
 609  861.4987
 610  804.4689
 611  701.7801
 612  687.0005
 613  777.6687
 614  876.0961
 615  888.3986
 616  869.1534
 617  852.6462
 618  973.418
 619  984.2035
 620  1060.665
 621  1133.987
 622  1096.139
 623  987.442
 624  919.9778
 625  1018.774
 626  1042.04
 627  1071.256
 628  1035.472
 629  974.5679
 630  889.4883
 631  789.7126
 632  679.7462
 633  615.8098
 634  741.0548
 635  788.6031
 636  819.5261
 637  727.914
 638  796.2227
 639  839.7726
 640  868.8105
 641  780.9299
 642  817.9373
 643  786.3867
 644  922.6342
 645  921.9213
 646  879.6616
 647  685.0685
 648  652.7824
 649  695.498
 650  852.5311
 651  806.0627
 652  832.4819
 653  738.6763
 654  772.2838
 655  703.9167
 656  803.3409
 657  847.8776
 658  902.5866
 659  908.3059
 660  939.8817
 661  877.0919
 662  777.0258
 663  652.218
 664  681.7117
 665  740.1937
 666  876.9177
 667  1009.029
 668  1106.05
 669  1099.685
 670  1046.874
 671  991.0874
 672  859.209
 673  842.38
 674  966.5095
 675  1031.815
 676  970.3389
 677  819.4357
 678  888.838
 679  899.0555
 680  954.0551
 681  891.0804
 682  919.3683
 683  892.3777
 684  959.4775
 685  974.6729
 686  910.4243
 687  887.6517
 688  809.9094
 689  818.7205
 690  738.2582
 691  826.0227
 692  917.7509
 693  966.2145
 694  892.7485
 695  795.8882
 696  787.4238
 697  815.3822
 698  866.9247
 699  826.6933
 700  861.9636
 701  785.1171
 702  695.0096
 703  659.3337
 704  800.5247
 705  911.6675
 706  915.1398
 707  795.8879
 708  785.0411
 709  838.2662
 710  904.3482
 711  916.4538
 712  934.0853
 713  938.0563
 714  931.544
 715  927.9354
 716  843.1624
 717  801.1407
 718  786.7993
 719  786.469
 720  741.6191
 721  679.7212
 722  637.8021
 723  707.178
 724  795.0372
 725  859.7178
 726  798.5475
 727  757.9584
 728  671.0256
 729  723.5669
 730  689.152
 731  640.024
 732  627.5879
 733  754.9798
 734  868.1964
 735  936.9088
 736  893.8595
 737  916.6084
 738  816.4363
 739  862.4712
 740  844.1301
 741  954.2325
 742  891.3741
 743  794.2662
 744  742.9813
 745  746.1934
 746  817.543
 747  905.8712
 748  953.2685
 749  911.3489
 750  893.6967
 751  953.5625
 752  928.0499
 753  862.9073
 754  779.0842
 755  785.5123
 756  838.113
 757  934.499
 758  974.0812
 759  877.9778
 760  810.0368
 761  789.5223
 762  756.4954
 763  662.6775
 764  588.8373
 765  735.125
 766  872.1706
 767  980.09
 768  1065.306
 769  994.7924
 770  852.1327
 771  719.0959
 772  793.2977
 773  943.0026
 774  979.7867
 775  935.9049
 776  843.142
 777  864.6732
 778  830.1081
 779  859.7794
 780  928.4684
 781  998.0045
 782  917.1006
 783  825.4037
 784  860.3654
 785  915.551
 786  986.0275
 787  1011.863
 788  1052.399
 789  957.2029
 790  803.5563
 791  746.1406
 792  769.0068
 793  853.5815
 794  852.2485
 795  852.2112
 796  861.1219
 797  883.5786
 798  905.237
 799  905.4077
 800  933.1373
 801  965.8122
 802  951.5289
 803  807.8074
 804  737.2867
 805  661.3347
 806  724.9327
 807  652.3127
 808  707.501
 809  786.5417
 810  823.4081
 811  964.0225
 812  927.0562
 813  932.2708
 814  844.2582
 815  853.8874
 816  917.6436
 817  851.6701
 818  796.1564
 819  705.7148
 820  733.8547
 821  731.1963
 822  605.2918
 823  529.0494
 824  658.0009
 825  817.5128
 826  798.2083
 827  704.7422
 828  648.1713
 829  639.5889
 830  574.0034
 831  567.7305
 832  590.3452
 833  749.0649
 834  865.6093
 835  955.7923
 836  933.9683
 837  893.2845
 838  831.0947
 839  837.9446
 840  837.4166
 841  787.9046
 842  750.4473
 843  676.702
 844  657.7469
 845  573.6233
 846  668.3726
 847  800.0507
 848  887.3387
 849  748.7221
 850  622.174
 851  732.099
 852  736.8892
 853  703.4251
 854  623.5529
 855  595.3286
 856  659.9879
 857  646.3209
 858  812.55
 859  758.6447
 860  728.181
 861  696.0731
 862  713.5222
 863  795.4468
 864  818.7006
 865  674.6471
 866  639.3901
 867  581.9619
 868  645.4391
 869  643.4328
 870  716.9346
 871  778.3262
 872  805.6077
 873  708.1565
 874  642.8519
 875  670.4098
 876  746.8422
 877  763.6694
 878  724.5449
 879  755.8199
 880  773.5455
 881  760.8313
 882  735.3835
 883  720.2227
 884  706.5623
 885  826.2455
 886  871.0679
 887  989.2251
 888  876.8986
 889  697.4717
 890  552.0168
 891  506.1372
 892  599.9733
 893  584.1209
 894  616.3344
 895  644.692
 896  754.6484
 897  773.3434
 898  732.8812
 899  689.2113
 900  565.4679
 901  498.3492
 902  483.7365
 903  599.3377
 904  597.0433
 905  590.9594
 906  614.0646
 907  672.0067
 908  582.0132
 909  471.2682
 910  438.6312
 911  565.0854
 912  672.5044
 913  741.082
 914  753.5648
 915  712.5105
 916  638.9238
 917  615.5023
 918  645.3473
 919  593.9898
 920  580.5724
 921  666.7321
 922  690.1981
 923  771.5166
 924  662.638
 925  677.524
 926  521.675
 927  531.9539
 928  574.4362
 929  677.1654
 930  763.8245
 931  783.7645
 932  796.1841
 933  832.8432
 934  855.0982
 935  868.6805
 936  874.1393
 937  786.6
 938  671.4388
 939  620.4319
 940  717.9192
 941  746.7941
 942  742.2661
 943  768.0192
 944  804.3382
 945  844.4689
 946  755.2307
 947  711.5231
 948  671.2919
 949  628.8453
 950  732.5015
 951  718.9662
 952  793.7164
 953  799.8042
 954  817.3357
 955  821.7821
 956  836.4542
 957  815.4426
 958  865.6788
 959  815.646
 960  745.2265
 961  557.8589
 962  671.055
 963  770.899
 964  831.9149
 965  720.1622
 966  667.0723
 967  646.9608
 968  682.5518
 969  744.4598
 970  765.679
 971  789.5754
 972  761.3456
 973  731.1647
 974  754.7634
 975  783.2492
 976  803.2982
 977  792.7966
 978  746.4126
 979  685.777
 980  658.7051
 981  651.9045
 982  641.897
 983  613.0187
 984  742.8869
 985  761.942
 986  743.064
 987  604.0104
 988  642.2141
 989  696.6306
 990  714.1096
 991  663.1616
 992  628.983
 993  602.3574
 994  733.8937
 995  733.758
 996  704.2823
 997  694.6585
 998  667.2388
 999  672.1993
1000  665.3126
1001  795.2914
1002  836.5614
1003  865.5755
1004  855.2772
1005  861.0657
1006  910.538
1007  905.8801
1008  828.71
1009  818.1931
1010  761.2721
1011  767.6002
1012  709.2908
1013  834.6044
1014  900.58
1015  914.0704
1016  744.7389
1017  626.933
1018  642.6022
1019  710.5416
1020  803.7626
1021  829.6072
1022  812.6152
1023  760.343
