# Input file       =  1212648328.110973_cleaned.dat
# Candidate        =  PSR_0332+5434
# Telescope        =  AR
# Epoch_topo       =  58279.281795265888
# Epoch_bary       =  N/A
# T_sample         =  0.002
# Data Folded      =  7340032
# Data Avg         =  -0.075089584867654
# Data StdDev      =  4.82528922764833 
# Profile Bins     =  512
# Profile Avg      =  -1076.59115987064
# Profile StdDev   =  577.746530622435 
# Reduced chi-sqr  =  0.817
# Prob(Noise)      <  0.999   (~0.0 sigma)
# P_topo (ms)      =  714.507978919938  +/- 0.000431
# P'_topo (s/s)    =  -0                +/- 2.27e-10
# P''_topo (s/s^2) =  0                 +/- 1e-13
# P_bary (ms)      =  N/A
# P'_bary (s/s)    =  N/A
# P''_bary (s/s^2) =  N/A
# P_orb (s)        =  N/A
# asin(i)/c (s)    =  N/A
# eccentricity     =  N/A
# w (rad)          =  N/A
# T_peri           =  N/A
######################################################
   0  -1052.007
   1  -578.0311
   2  -504.1143
   3  -117.7968
   4  -215.9415
   5  319.463
   6  669.5195
   7  1031.13
   8  775.1977
   9  583.0435
  10  15.27707
  11  -318.6433
  12  -1053.178
  13  -1147.89
  14  -1085.881
  15  -1391.213
  16  -1561.979
  17  -1238.394
  18  -700.4319
  19  -681.6812
  20  -868.9849
  21  -776.1343
  22  -622.8747
  23  -892.8032
  24  -1100.093
  25  -1329.746
  26  -1119.505
  27  -1107.577
  28  -1386.279
  29  -1483.581
  30  -1150.68
  31  -1095.812
  32  -1182.265
  33  -1378.332
  34  -1724.057
  35  -2069.644
  36  -1855.097
  37  -1470.172
  38  -1542.339
  39  -1266.19
  40  -930.8549
  41  -733.9077
  42  -1297.897
  43  -1657.327
  44  -1514.422
  45  -1402.877
  46  -883.9174
  47  -1261.526
  48  -1085.082
  49  -1155.152
  50  -1451.351
  51  -1336.165
  52  -1570.427
  53  -1124.772
  54  -1188.823
  55  -1412.737
  56  -1402.048
  57  -1001.275
  58  -969.6756
  59  -1134.955
  60  -1392.771
  61  -1221.561
  62  -1350.021
  63  -1466.617
  64  -991.3965
  65  -1035.073
  66  -1349.84
  67  -1578.943
  68  -1722.421
  69  -1188.377
  70  -1344.381
  71  -1196.823
  72  -1408.702
  73  -1509.213
  74  -1821.066
  75  -1696.064
  76  -1377.986
  77  -1034.895
  78  -898.5765
  79  -1413.286
  80  -1434.628
  81  -1551.7
  82  -1525.452
  83  -737.4799
  84  -687.4562
  85  -725.713
  86  -887.6089
  87  -883.5988
  88  -1160.684
  89  -1308.346
  90  -1069.697
  91  -1072.3
  92  -1091.6
  93  -1141.84
  94  -1559.355
  95  -1255.26
  96  -857.6931
  97  -1145.236
  98  -1416.583
  99  -1338.72
 100  -1510.218
 101  -1278.781
 102  -888.0718
 103  -640.3046
 104  -1078.004
 105  -1359.644
 106  -1025.078
 107  -966.7285
 108  -926.8458
 109  -1184.638
 110  -888.0831
 111  -1195.046
 112  -1168.855
 113  -943.3147
 114  -637.1188
 115  -821.8687
 116  -1001.202
 117  -1217.369
 118  -865.8677
 119  -733.1462
 120  -592.959
 121  -430.0725
 122  -452.3931
 123  -176.6331
 124  -848.9754
 125  -772.7153
 126  -608.1538
 127  -1051.69
 128  -962.7708
 129  -962.5154
 130  -989.7294
 131  -788.2966
 132  -890.3245
 133  -1038.275
 134  -1147.276
 135  -1205.604
 136  -1353.787
 137  -1098.458
 138  -553.8649
 139  -590.9212
 140  -1041.04
 141  -1153.428
 142  -1275.863
 143  -1168.425
 144  -867.3355
 145  -1072.723
 146  -1298.802
 147  -1426.057
 148  -1421.853
 149  -1434.9
 150  -1533.544
 151  -1617.602
 152  -1191.719
 153  -727.7503
 154  -1047.405
 155  -1148.168
 156  -1225.038
 157  -1420.278
 158  -1403.275
 159  -1491.832
 160  -1481.398
 161  -1465.901
 162  -1404.467
 163  -1352.853
 164  -1235.652
 165  -847.3472
 166  -1180.644
 167  -1455.691
 168  -1880.802
 169  -1582.036
 170  -1539.359
 171  -1657.224
 172  -1211.84
 173  -861.195
 174  -1151.86
 175  -1630.75
 176  -1454.986
 177  -1280.752
 178  -1253.983
 179  -750.0901
 180  -742.4396
 181  -648.6345
 182  -1046.073
 183  -1126.49
 184  -711.3147
 185  -490.8011
 186  -847.7895
 187  -1300.744
 188  -1151.059
 189  -959.262
 190  -1087.717
 191  -1179.99
 192  -951.835
 193  -1340.279
 194  -1830.991
 195  -1978.809
 196  -1299.778
 197  -1008.515
 198  -1171.073
 199  -1134.207
 200  -1410.614
 201  -1506.478
 202  -1806.533
 203  -1409.141
 204  -1090.833
 205  -1136.894
 206  -1374.217
 207  -1433.145
 208  -1445.716
 209  -1176.116
 210  -885.6399
 211  -1077.138
 212  -1512.301
 213  -1322.903
 214  -1349.702
 215  -1389.002
 216  -1011.203
 217  -1482.73
 218  -1325.974
 219  -1246.914
 220  -1009.581
 221  -1325.132
 222  -1068.201
 223  -953.814
 224  -914.6708
 225  -917.8364
 226  -1084.743
 227  -930.7405
 228  -967.1315
 229  -1087.775
 230  -1202.547
 231  -1382.444
 232  -1735.198
 233  -952.1718
 234  -1359.828
 235  -1351.219
 236  -1301.231
 237  -1855.761
 238  -1882.85
 239  -1514.359
 240  -1263.217
 241  -1275.39
 242  -1134.726
 243  -724.0402
 244  -660.1801
 245  -817.4672
 246  -1063.901
 247  -608.5638
 248  -642.1591
 249  -1001.115
 250  -991.3464
 251  -796.1923
 252  -945.3292
 253  -932.8912
 254  -633.7151
 255  -539.5215
 256  -1406.912
 257  -1730.978
 258  -1393.108
 259  -965.9537
 260  -821.8501
 261  -495.7446
 262  -935.0137
 263  -1374.868
 264  -1219.483
 265  -502.907
 266  -469.202
 267  -447.6872
 268  -850.4561
 269  -1161.327
 270  -1079.097
 271  -696.4948
 272  -1074.459
 273  -1152.33
 274  -650.3687
 275  -778.0728
 276  -998.5511
 277  -838.1165
 278  -494.9648
 279  -753.069
 280  -739.4789
 281  -1091.552
 282  -1011.506
 283  -1077.36
 284  -917.6406
 285  -789.999
 286  -880.7808
 287  -1368.529
 288  -733.3252
 289  -408.6432
 290  -578.9902
 291  -974.8646
 292  -1005.608
 293  -1191.996
 294  -1313.021
 295  -1504.698
 296  -822.944
 297  -870.6265
 298  -1376.641
 299  -1608.252
 300  -1401.513
 301  -1081.022
 302  -1424.325
 303  -742.3775
 304  -634.6116
 305  -752.9215
 306  -720.0862
 307  -882.5367
 308  -513.601
 309  -711.3447
 310  -963.9296
 311  -948.1168
 312  -474.6133
 313  -944.8912
 314  -952.7864
 315  -790.0523
 316  -961.332
 317  -1291.852
 318  -1142.684
 319  -941.2565
 320  -964.3527
 321  -1404.089
 322  -1469.731
 323  -1050.876
 324  -915.0567
 325  -663.9775
 326  -867.3795
 327  -1023.186
 328  -1308.252
 329  -957.0909
 330  -958.1603
 331  -1180.806
 332  -1347.884
 333  -1377.97
 334  -1627.797
 335  -926.0628
 336  -909.9125
 337  -1402.154
 338  -1273.158
 339  -1195.049
 340  -1069.644
 341  -1139.407
 342  -1031.564
 343  -797.6517
 344  -1135.482
 345  -1036.914
 346  -869.4439
 347  -606.5762
 348  -687.8553
 349  -757.7448
 350  -740.3689
 351  -653.2341
 352  -812.8867
 353  -1303.724
 354  -1015.334
 355  -1142.289
 356  -1273.33
 357  -1044.442
 358  -714.2237
 359  -686.7031
 360  -1019.985
 361  -847.2818
 362  -581.3734
 363  -945.2562
 364  -1293.128
 365  -413.4078
 366  287.2449
 367  -451.8842
 368  -1078.486
 369  -1139.895
 370  -954.1517
 371  -1168.4
 372  -1310.222
 373  -573.7034
 374  -666.5208
 375  -1117.232
 376  -1422.311
 377  -1245.414
 378  -954.7612
 379  -992.418
 380  -1173.948
 381  -1342.901
 382  -1225.871
 383  -1547.247
 384  -1166.236
 385  -575.3859
 386  -448.6948
 387  -1082.007
 388  -1462.341
 389  -1240.791
 390  -1321.975
 391  -1273.241
 392  -1309.826
 393  -878.142
 394  -1008.966
 395  -1229.559
 396  -843.2997
 397  -953.0831
 398  -1240.463
 399  -1079.236
 400  -946.7617
 401  -657.0796
 402  -873.377
 403  -647.5912
 404  -1060.238
 405  -1426.267
 406  -1550.435
 407  -1132.413
 408  -747.4774
 409  -814.8616
 410  -1120.401
 411  -826.2308
 412  -756.8748
 413  -1290.088
 414  -1187.808
 415  -757.6987
 416  -814.0009
 417  -783.7555
 418  -675.0708
 419  -1012.579
 420  -1290.082
 421  -828.4758
 422  -1001.888
 423  -1429.562
 424  -948.0471
 425  -858.1854
 426  -819.7141
 427  -828.5588
 428  -1149.467
 429  -1398.418
 430  -1228.963
 431  -790.3221
 432  -239.8741
 433  -356.8761
 434  -422.3344
 435  -450.1664
 436  -346.7479
 437  -626.9107
 438  -1043.194
 439  -952.5084
 440  -1001.982
 441  -1329.631
 442  -1441.812
 443  -1123.94
 444  -1135.33
 445  -1670.414
 446  -1633.241
 447  -1592.87
 448  -1378.602
 449  -1355.198
 450  -1577.658
 451  -1838.654
 452  -1409.911
 453  -1371.326
 454  -1793.48
 455  -1825.628
 456  -1231.156
 457  -1312.582
 458  -1487.864
 459  -1550.827
 460  -1584.108
 461  -1030.392
 462  -1063.176
 463  -1595.621
 464  -1723.019
 465  -1797.074
 466  -1567.342
 467  -1247.57
 468  -1289.709
 469  -1491.812
 470  -1496.144
 471  -1297.141
 472  -1401.729
 473  -1299.858
 474  -1361.857
 475  -965.4146
 476  -704.0184
 477  -957.5719
 478  -1039.44
 479  -1273.978
 480  -1148.083
 481  -1324.565
 482  -1226.085
 483  -1176.806
 484  -954.3214
 485  -1083.474
 486  -1097.367
 487  -1270.195
 488  -1266.362
 489  -1067.898
 490  -1241.19
 491  -944.1852
 492  -808.6257
 493  -854.8721
 494  -792.5542
 495  -802.2569
 496  -863.7772
 497  -977.2491
 498  -872.3786
 499  -826.0876
 500  -1384.375
 501  -1160.505
 502  -958.9409
 503  -776.1218
 504  -1132.148
 505  -1678.108
 506  -1143.641
 507  -807.8188
 508  -1028.137
 509  -1078.786
 510  -846.8585
 511  -1054.303
