# Input file       =  1212202951.119541_cleaned.dat
# Candidate        =  PSR_0332+5434
# Telescope        =  AR
# Epoch_topo       =  58274.126968976168
# Epoch_bary       =  N/A
# T_sample         =  0.002
# Data Folded      =  7208960
# Data Avg         =  0.0516735778716067
# Data StdDev      =  1.00005779860108 
# Profile Bins     =  512
# Profile Avg      =  727.561576197181 
# Profile StdDev   =  118.666034127896 
# Reduced chi-sqr  =  2.019
# Prob(Noise)      <  1.85e-37   (~12.7 sigma)
# P_topo (ms)      =  714.512924506954  +/- 7.79e-05
# P'_topo (s/s)    =  -0                +/- 4.19e-11
# P''_topo (s/s^2) =  0                 +/- 1.88e-14
# P_bary (ms)      =  N/A
# P'_bary (s/s)    =  N/A
# P''_bary (s/s^2) =  N/A
# P_orb (s)        =  N/A
# asin(i)/c (s)    =  N/A
# eccentricity     =  N/A
# w (rad)          =  N/A
# T_peri           =  N/A
######################################################
   0  768.1142
   1  748.1814
   2  792.3489
   3  766.4598
   4  632.7078
   5  591.6097
   6  595.1949
   7  551.1055
   8  590.5352
   9  646.4951
  10  781.1308
  11  807.661
  12  735.8027
  13  566.4598
  14  616.8842
  15  618.3448
  16  560.6091
  17  699.0814
  18  720.9914
  19  719.4006
  20  760.7434
  21  649.8837
  22  573.0717
  23  606.9929
  24  630.4141
  25  662.1203
  26  704.1877
  27  677.461
  28  616.4208
  29  499.4255
  30  448.7214
  31  506.4985
  32  595.7665
  33  718.8878
  34  608.6609
  35  648.2944
  36  669.1992
  37  586.3162
  38  691.8414
  39  697.5726
  40  572.3274
  41  668.0979
  42  737.1228
  43  701.0273
  44  675.4456
  45  544.8195
  46  611.9097
  47  500.7746
  48  570.0422
  49  675.3328
  50  773.2791
  51  737.45
  52  733.5098
  53  693.7608
  54  578.4615
  55  589.5737
  56  550.2799
  57  664.1917
  58  649.3798
  59  761.1951
  60  672.9253
  61  627.5699
  62  614.7471
  63  648.9798
  64  622.0082
  65  615.0566
  66  683.1473
  67  843.6549
  68  847.2015
  69  626.5048
  70  710.1866
  71  778.8006
  72  669.5688
  73  530.7735
  74  588.6882
  75  749.5037
  76  686.8021
  77  677.1545
  78  616.0413
  79  586.2291
  80  659.5851
  81  681.3668
  82  644.77
  83  738.8021
  84  770.097
  85  703.4663
  86  741.9769
  87  732.7119
  88  690.5265
  89  642.7725
  90  644.9683
  91  720.3775
  92  686.5892
  93  756.9807
  94  610.8046
  95  503.7034
  96  599.2354
  97  660.1332
  98  753.2672
  99  739.28
 100  763.0738
 101  783.881
 102  796.8754
 103  737.7975
 104  644.5274
 105  671.327
 106  720.2528
 107  787.0259
 108  815.3757
 109  732.6404
 110  714.0005
 111  618.2379
 112  572.7258
 113  683.4652
 114  680.2601
 115  746.0417
 116  731.9111
 117  819.7702
 118  782.1441
 119  732.7554
 120  742.1519
 121  703.4645
 122  687.0887
 123  814.258
 124  811.4098
 125  731.0002
 126  628.9172
 127  676.5274
 128  666.8409
 129  674.3113
 130  668.8721
 131  693.2206
 132  830.6019
 133  821.2155
 134  864.0041
 135  979.406
 136  760.5764
 137  668.3027
 138  760.634
 139  826.7431
 140  742.9731
 141  699.5011
 142  788.531
 143  705.1024
 144  641.0455
 145  512.2783
 146  628.8913
 147  768.3285
 148  640.9861
 149  637.735
 150  682.0769
 151  730.2133
 152  692.0991
 153  812.3878
 154  826.3982
 155  715.8158
 156  655.4128
 157  632.7592
 158  716.5062
 159  595.1928
 160  546.6385
 161  656.3503
 162  713.2172
 163  566.6429
 164  586.2068
 165  726.9649
 166  800.6107
 167  864.575
 168  737.6042
 169  645.8201
 170  611.6008
 171  616.0427
 172  727.459
 173  745.2585
 174  779.1312
 175  766.9139
 176  671.2259
 177  674.1273
 178  620.8513
 179  616.0896
 180  659.2701
 181  687.8356
 182  756.1908
 183  827.4615
 184  709.717
 185  747.8754
 186  857.2309
 187  733.1166
 188  695.2542
 189  629.4655
 190  686.8973
 191  688.5699
 192  820.9636
 193  765.3202
 194  691.5357
 195  709.7128
 196  693.4938
 197  686.1245
 198  684.6519
 199  855.7905
 200  896.1351
 201  883.1014
 202  957.7669
 203  870.002
 204  798.1798
 205  769.9773
 206  713.7599
 207  930.0485
 208  958.5728
 209  804.9798
 210  698.3484
 211  683.1434
 212  701.0803
 213  717.3785
 214  940.2968
 215  1141.454
 216  1357.013
 217  1367.885
 218  1315.26
 219  1295.377
 220  1180.423
 221  958.9161
 222  782.3039
 223  875.0389
 224  917.1009
 225  772.3951
 226  780.3922
 227  735.9445
 228  641.3406
 229  723.7424
 230  859.3231
 231  914.1007
 232  1048.723
 233  1066.795
 234  814.8643
 235  785.6505
 236  882.9177
 237  826.1822
 238  848.1663
 239  896.0715
 240  858.3842
 241  803.1808
 242  741.7582
 243  737.0187
 244  739.0013
 245  808.8125
 246  786.6837
 247  652.8428
 248  808.6179
 249  850.058
 250  908.6661
 251  854.3434
 252  806.7567
 253  805.7983
 254  746.9168
 255  855.5206
 256  777.2754
 257  738.3615
 258  709.7536
 259  795.5952
 260  859.3033
 261  765.1779
 262  764.5588
 263  874.0783
 264  953.4564
 265  940.6507
 266  833.4382
 267  879.342
 268  900.1597
 269  743.5404
 270  813.7226
 271  836.7649
 272  745.4492
 273  741.9493
 274  885.1865
 275  902.0087
 276  763.0131
 277  794.3607
 278  738.5931
 279  750.5378
 280  920.8682
 281  925.6586
 282  944.8525
 283  864.9505
 284  841.3807
 285  849.6691
 286  844.9667
 287  876.4197
 288  906.3605
 289  950.244
 290  948.9413
 291  799.4945
 292  822.9065
 293  815.7772
 294  675.4046
 295  678.0839
 296  852.4926
 297  997.7726
 298  1016.745
 299  1097.326
 300  1030.577
 301  894.5284
 302  919.316
 303  935.8512
 304  915.6973
 305  803.0858
 306  774.4224
 307  793.2822
 308  754.741
 309  719.4679
 310  716.8326
 311  798.5971
 312  797.6328
 313  722.5231
 314  671.7328
 315  730.0934
 316  862.827
 317  901.7064
 318  684.0862
 319  734.913
 320  846.4405
 321  783.6204
 322  725.0891
 323  816.1887
 324  833.1949
 325  773.3391
 326  729.7084
 327  633.7272
 328  706.0839
 329  701.7834
 330  787.7971
 331  776.5132
 332  674.447
 333  690.4392
 334  806.8647
 335  719.533
 336  633.274
 337  716.2689
 338  713.6804
 339  684.8726
 340  688.5593
 341  659.9877
 342  742.52
 343  622.0175
 344  768.8855
 345  714.0209
 346  590.378
 347  605.3044
 348  734.5629
 349  768.1932
 350  697.17
 351  711.9088
 352  895.4464
 353  818.1791
 354  757.313
 355  758.6243
 356  703.6807
 357  693.4872
 358  756.0909
 359  779.3359
 360  784.2625
 361  716.7782
 362  702.4438
 363  813.0692
 364  773.9804
 365  759.329
 366  780.2693
 367  853.0922
 368  749.4753
 369  734.1379
 370  706.2407
 371  790.6973
 372  763.5591
 373  730.7442
 374  824.7635
 375  868.2184
 376  803.5011
 377  774.9338
 378  799.1775
 379  778.2147
 380  776.459
 381  864.7742
 382  845.4222
 383  865.0004
 384  850.256
 385  735.0316
 386  697.5486
 387  677.1629
 388  793.0839
 389  772.3274
 390  804.217
 391  775.2477
 392  698.3989
 393  727.5651
 394  739.4381
 395  850.6004
 396  810.4387
 397  734.9987
 398  865.8314
 399  839.231
 400  727.199
 401  680.2021
 402  679.894
 403  669.4902
 404  778.2838
 405  756.4096
 406  662.441
 407  646.8712
 408  624.262
 409  541.6475
 410  578.257
 411  603.265
 412  732.6391
 413  698.97
 414  711.9378
 415  732.1243
 416  726.924
 417  742.2655
 418  709.772
 419  632.0891
 420  621.9372
 421  678.6504
 422  652.1097
 423  585.9661
 424  498.7802
 425  584.3416
 426  563.0697
 427  598.2405
 428  540.2352
 429  544.1084
 430  640.5427
 431  653.1608
 432  734.0391
 433  681.3655
 434  705.7441
 435  716.4021
 436  729.7025
 437  723.2594
 438  598.1245
 439  555.467
 440  593.2379
 441  604.902
 442  559.8035
 443  581.8461
 444  644.1802
 445  782.3644
 446  689.3358
 447  764.5717
 448  755.7112
 449  704.4011
 450  471.8937
 451  628.8025
 452  698.4977
 453  708.4214
 454  652.9933
 455  720.41
 456  715.0666
 457  519.1696
 458  392.8923
 459  428.7456
 460  589.7483
 461  622.9119
 462  706.562
 463  752.9453
 464  852.4331
 465  612.4525
 466  546.9127
 467  681.3867
 468  653.0305
 469  714.7755
 470  689.6889
 471  611.2368
 472  641.975
 473  581.6033
 474  599.5845
 475  530.2919
 476  517.1035
 477  685.1725
 478  777.1899
 479  649.1981
 480  731.4658
 481  737.3531
 482  718.6641
 483  641.4173
 484  716.6553
 485  692.3044
 486  547.0765
 487  612.0208
 488  652.7208
 489  597.8301
 490  553.0333
 491  422.3474
 492  548.1176
 493  629.0324
 494  590.019
 495  680.6835
 496  728.0659
 497  738.0541
 498  720.0238
 499  689.7182
 500  654.6
 501  498.1176
 502  667.3137
 503  660.6245
 504  603.4051
 505  713.2326
 506  553.3262
 507  588.463
 508  683.0667
 509  636.1833
 510  496.2564
 511  561.0068
