# Input file       =  1212131393.119983_cleaned.dat
# Candidate        =  PSR_0332+5434
# Telescope        =  AR
# Epoch_topo       =  58273.298751388691
# Epoch_bary       =  N/A
# T_sample         =  0.002
# Data Folded      =  7340032
# Data Avg         =  0.154242216467017
# Data StdDev      =  3.02409463188332 
# Profile Bins     =  1024
# Profile Avg      =  1105.47818378635 
# Profile StdDev   =  256.032074786838 
# Reduced chi-sqr  =  0.798
# Prob(Noise)      <  1   (~0.0 sigma)
# P_topo (ms)      =  714.513738019987  +/- 0.000296
# P'_topo (s/s)    =  -0                +/- 1.56e-10
# P''_topo (s/s^2) =  0                 +/- 6.9e-14
# P_bary (ms)      =  N/A
# P'_bary (s/s)    =  N/A
# P''_bary (s/s^2) =  N/A
# P_orb (s)        =  N/A
# asin(i)/c (s)    =  N/A
# eccentricity     =  N/A
# w (rad)          =  N/A
# T_peri           =  N/A
######################################################
   0  1137.922
   1  1065.26
   2  1008.538
   3  1071.012
   4  1091.199
   5  1126.574
   6  1195.512
   7  1252.863
   8  1303.935
   9  1256.13
  10  1211.532
  11  1115.217
  12  1087.777
  13  1087.875
  14  1193.949
  15  1303.356
  16  1331.841
  17  1366.151
  18  1308.584
  19  1258.042
  20  1314.155
  21  1419.367
  22  1345.031
  23  1250.82
  24  1195.336
  25  1231.34
  26  1228.574
  27  1091.62
  28  1081.621
  29  1155.273
  30  1400.123
  31  1454.665
  32  1379.825
  33  1234.87
  34  1166.817
  35  1113.733
  36  1017.004
  37  1044.804
  38  1119.121
  39  1296.774
  40  1276.595
  41  1233.209
  42  1305.546
  43  1268.135
  44  1260.572
  45  1237.432
  46  1315.25
  47  1305.024
  48  1250.514
  49  1207.887
  50  1194.319
  51  1248.73
  52  1324.42
  53  1366.762
  54  1348.413
  55  1309.747
  56  1249.085
  57  1305.635
  58  1283.324
  59  1274.568
  60  1241.445
  61  1239.151
  62  1116.93
  63  1040.082
  64  1085.057
  65  1110.461
  66  1080.796
  67  1011.244
  68  1141.511
  69  1247.573
  70  1262.162
  71  1207.218
  72  1153.831
  73  1192.319
  74  1035.876
  75  926.3748
  76  1005.577
  77  1285.887
  78  1406.175
  79  1298.657
  80  1174.572
  81  1067.776
  82  1087.069
  83  1062.405
  84  1186.028
  85  1255.563
  86  1303.06
  87  1144.468
  88  1116.672
  89  1071.916
  90  1164.667
  91  1121.01
  92  1184.803
  93  1160.2
  94  1127.263
  95  1161.819
  96  1190.557
  97  1195.024
  98  1134.87
  99  1040.504
 100  992.0842
 101  1019.751
 102  1093.691
 103  1096.414
 104  1154.67
 105  1212.786
 106  1225.588
 107  1112.764
 108  1091.566
 109  1177.942
 110  1169.768
 111  1128.468
 112  996.8991
 113  1046.495
 114  1058.007
 115  1129.578
 116  1049.456
 117  977.193
 118  1005.368
 119  1113.415
 120  1155.339
 121  1088.112
 122  1100.435
 123  1096.324
 124  1117.778
 125  1041.771
 126  1098.049
 127  1085.442
 128  1139.842
 129  1123.479
 130  1179.391
 131  1212.611
 132  1189.84
 133  1136.607
 134  1120.475
 135  1064.995
 136  1102.544
 137  1088.258
 138  1151.286
 139  1013.786
 140  976.2509
 141  963.6034
 142  1091.626
 143  1104.61
 144  1117.76
 145  1138.378
 146  1194.042
 147  1136.628
 148  1152.367
 149  1120.564
 150  1175.802
 151  1166.745
 152  1204.76
 153  1201.665
 154  1104.335
 155  1049.497
 156  1010
 157  1027.749
 158  1055.987
 159  1118.061
 160  1174.713
 161  1160.795
 162  1095.41
 163  1093.5
 164  1101.577
 165  1183.826
 166  1202.565
 167  1179.401
 168  1130.897
 169  1108.612
 170  1220.722
 171  1177.629
 172  1125.312
 173  1100.513
 174  1096.837
 175  1050.995
 176  995.7785
 177  1044.242
 178  1108.247
 179  1165.2
 180  1193.1
 181  1114.355
 182  1078.599
 183  1148.079
 184  1213.809
 185  1262.083
 186  1211.489
 187  1160.983
 188  1027.127
 189  1062.32
 190  1197.421
 191  1280.968
 192  1209.367
 193  1167.548
 194  1234.399
 195  1294.471
 196  1276.226
 197  1250.787
 198  1261.688
 199  1244.625
 200  1192.417
 201  1229.922
 202  1220.073
 203  1177.174
 204  1104.378
 205  1112.41
 206  1170.311
 207  1157.666
 208  1088.584
 209  1087.597
 210  1098.096
 211  1126.574
 212  994.9869
 213  974.7732
 214  964.468
 215  1088.052
 216  1152.182
 217  1160.885
 218  1075.014
 219  1027.683
 220  1014.776
 221  1133.317
 222  1157.675
 223  1103.293
 224  940.5025
 225  911.1127
 226  955.3023
 227  1016.323
 228  1049.376
 229  1023.998
 230  1101.278
 231  1169.83
 232  1253.529
 233  1245.438
 234  1131.979
 235  1065.481
 236  1011.955
 237  1050.945
 238  1103.58
 239  1176.848
 240  1160.876
 241  1120.014
 242  1093.43
 243  1174.605
 244  1221.023
 245  1240.531
 246  1268.036
 247  1143.231
 248  1026.001
 249  999.8736
 250  1076.035
 251  1202.007
 252  1174.444
 253  1206.077
 254  1128.708
 255  1152.32
 256  1160.481
 257  1143.759
 258  975.3682
 259  1028.963
 260  1080.725
 261  1087.562
 262  914.9176
 263  1015.154
 264  1096.507
 265  1058.593
 266  892.1079
 267  870.048
 268  950.5511
 269  1031.796
 270  1028.707
 271  1026.581
 272  1059.208
 273  1092.999
 274  1169.198
 275  1266.511
 276  1313.698
 277  1295.297
 278  1196.378
 279  1207.7
 280  1239.063
 281  1171.757
 282  1113.696
 283  952.5025
 284  1047.647
 285  1081.931
 286  1220.563
 287  1116.048
 288  1188.941
 289  1179.98
 290  1195.986
 291  1124.367
 292  1056.795
 293  1141.063
 294  1206.419
 295  1211.227
 296  1201.365
 297  1250.036
 298  1283.355
 299  1090.321
 300  1004.471
 301  977.2117
 302  1086.612
 303  1092.168
 304  1077.362
 305  1046.024
 306  1072.709
 307  1114.448
 308  978.199
 309  967.551
 310  977.3926
 311  1123.569
 312  1171.464
 313  1212.589
 314  1166.549
 315  1138.467
 316  1086.392
 317  1152.127
 318  1126.474
 319  1081.307
 320  976.1242
 321  980.4125
 322  1008.895
 323  998.7825
 324  976.4032
 325  1037.039
 326  1121.707
 327  1144.633
 328  1159.58
 329  1061.234
 330  991.6523
 331  978.3643
 332  1056.523
 333  1025.557
 334  951.026
 335  960.5196
 336  1017.551
 337  1040.718
 338  1101.859
 339  1082.325
 340  980.9397
 341  875.4073
 342  870.567
 343  966.7336
 344  1053.532
 345  1032.632
 346  1013.496
 347  906.1914
 348  959.1224
 349  981.2781
 350  1110.115
 351  1059.497
 352  1056.583
 353  951.7708
 354  922.5925
 355  854.6408
 356  916.2646
 357  975.563
 358  954.5864
 359  965.8774
 360  1069.14
 361  1193.836
 362  1154.983
 363  1018.779
 364  896.4984
 365  864.7648
 366  933.9108
 367  847.0881
 368  864.125
 369  763.1548
 370  851.8157
 371  877.1003
 372  1102.81
 373  1231.873
 374  1211.468
 375  1126.657
 376  1042.963
 377  1048.102
 378  1073.4
 379  1080.467
 380  1070.525
 381  1018.599
 382  944.7398
 383  1035.191
 384  1048.698
 385  1049.183
 386  1025.553
 387  988.2145
 388  1006.646
 389  891.645
 390  960.1179
 391  988.7756
 392  1145.815
 393  1276.698
 394  1355.354
 395  1288.524
 396  1208.593
 397  1195.064
 398  1237.116
 399  1206.416
 400  1152.901
 401  1131.558
 402  1141.012
 403  1116.841
 404  1167.887
 405  1186.595
 406  1208.221
 407  1210.262
 408  1224.677
 409  1201.138
 410  1239.105
 411  1291.422
 412  1228.847
 413  1169.187
 414  1101.078
 415  1193.019
 416  1239.853
 417  1234.698
 418  1154.881
 419  1114.194
 420  1197.45
 421  1218.196
 422  1215.204
 423  1216.267
 424  1192.593
 425  1201.382
 426  1244.443
 427  1275.438
 428  1297.274
 429  1185.745
 430  1149.242
 431  1097.821
 432  1058.245
 433  1117.173
 434  1106.051
 435  1213.498
 436  1186.166
 437  1204.535
 438  1224.167
 439  1300.2
 440  1368.368
 441  1329.509
 442  1193.361
 443  1130.681
 444  1115.683
 445  1201.471
 446  1198.32
 447  1258.131
 448  1266.831
 449  1221.897
 450  1114.766
 451  1068.494
 452  1081.76
 453  1137.435
 454  1183.883
 455  1158.891
 456  1047.333
 457  996.9187
 458  993.5141
 459  1140.895
 460  1199.407
 461  1370.312
 462  1328.838
 463  1315.594
 464  1202.692
 465  1185.943
 466  1314.725
 467  1187.864
 468  1084.567
 469  977.2959
 470  1060.41
 471  1056.036
 472  965.108
 473  902.2092
 474  1031.725
 475  1099.899
 476  1204.275
 477  1182.527
 478  1177.077
 479  1176.757
 480  1125.185
 481  1168.532
 482  1113.608
 483  976.4718
 484  866.0839
 485  808.5117
 486  1044.817
 487  1094.651
 488  1131.763
 489  1075.958
 490  1029.036
 491  966.3498
 492  976.1649
 493  1132.298
 494  1306.134
 495  1256.401
 496  1122.418
 497  995.6844
 498  1021.206
 499  1044.345
 500  1134.695
 501  1068.933
 502  1048.811
 503  1118.156
 504  1066.431
 505  1039.97
 506  929.0341
 507  961.4417
 508  932.1054
 509  944.5576
 510  1060.316
 511  1211.638
 512  1216.449
 513  1115.984
 514  1019.975
 515  1054.173
 516  1067.736
 517  955.1443
 518  821.1865
 519  800.7626
 520  889.036
 521  916.8138
 522  907.0933
 523  948.6613
 524  1054.131
 525  1234.296
 526  1245.924
 527  1232.591
 528  1126.863
 529  1153.249
 530  1217.571
 531  1264.228
 532  1172.191
 533  1085.297
 534  1096.414
 535  1106.375
 536  1080.826
 537  1090.148
 538  1063.792
 539  1058.518
 540  970.9644
 541  973.2924
 542  981.4612
 543  975.1923
 544  1000.483
 545  967.8609
 546  930.2937
 547  1002.399
 548  1103.724
 549  1169.775
 550  1068.344
 551  1038.532
 552  1049.957
 553  1099.629
 554  1098.331
 555  989.6677
 556  969.7442
 557  975.7848
 558  1079.346
 559  1083.598
 560  1090.726
 561  1080.891
 562  1193.265
 563  1182.375
 564  1099.749
 565  1048.13
 566  1100.153
 567  1015.208
 568  907.5231
 569  864.2936
 570  926.3704
 571  936.6942
 572  970.2643
 573  996.3754
 574  1055.296
 575  1018.933
 576  972.2276
 577  1088.404
 578  1190.702
 579  1233.967
 580  1104.681
 581  1072.854
 582  1089.887
 583  1044.851
 584  1022.832
 585  1076.736
 586  1185.879
 587  1180.299
 588  1071.7
 589  1040.26
 590  1083.234
 591  1163.987
 592  1224.89
 593  1336.411
 594  1540.376
 595  1670.562
 596  1737.477
 597  1749.387
 598  1728.137
 599  1689.199
 600  1568.059
 601  1486.151
 602  1342.413
 603  1325.07
 604  1215.801
 605  1320.225
 606  1166.74
 607  1139.481
 608  915.746
 609  1019.709
 610  948.0096
 611  941.0368
 612  956.2618
 613  1007.625
 614  1054.964
 615  969.7123
 616  997.226
 617  997.8505
 618  964.7277
 619  991.3132
 620  947.5858
 621  986.6854
 622  838.9741
 623  794.759
 624  759.6469
 625  892.0913
 626  926.6239
 627  1057.357
 628  1172.348
 629  1222.052
 630  1124.17
 631  1012.577
 632  950.6788
 633  991.3908
 634  1044.135
 635  1114.199
 636  1078.641
 637  1025.963
 638  1074.148
 639  1054.411
 640  981.6279
 641  843.2736
 642  864.0076
 643  944.8439
 644  973.2287
 645  933.3346
 646  902.6125
 647  932.7302
 648  944.9537
 649  914.6814
 650  876.2659
 651  861.8525
 652  890.6541
 653  945.7922
 654  1009.783
 655  1050.948
 656  1073.512
 657  1108.188
 658  1103.346
 659  1032.278
 660  1034.638
 661  1007.153
 662  1032.717
 663  1052.237
 664  1012.533
 665  913.0509
 666  911.1907
 667  1007.328
 668  1118.678
 669  1118.902
 670  1107.414
 671  1090.835
 672  1159.823
 673  1137.54
 674  1153.25
 675  1161.299
 676  1166.021
 677  1252.366
 678  1260.866
 679  1320.284
 680  1160.275
 681  1144.767
 682  1155.481
 683  1311.653
 684  1251.241
 685  1182.082
 686  1081.233
 687  1015.092
 688  943.6449
 689  959.2214
 690  977.4163
 691  1042.166
 692  1047.544
 693  1060.563
 694  1095.837
 695  1178.229
 696  1230.274
 697  1195.704
 698  1190.225
 699  1122.194
 700  1156.507
 701  1118.651
 702  1187.582
 703  1244.752
 704  1180.941
 705  1058.019
 706  967.5225
 707  1045.558
 708  1041.603
 709  1123.757
 710  1159.589
 711  1240.411
 712  1121.815
 713  1098.184
 714  1077.155
 715  1118.87
 716  1195.318
 717  1226.659
 718  1240.882
 719  1196.461
 720  1207.068
 721  1232.085
 722  1252.055
 723  1259.344
 724  1270.713
 725  1284.878
 726  1279.935
 727  1255.439
 728  1268.397
 729  1240.647
 730  1342.699
 731  1433.021
 732  1436.091
 733  1320.746
 734  1295.026
 735  1370.203
 736  1347.772
 737  1236.391
 738  1073.216
 739  1117.94
 740  1131.42
 741  1062.718
 742  1078.393
 743  1065.539
 744  1124.047
 745  1049.124
 746  1028.05
 747  996.9181
 748  1032.841
 749  1049.819
 750  1070.719
 751  1032.76
 752  1104.515
 753  1135.5
 754  1107.726
 755  1027.497
 756  952.312
 757  1038.61
 758  1002.31
 759  1008.534
 760  923.3775
 761  939.0579
 762  959.3593
 763  967.4557
 764  1074.649
 765  1084.993
 766  1104.487
 767  1093.76
 768  1187.196
 769  1242.338
 770  1271.116
 771  1243.037
 772  1244.758
 773  1272.755
 774  1237.292
 775  1221.642
 776  1166.181
 777  1181.474
 778  1156.115
 779  1150.159
 780  1167.965
 781  1325.291
 782  1330.892
 783  1336.031
 784  1149.123
 785  1034.154
 786  1011.644
 787  1085.819
 788  1232.303
 789  1256.989
 790  1292.912
 791  1287.398
 792  1322.931
 793  1255.788
 794  1160.163
 795  1169.292
 796  1209.797
 797  1203.827
 798  1135.283
 799  1128.318
 800  1235.844
 801  1239.099
 802  1213.882
 803  1058.006
 804  1034.799
 805  1025.045
 806  1067.395
 807  1038.103
 808  1056.282
 809  1045.431
 810  1057.193
 811  1057.777
 812  1078.914
 813  996.2499
 814  977.9802
 815  1101.25
 816  1182.608
 817  1197.667
 818  1128.18
 819  1128.524
 820  1124.588
 821  1119.259
 822  1063.469
 823  934.6752
 824  876.1874
 825  952.7219
 826  1056.348
 827  1061.417
 828  1018.758
 829  1000.735
 830  963.0176
 831  984.7346
 832  934.7568
 833  998.1967
 834  1100.697
 835  1163.103
 836  1033.622
 837  967.0579
 838  1024.067
 839  1142.198
 840  1131.758
 841  1050.111
 842  910.761
 843  993.7578
 844  1047.419
 845  1185.462
 846  1204.227
 847  1162.542
 848  1027.437
 849  897.7551
 850  936.2136
 851  945.9233
 852  972.7632
 853  1071.183
 854  1178.708
 855  1279.783
 856  1365.278
 857  1397.184
 858  1218.514
 859  1061.772
 860  986.2042
 861  1097.088
 862  1188.401
 863  1257.526
 864  1253.132
 865  1184.315
 866  1199.666
 867  1159.038
 868  1254.17
 869  1164.001
 870  1062.131
 871  990.2242
 872  981.7551
 873  1052.819
 874  1053.611
 875  1060.651
 876  1021.518
 877  1024.47
 878  1027.326
 879  1001.038
 880  1010.315
 881  1046.224
 882  1117.412
 883  1072.588
 884  968.9643
 885  867.8126
 886  1006.15
 887  1117.851
 888  1199.903
 889  1069.376
 890  1034.075
 891  978.2617
 892  956.6392
 893  955.0524
 894  1050.31
 895  1035.002
 896  984.6954
 897  938.7096
 898  1031.597
 899  1002.89
 900  1102.75
 901  1135.622
 902  1216.562
 903  1230.286
 904  1263.175
 905  1216.367
 906  1181.464
 907  1130.858
 908  1042.407
 909  956.1687
 910  994.1977
 911  1090.448
 912  1163.452
 913  1145.07
 914  1077.444
 915  1024.676
 916  1095.657
 917  1131.404
 918  1126.59
 919  1119.623
 920  1127.473
 921  1149.964
 922  1138.343
 923  1076.499
 924  1000.108
 925  941.5656
 926  1006.811
 927  1124.165
 928  1216.887
 929  1186.744
 930  1011.693
 931  905.8649
 932  878.0254
 933  956.8925
 934  917.573
 935  881.4604
 936  828.7133
 937  909.584
 938  1001.441
 939  1068.783
 940  1067.852
 941  1085.638
 942  1074.486
 943  1027.087
 944  951.7006
 945  975.4578
 946  927.6389
 947  916.1678
 948  833.6371
 949  938.0624
 950  923.1949
 951  968.7694
 952  937.2443
 953  914.0784
 954  930.6868
 955  912.1327
 956  888.4601
 957  902.1748
 958  946.6037
 959  1005.059
 960  1003.814
 961  1026.637
 962  995.2274
 963  1003.613
 964  957.9655
 965  980.5217
 966  931.0007
 967  880.1631
 968  882.3718
 969  917.1144
 970  1013.331
 971  1045.106
 972  990.6846
 973  951.5132
 974  999.6672
 975  1038.57
 976  916.9179
 977  828.3044
 978  843.7556
 979  917.8129
 980  1025.435
 981  1026.611
 982  1125.772
 983  1094.27
 984  1173.317
 985  1150.396
 986  1231.649
 987  1186.3
 988  1068.696
 989  994.6686
 990  992.7749
 991  1083.666
 992  1159.258
 993  1181.539
 994  1225.575
 995  1234.585
 996  1296.186
 997  1147.942
 998  990.4542
 999  992.3572
1000  1065.2
1001  1206.437
1002  1154.042
1003  1059.25
1004  970.0421
1005  1021.295
1006  1097.734
1007  1144.35
1008  1071.456
1009  1097.622
1010  1141.97
1011  1190.328
1012  1239.916
1013  1210.004
1014  1228.79
1015  1108.784
1016  1071.75
1017  980.8286
1018  1031.434
1019  1111.671
1020  1042.014
1021  1125.029
1022  1146.676
1023  1277.403
