# Input file       =  1212389877.101829_cleaned.dat
# Candidate        =  PSR_0332+5434
# Telescope        =  AR
# Epoch_topo       =  58276.290464141537
# Epoch_bary       =  N/A
# T_sample         =  0.002
# Data Folded      =  7340032
# Data Avg         =  0.101581960580786
# Data StdDev      =  2.89249089578768 
# Profile Bins     =  1024
# Profile Avg      =  728.108810182087 
# Profile StdDev   =  244.889970552724 
# Reduced chi-sqr  =  1.246
# Prob(Noise)      <  1.16e-07   (~5.2 sigma)
# P_topo (ms)      =  714.510848070996  +/- 0.000453
# P'_topo (s/s)    =  -0                +/- 2.39e-10
# P''_topo (s/s^2) =  0                 +/- 1.06e-13
# P_bary (ms)      =  N/A
# P'_bary (s/s)    =  N/A
# P''_bary (s/s^2) =  N/A
# P_orb (s)        =  N/A
# asin(i)/c (s)    =  N/A
# eccentricity     =  N/A
# w (rad)          =  N/A
# T_peri           =  N/A
######################################################
   0  465.1118
   1  437.2625
   2  470.5166
   3  421.4328
   4  408.3685
   5  430.2203
   6  506.1698
   7  575.459
   8  546.5416
   9  484.857
  10  502.879
  11  564.8157
  12  634.2205
  13  557.66
  14  492.873
  15  458.3911
  16  569.3892
  17  644.8074
  18  673.736
  19  691.2571
  20  631.2418
  21  599.0753
  22  557.6144
  23  660.2041
  24  660.7982
  25  559.8142
  26  531.6208
  27  590.8834
  28  749.9364
  29  729.6439
  30  661.2399
  31  590.334
  32  613.168
  33  586.9278
  34  571.3021
  35  662.5539
  36  775.1289
  37  809.9588
  38  816.3624
  39  765.4432
  40  759.4856
  41  725.4204
  42  606.6205
  43  458.0771
  44  437.5884
  45  496.7458
  46  578.5772
  47  610.0618
  48  716.9113
  49  658.3555
  50  591.6461
  51  590.5427
  52  644.9219
  53  686.2952
  54  697.2615
  55  746.5182
  56  724.0876
  57  663.1155
  58  537.4115
  59  480.6921
  60  619.9847
  61  735.6155
  62  787.3862
  63  721.0884
  64  649.46
  65  565.9171
  66  598.2206
  67  700.1967
  68  719.5033
  69  688.8034
  70  594.0055
  71  608.101
  72  631.6265
  73  640.087
  74  532.4773
  75  496.1731
  76  597.7565
  77  679.3679
  78  664.0437
  79  614.9085
  80  613.6608
  81  713.7814
  82  768.1367
  83  803.9062
  84  784.3641
  85  762.7864
  86  719.5437
  87  616.1772
  88  652.5851
  89  656.6924
  90  679.6162
  91  685.3076
  92  785.97
  93  839.4077
  94  811.7722
  95  715.329
  96  647.7259
  97  679.3694
  98  771.7065
  99  806.8346
 100  862.5204
 101  873.0098
 102  960.4495
 103  905.0081
 104  867.2598
 105  875.5558
 106  941.9741
 107  852.6734
 108  734.9792
 109  593.8141
 110  645.1633
 111  670.9831
 112  708.2313
 113  656.3294
 114  671.8641
 115  591.9435
 116  598.9711
 117  693.0492
 118  743.5592
 119  737.8999
 120  550.2751
 121  520.2985
 122  542.1071
 123  665.4565
 124  697.2802
 125  691.9777
 126  662.2697
 127  619.2543
 128  675.1448
 129  754.3295
 130  734.3971
 131  668.7373
 132  692.3524
 133  662.907
 134  614.7957
 135  558.4805
 136  600.6284
 137  667.0865
 138  638.887
 139  620.4355
 140  560.8665
 141  620.6993
 142  747.5276
 143  834.8929
 144  771.9468
 145  569.2823
 146  504.9044
 147  570.069
 148  780.5284
 149  821.6464
 150  837.1435
 151  760.7875
 152  817.9463
 153  760.8671
 154  633.8878
 155  629.9826
 156  633.663
 157  693.0138
 158  672.8798
 159  718.8315
 160  691.7823
 161  675.8149
 162  713.8879
 163  753.4597
 164  695.4462
 165  613.2554
 166  684.9835
 167  773.9626
 168  896.0844
 169  832.4224
 170  808.0291
 171  807.4156
 172  803.5895
 173  872.7488
 174  870.2635
 175  885.7932
 176  790.5848
 177  795.976
 178  861.9484
 179  946.5577
 180  820.55
 181  684.1557
 182  608.4514
 183  636.2349
 184  697.2291
 185  763.1332
 186  814.4193
 187  855.4689
 188  829.2969
 189  820.2125
 190  735.6855
 191  722.8465
 192  723.4881
 193  711.1183
 194  769.3713
 195  858.5616
 196  851.9802
 197  814.3057
 198  734.555
 199  655.8009
 200  662.6245
 201  699.7523
 202  728.5388
 203  636.0235
 204  662.8981
 205  711.0064
 206  729.0943
 207  680.0959
 208  584.1202
 209  515.4839
 210  551.0866
 211  644.9811
 212  709.0042
 213  638.7651
 214  630.7505
 215  621.2086
 216  666.3649
 217  678.9841
 218  605.8253
 219  557.2303
 220  558.1157
 221  668.9574
 222  737.3564
 223  731.4627
 224  724.1598
 225  817.4197
 226  900.162
 227  900.014
 228  860.3954
 229  769.1915
 230  707.5544
 231  674.2815
 232  700.6348
 233  820.9726
 234  867.9266
 235  869.3837
 236  854.6282
 237  777.3755
 238  702.7631
 239  573.3033
 240  663.9788
 241  689.1141
 242  768.6517
 243  718.1319
 244  683.3223
 245  646.7866
 246  689.3411
 247  774.9083
 248  722.0118
 249  680.6184
 250  633.1383
 251  699.4221
 252  653.3324
 253  689.0073
 254  849.2096
 255  847.3392
 256  781.203
 257  650.7587
 258  651.5549
 259  669.0468
 260  729.4994
 261  792.9677
 262  882.0594
 263  903.3881
 264  942.4097
 265  801.2141
 266  758.4131
 267  641.6694
 268  696.4224
 269  700.111
 270  629.9206
 271  563.6661
 272  523.7722
 273  547.4232
 274  593.785
 275  662.2907
 276  777.6301
 277  943.3104
 278  1029.363
 279  992.8798
 280  883.6168
 281  748.8788
 282  664.42
 283  646.467
 284  714.2217
 285  725.1854
 286  645.2385
 287  681.3061
 288  733.2698
 289  752.8859
 290  748.4603
 291  871.7562
 292  896.9424
 293  863.9924
 294  708.9704
 295  608.2592
 296  606.2253
 297  672.1508
 298  740.029
 299  704.165
 300  661.7928
 301  580.6021
 302  574.6896
 303  605.1448
 304  646.2294
 305  632.5775
 306  633.3026
 307  717.98
 308  712.1887
 309  644.4679
 310  582.9284
 311  622.899
 312  631.9259
 313  605.2094
 314  600.1298
 315  668.0744
 316  718.2919
 317  779.8092
 318  851.2311
 319  980.7078
 320  922.199
 321  893.1162
 322  910.7811
 323  933.316
 324  894.4558
 325  817.8362
 326  830.7294
 327  794.8553
 328  743.6875
 329  705.4235
 330  744.9431
 331  730.9578
 332  783.2822
 333  841.1774
 334  905.5298
 335  954.3126
 336  871.7547
 337  774.4956
 338  714.943
 339  792.5156
 340  832.1951
 341  786.178
 342  733.0879
 343  742.0511
 344  841.9758
 345  912.1297
 346  906.3243
 347  963.147
 348  903.8963
 349  829.4463
 350  758.6507
 351  786.9064
 352  802.7524
 353  737.3696
 354  680.791
 355  735.3088
 356  727.3475
 357  825.8835
 358  836.0545
 359  857.9964
 360  760.3309
 361  679.6309
 362  649.9306
 363  620.4972
 364  654.0361
 365  695.601
 366  703.4137
 367  764.4955
 368  727.0777
 369  723.1849
 370  557.5712
 371  568.7279
 372  594.5323
 373  635.6734
 374  801.0226
 375  896.3335
 376  980.9418
 377  874.0797
 378  719.766
 379  565.136
 380  505.593
 381  623.3751
 382  759.2299
 383  791.5308
 384  716.0129
 385  657.9027
 386  680.7996
 387  718.9267
 388  748.1991
 389  781.5704
 390  879.0344
 391  872.6846
 392  806.6919
 393  719.1566
 394  701.4996
 395  661.0577
 396  612.2593
 397  647.037
 398  689.9766
 399  765.6583
 400  731.5386
 401  733.5639
 402  724.7164
 403  707.2712
 404  686.0934
 405  710.5221
 406  784.6437
 407  723.0031
 408  575.0418
 409  472.8343
 410  499.5108
 411  513.4374
 412  532.0186
 413  484.977
 414  525.1764
 415  617.7115
 416  688.8976
 417  658.3806
 418  542.5227
 419  512.4335
 420  616.5281
 421  644.0896
 422  636.9093
 423  618.7538
 424  674.0284
 425  656.2963
 426  614.9423
 427  606.9811
 428  614.7094
 429  542.4052
 430  494.8086
 431  531.6764
 432  617.1562
 433  565.0163
 434  588.837
 435  724.9884
 436  755.4947
 437  713.3826
 438  573.2145
 439  649.985
 440  684.5604
 441  709.5343
 442  621.3181
 443  590.2658
 444  535.7624
 445  556.2254
 446  487.2482
 447  587.4997
 448  603.9028
 449  633.9979
 450  622.1359
 451  705.9059
 452  755.4755
 453  746.0165
 454  525.3795
 455  471.5577
 456  490.2385
 457  610.9382
 458  578.4413
 459  462.9132
 460  372.3555
 461  364.1122
 462  489.4368
 463  525.2874
 464  671.4429
 465  763.9328
 466  760.8776
 467  617.239
 468  510.7643
 469  526.4597
 470  539.0409
 471  584.0668
 472  569.9146
 473  562.9616
 474  555.8031
 475  541.9831
 476  516.2368
 477  472.5028
 478  577.512
 479  625.6885
 480  714.3358
 481  642.7412
 482  573.2955
 483  445.4404
 484  503.6906
 485  499.0485
 486  603.8483
 487  579.216
 488  704.563
 489  757.2431
 490  772.0858
 491  643.1486
 492  510.2534
 493  540.7578
 494  619.8622
 495  704.9159
 496  670.6912
 497  660.9398
 498  662.0724
 499  689.7364
 500  648.9637
 501  728.3148
 502  749.9562
 503  700.5814
 504  616.6492
 505  663.5419
 506  725.5287
 507  711.6882
 508  703.9025
 509  672.3848
 510  608.0807
 511  534.5991
 512  582.0384
 513  623.6737
 514  701.3799
 515  699.5833
 516  637.2487
 517  561.905
 518  477.1366
 519  524.9969
 520  505.4015
 521  604.7596
 522  671.9751
 523  860.4017
 524  886.2306
 525  856.9041
 526  590.6534
 527  503.1577
 528  461.7329
 529  645.6096
 530  734.6955
 531  749.5959
 532  662.8076
 533  694.7556
 534  730.494
 535  684.0775
 536  554.8369
 537  483.0865
 538  640.827
 539  709.261
 540  704.8408
 541  609.0538
 542  665.7674
 543  682.7315
 544  631.1483
 545  686.2014
 546  727.213
 547  729.6902
 548  733.1865
 549  766.5999
 550  774.6267
 551  685.3138
 552  628.1782
 553  640.1323
 554  648.742
 555  664.327
 556  649.7767
 557  713.5714
 558  667.3261
 559  723.8237
 560  682.7913
 561  592.5831
 562  439.1374
 563  411.5773
 564  648.2979
 565  792.3256
 566  886.0065
 567  684.9031
 568  525.3993
 569  400.6739
 570  425.7263
 571  503.0596
 572  564.5438
 573  645.7376
 574  653.637
 575  640.1161
 576  657.7773
 577  719.5666
 578  786.3467
 579  743.7037
 580  713.2698
 581  746.655
 582  758.0964
 583  864.352
 584  877.6064
 585  881.265
 586  809.3663
 587  816.8253
 588  801.6037
 589  845.6283
 590  922.3954
 591  1082.304
 592  1233.343
 593  1341.758
 594  1524.669
 595  1657.865
 596  1798.049
 597  1768.823
 598  1741.498
 599  1612.946
 600  1510.748
 601  1377.657
 602  1266.063
 603  1220.178
 604  1077.235
 605  889.2056
 606  691.3203
 607  764.3533
 608  776.0466
 609  798.9408
 610  829.6537
 611  903.5053
 612  803.1042
 613  737.1328
 614  741.3206
 615  799.1481
 616  825.1783
 617  781.1061
 618  744.1779
 619  732.7012
 620  779.55
 621  937.0804
 622  864.3687
 623  831.5915
 624  701.4497
 625  828.3809
 626  795.8152
 627  853.3047
 628  804.9095
 629  855.6062
 630  806.5535
 631  720.3696
 632  779.5564
 633  774.8983
 634  766.2813
 635  699.298
 636  720.5159
 637  721.4131
 638  625.3392
 639  591.9291
 640  634.7362
 641  801.3431
 642  844.9141
 643  770.7292
 644  755.0131
 645  739.7787
 646  742.0743
 647  698.9607
 648  775.8737
 649  775.2542
 650  688.764
 651  651.4064
 652  672.6158
 653  574.7336
 654  453.3055
 655  405.818
 656  508.4662
 657  506.6488
 658  589.3444
 659  576.3179
 660  748.2116
 661  700.7542
 662  670.9821
 663  646.0983
 664  689.575
 665  777.5684
 666  781.1188
 667  772.5968
 668  655.7162
 669  674.2064
 670  693.4839
 671  676.2887
 672  572.4307
 673  533.7408
 674  620.5839
 675  765.1847
 676  765.2784
 677  701.4905
 678  704.8701
 679  860.349
 680  909.7891
 681  857.267
 682  767.1603
 683  778.7642
 684  773.3485
 685  732.2402
 686  780.5523
 687  797.4548
 688  929.0447
 689  928.4613
 690  973.8799
 691  850.6585
 692  801.6599
 693  665.7253
 694  585.1508
 695  644.7272
 696  641.0975
 697  711.1324
 698  646.3951
 699  713.7494
 700  668.5096
 701  692.3974
 702  665.2781
 703  689.2347
 704  695.0375
 705  732.5927
 706  746.894
 707  769.1125
 708  667.4794
 709  569.4918
 710  557.0749
 711  595.4705
 712  754.9192
 713  833.2936
 714  946.7653
 715  912.9376
 716  908.8806
 717  797.9377
 718  724.5877
 719  717.4765
 720  710.3896
 721  763.0948
 722  722.2023
 723  701.7432
 724  674.5285
 725  803.6903
 726  967.5015
 727  909.7925
 728  782.1725
 729  726.1582
 730  727.8128
 731  732.244
 732  794.7491
 733  833.6299
 734  793.1295
 735  687.0269
 736  657.2674
 737  721.3104
 738  730.4371
 739  802.8065
 740  744.7737
 741  638.0274
 742  639.9879
 743  676.7335
 744  774.1915
 745  841.2549
 746  877.7534
 747  863.1969
 748  789.345
 749  687.1276
 750  580.9211
 751  602.5228
 752  678.5433
 753  674.7178
 754  732.3936
 755  719.5811
 756  705.7495
 757  681.7141
 758  787.0238
 759  871.7638
 760  811.275
 761  840.8837
 762  801.5538
 763  834.8918
 764  764.0394
 765  861.1773
 766  816.651
 767  734.6315
 768  629.9885
 769  729.3469
 770  761.4872
 771  643.1564
 772  556.0356
 773  592.0459
 774  690.1822
 775  722.1146
 776  765.1137
 777  753.7067
 778  813.7509
 779  844.9969
 780  781.5607
 781  646.5102
 782  695.2607
 783  807.861
 784  799.984
 785  720.9323
 786  709.6548
 787  729.6973
 788  793.7286
 789  865.6893
 790  919.5562
 791  900.2322
 792  875.6326
 793  955.9998
 794  1004.547
 795  919.4708
 796  801.0405
 797  839.5906
 798  827.8932
 799  865.3951
 800  805.2512
 801  940.5487
 802  915.168
 803  826.7904
 804  717.663
 805  657.8937
 806  693.1
 807  697.7455
 808  740.6098
 809  726.5429
 810  660.0359
 811  620.3928
 812  649.8591
 813  614.0435
 814  502.1343
 815  598.1243
 816  766.3949
 817  810.4962
 818  739.6047
 819  788.783
 820  882.1872
 821  923.5867
 822  850.191
 823  899.3036
 824  864.4788
 825  887.7259
 826  870.6129
 827  939.2433
 828  974.8557
 829  900.3037
 830  831.7473
 831  808.0079
 832  783.379
 833  776.5991
 834  783.5299
 835  821.9299
 836  838.1061
 837  973.3318
 838  1037.425
 839  1021.279
 840  949.8016
 841  863.4434
 842  775.7269
 843  749.0695
 844  776.5673
 845  850.2595
 846  919.8924
 847  944.8071
 848  888.8387
 849  785.5134
 850  858.0794
 851  872.6854
 852  908.4724
 853  874.6899
 854  781.4138
 855  652.6201
 856  649.0131
 857  757.1649
 858  916.9462
 859  986.0891
 860  1077.078
 861  1055.274
 862  927.5869
 863  857.5154
 864  864.4415
 865  846.2839
 866  777.4868
 867  719.3263
 868  759.8312
 869  825.8235
 870  861.9294
 871  823.8711
 872  808.1448
 873  815.884
 874  893.7614
 875  857.327
 876  873.3139
 877  855.1588
 878  866.1219
 879  810.1424
 880  895.1967
 881  881.3543
 882  855.5435
 883  898.3962
 884  921.0676
 885  827.636
 886  713.1916
 887  725.0197
 888  771.3539
 889  727.0576
 890  738.1958
 891  747.228
 892  792.5656
 893  851.2193
 894  835.3288
 895  876.2358
 896  841.2327
 897  953.8402
 898  944.9815
 899  910.3969
 900  838.2842
 901  716.3904
 902  724.4869
 903  770.8796
 904  874.9727
 905  879.2928
 906  919.636
 907  892.2391
 908  842.6739
 909  815.497
 910  816.1054
 911  882.3488
 912  859.2562
 913  876.6234
 914  798.8676
 915  868.6474
 916  844.1057
 917  923.3956
 918  888.5584
 919  859.6892
 920  706.4467
 921  661.835
 922  616.4034
 923  707.579
 924  857.2923
 925  1013.431
 926  1011.149
 927  955.6946
 928  887.0556
 929  900.3343
 930  944.9401
 931  860.7562
 932  821.0029
 933  753.9339
 934  839.7636
 935  871.2029
 936  871.6672
 937  822.8821
 938  762.5898
 939  770.0048
 940  774.8272
 941  754.337
 942  847.0891
 943  995.9256
 944  984.3385
 945  858.3139
 946  695.0379
 947  655.9197
 948  662.61
 949  689.2804
 950  746.797
 951  697.0193
 952  773.3546
 953  756.4719
 954  762.8743
 955  723.9093
 956  700.9276
 957  700.0411
 958  759.1366
 959  880.1494
 960  910.9142
 961  916.1819
 962  977.0153
 963  916.9736
 964  837.6359
 965  780.8073
 966  789.3765
 967  764.2037
 968  637.1223
 969  725.4517
 970  761.5482
 971  831.4266
 972  770.8328
 973  812.8469
 974  946.4681
 975  946.5346
 976  860.085
 977  570.7095
 978  563.8208
 979  677.7534
 980  897.5873
 981  875.0444
 982  756.6409
 983  660.8965
 984  588.9184
 985  589.5131
 986  549.2035
 987  616.5084
 988  610.7724
 989  644.3811
 990  636.589
 991  612.8411
 992  503.6736
 993  404.1703
 994  337.2661
 995  412.9567
 996  582.6489
 997  694.9769
 998  735.5912
 999  649.3987
1000  719.8389
1001  701.5142
1002  711.7568
1003  616.1346
1004  635.277
1005  673.0219
1006  665.0782
1007  620.3007
1008  563.3967
1009  536.3292
1010  593.4147
1011  623.2917
1012  633.467
1013  616.8115
1014  577.2068
1015  642.5928
1016  669.3189
1017  670.3188
1018  543.9891
1019  483.9496
1020  458.6795
1021  569.6561
1022  602.1522
1023  555.0809
