# Input file       =  1212389877.101829_cleaned.dat
# Candidate        =  PSR_0332+5434
# Telescope        =  AR
# Epoch_topo       =  58276.290464141537
# Epoch_bary       =  N/A
# T_sample         =  0.002
# Data Folded      =  7340032
# Data Avg         =  0.101581960580786
# Data StdDev      =  2.89249089578768 
# Profile Bins     =  512
# Profile Avg      =  1456.21762036417 
# Profile StdDev   =  346.326717644811 
# Reduced chi-sqr  =  1.373
# Prob(Noise)      <  4.07e-08   (~5.4 sigma)
# P_topo (ms)      =  714.510848070996  +/- 0.000455
# P'_topo (s/s)    =  -0                +/- 2.4e-10
# P''_topo (s/s^2) =  0                 +/- 1.06e-13
# P_bary (ms)      =  N/A
# P'_bary (s/s)    =  N/A
# P''_bary (s/s^2) =  N/A
# P_orb (s)        =  N/A
# asin(i)/c (s)    =  N/A
# eccentricity     =  N/A
# w (rad)          =  N/A
# T_peri           =  N/A
######################################################
   0  1610.53
   1  1536.22
   2  1623.249
   3  1723.343
   4  1468.888
   5  1618.747
   6  1534.531
   7  1496.538
   8  1802.702
   9  1543.312
  10  1616.739
  11  1654.136
  12  1671.006
  13  1498.549
  14  1545.125
  15  1425.835
  16  1360.528
  17  1208.703
  18  1636.999
  19  1535.136
  20  1482.467
  21  1467.806
  22  1480.786
  23  1319.09
  24  1061.064
  25  899.7455
  26  1086.874
  27  1309.08
  28  1375.28
  29  1326.669
  30  1553.574
  31  1450.108
  32  1364.943
  33  1265.286
  34  1132.232
  35  1530.169
  36  1405.317
  37  1748.209
  38  1642.195
  39  1556.238
  40  1510.84
  41  1696.73
  42  1910.773
  43  1675.463
  44  1269.584
  45  1278.756
  46  1358.128
  47  1377.104
  48  1356.567
  49  1384.946
  50  1468.156
  51  1454.601
  52  1137.141
  53  1316.697
  54  1768.44
  55  1833.769
  56  1538.852
  57  1424.825
  58  1484.892
  59  1372.877
  60  1742.216
  61  1725.614
  62  1450.427
  63  1519.993
  64  1637.651
  65  1346.37
  66  1443.102
  67  1548.928
  68  1291.742
  69  1432.29
  70  1711.084
  71  1664.728
  72  1294.878
  73  1261.06
  74  1403.748
  75  1431.706
  76  1448.266
  77  1686.973
  78  1642.358
  79  1599.931
  80  1676.855
  81  1379.83
  82  1483.66
  83  1222.655
  84  1257.984
  85  1480.947
  86  1555.112
  87  1652.246
  88  1334.572
  89  1605.311
  90  1433.793
  91  1512.62
  92  1772.575
  93  1775.508
  94  1951.314
  95  1741.217
  96  1667.488
  97  1669.167
  98  1851.592
  99  1571.181
 100  1343.577
 101  1435.296
 102  1397.078
 103  1266.431
 104  1129.497
 105  1333.978
 106  1560.061
 107  1647.599
 108  1778.409
 109  1764.655
 110  1759.223
 111  1904.587
 112  1747.56
 113  1597.463
 114  1556.414
 115  1650.62
 116  1996.406
 117  1987.61
 118  1654.084
 119  1519.934
 120  1756.446
 121  1842.03
 122  1639.323
 123  1783.82
 124  1667.573
 125  1308.484
 126  1644.048
 127  2048.486
 128  2007.119
 129  1723.892
 130  1641.934
 131  1468.06
 132  1674.68
 133  1640.379
 134  1702.827
 135  1735.846
 136  1725.426
 137  1697.674
 138  1741.868
 139  1813.045
 140  1564.991
 141  1494.435
 142  1458.317
 143  1536.398
 144  1679.964
 145  1710.602
 146  1896.901
 147  1771.803
 148  1440.61
 149  1626.19
 150  1802.845
 151  1744.454
 152  1627.704
 153  1736.706
 154  1675.979
 155  1705.414
 156  1812.829
 157  1593.328
 158  1278.91
 159  1536.303
 160  2020.465
 161  1851.062
 162  1847.576
 163  1691.471
 164  1579.63
 165  1748.797
 166  1595.492
 167  1550.667
 168  1581.794
 169  1979.765
 170  1582.434
 171  1310.223
 172  1426.509
 173  1472.102
 174  1522.948
 175  1431.643
 176  1441.593
 177  1782.449
 178  1881.811
 179  1779.616
 180  1572.771
 181  1413.478
 182  1477.214
 183  1599.051
 184  1736.968
 185  1834.337
 186  1152.946
 187  1531.44
 188  1657.388
 189  1267.142
 190  1142.751
 191  1224.616
 192  1276.895
 193  1130.169
 194  759.9574
 195  958.0094
 196  1428.015
 197  1368.048
 198  1417.622
 199  1251.18
 200  1337.247
 201  1200.08
 202  1121.797
 203  1254.045
 204  1193.276
 205  1302.286
 206  1237.309
 207  939.6978
 208  1162.456
 209  1039.75
 210  907.793
 211  833.7388
 212  919.6938
 213  1126.679
 214  987.4438
 215  1185.582
 216  1072.36
 217  1009.839
 218  1310.344
 219  1329.883
 220  1152.951
 221  1321.964
 222  1099.89
 223  1318.733
 224  1409.398
 225  1204.131
 226  1157.109
 227  1411.23
 228  1632.665
 229  1522.853
 230  1359.077
 231  906.2247
 232  1061.568
 233  1304.464
 234  1274.772
 235  1222.063
 236  1380.946
 237  1468.717
 238  1220.5
 239  1082.464
 240  1515.643
 241  1383.735
 242  1162.356
 243  1410.992
 244  1295.716
 245  1241.49
 246  1188.061
 247  1072.188
 248  1346.888
 249  1231.462
 250  1457.794
 251  1587.764
 252  1490.613
 253  1276.17
 254  1334.616
 255  1454.771
 256  1650.066
 257  1384.443
 258  1435.081
 259  1663.785
 260  1820.243
 261  1784.651
 262  1807.254
 263  1615.622
 264  1244.757
 265  1376.613
 266  1335.302
 267  1194.713
 268  1412.947
 269  1324.851
 270  1053.464
 271  1350.81
 272  1358.809
 273  1284.139
 274  1489.487
 275  1361.887
 276  1290.34
 277  1155.463
 278  1300.667
 279  1192.002
 280  1343.76
 281  1616.088
 282  1098.929
 283  1315.179
 284  1659.898
 285  1577.854
 286  1420.163
 287  1251.06
 288  1363.574
 289  1415.921
 290  1384.727
 291  1455.144
 292  1287.482
 293  1655.093
 294  1647.999
 295  1604.732
 296  1740.826
 297  1684.713
 298  1646.365
 299  1789.125
 300  1307.617
 301  1319.706
 302  1557.135
 303  1695.599
 304  1571.885
 305  1435.149
 306  1473.301
 307  1707.989
 308  1560.088
 309  1326.312
 310  1428.671
 311  1299.129
 312  1439.539
 313  1279.727
 314  1052.273
 315  1346.792
 316  1276.706
 317  1286.395
 318  1295.624
 319  1110.139
 320  1393.599
 321  1455.75
 322  1694.326
 323  1770.033
 324  1494.327
 325  1370.034
 326  1671.829
 327  1728.851
 328  1501.522
 329  1227.514
 330  1452.757
 331  1411.354
 332  1329.058
 333  1500.364
 334  1318.01
 335  1356.454
 336  1514.359
 337  1652.85
 338  1302.859
 339  1379.117
 340  1660.189
 341  1848.779
 342  1590.988
 343  1331.852
 344  1340.366
 345  1090.258
 346  1135.197
 347  1414.676
 348  1951.071
 349  1895.227
 350  1440.521
 351  1349.883
 352  1384.137
 353  1400.335
 354  1496.747
 355  1755.323
 356  1603.779
 357  1214.719
 358  1401.396
 359  1374.318
 360  1166.293
 361  1240.372
 362  1262.424
 363  1426.524
 364  1236.252
 365  1257.12
 366  1202.567
 367  1374.698
 368  1608.378
 369  1904.454
 370  1798.607
 371  1839.851
 372  1655.748
 373  1548.355
 374  1445.075
 375  1517.686
 376  1729.696
 377  1831.726
 378  1501.362
 379  1613.023
 380  1526.207
 381  1563.586
 382  1820.591
 383  1870.756
 384  1598.098
 385  1592.623
 386  1427.255
 387  1455.125
 388  1654.654
 389  1631.73
 390  1336.55
 391  1268.929
 392  1395.702
 393  1490.407
 394  1298.587
 395  1154.384
 396  1415.317
 397  1867.565
 398  1622.939
 399  1088.616
 400  1361.129
 401  1522.313
 402  1326.575
 403  1463.35
 404  1649.22
 405  1684.408
 406  1425.587
 407  1286.759
 408  1324.339
 409  1499.549
 410  1455.076
 411  1397.765
 412  1487.036
 413  1334.425
 414  965.539
 415  1039.112
 416  1006.123
 417  1295.133
 418  1222.426
 419  1110.291
 420  1284.189
 421  1287.838
 422  1286.91
 423  1217.473
 424  1050.142
 425  1133.929
 426  1143.049
 427  1479.756
 428  1305.809
 429  1313.63
 430  1345.325
 431  1130.6
 432  1049.891
 433  1181.961
 434  1248.816
 435  1444.946
 436  1306.088
 437  954.1902
 438  1193.977
 439  853.9438
 440  834.3776
 441  1175.735
 442  1523.308
 443  1153.404
 444  1062.357
 445  1149.766
 446  1120.708
 447  1063.456
 448  1037.394
 449  1329.044
 450  1239.608
 451  946.8381
 452  1096.409
 453  1272.364
 454  1528.61
 455  1182.7
 456  1133.531
 457  1373.809
 458  1324.689
 459  1343.308
 460  1464.594
 461  1333.604
 462  1372.898
 463  1418.112
 464  1299.589
 465  1108.977
 466  1312.89
 467  1350.514
 468  1051.161
 469  1030.492
 470  1245.886
 471  1728.726
 472  1493.311
 473  963.9841
 474  1349.599
 475  1423.019
 476  1421.169
 477  1268.494
 478  1103.61
 479  1417.481
 480  1272.337
 481  1325.797
 482  1394.688
 483  1464.182
 484  1536.712
 485  1318.447
 486  1290.479
 487  1313.594
 488  1377.708
 489  1412.324
 490  1065.273
 491  1020.803
 492  1665.987
 493  1250.568
 494  823.0484
 495  1059.036
 496  1300.42
 497  1287.046
 498  1495.589
 499  1460.087
 500  1493.34
 501  1730.857
 502  1700.203
 503  1622.886
 504  1744.326
 505  2288.542
 506  2825.882
 507  3430.533
 508  3522.831
 509  3150.441
 510  2676.449
 511  2319.269
