# Input file       =  1212318657.113172_cleaned.dat
# Candidate        =  PSR_0332+5434
# Telescope        =  AR
# Epoch_topo       =  58275.466158717267
# Epoch_bary       =  N/A
# T_sample         =  0.002
# Data Folded      =  7340032
# Data Avg         =  0.0294822445399145
# Data StdDev      =  2.46613994682524 
# Profile Bins     =  512
# Profile Avg      =  422.476899208196 
# Profile StdDev   =  295.278423963423 
# Reduced chi-sqr  =  1.229
# Prob(Noise)      <  0.000301   (~3.4 sigma)
# P_topo (ms)      =  714.511977034157  +/- 0.000167
# P'_topo (s/s)    =  -0                +/- 8.82e-11
# P''_topo (s/s^2) =  0                 +/- 3.89e-14
# P_bary (ms)      =  N/A
# P'_bary (s/s)    =  N/A
# P''_bary (s/s^2) =  N/A
# P_orb (s)        =  N/A
# asin(i)/c (s)    =  N/A
# eccentricity     =  N/A
# w (rad)          =  N/A
# T_peri           =  N/A
######################################################
   0  759.1851
   1  722.225
   2  740.275
   3  397.2892
   4  552.6203
   5  723.6174
   6  431.3438
   7  337.1844
   8  365.781
   9  348.6884
  10  640.3382
  11  473.4164
  12  628.3026
  13  565.1563
  14  490.4426
  15  215.3533
  16  468.9964
  17  293.6025
  18  79.02309
  19  150.6328
  20  481.616
  21  243.325
  22  447.8521
  23  504.7709
  24  448.4149
  25  140.0809
  26  266.9185
  27  378.6852
  28  190.1719
  29  203.6851
  30  377.9036
  31  157.565
  32  26.20303
  33  94.95066
  34  141.6639
  35  182.4023
  36  305.1458
  37  474.0722
  38  192.9593
  39  159.8655
  40  425.4439
  41  169.4098
  42  493.9872
  43  577.0835
  44  208.8685
  45  441.6112
  46  447.1014
  47  464.5398
  48  516.6746
  49  229.6918
  50  272.4712
  51  289.2641
  52  291.7404
  53  292.3291
  54  245.5483
  55  213.6162
  56  180.4483
  57  380.3641
  58  437.5894
  59  204.899
  60  80.42332
  61  285.4714
  62  505.2139
  63  305.1075
  64  396.3184
  65  327.9258
  66  341.0706
  67  343.9239
  68  514.1703
  69  450.769
  70  546.0865
  71  446.9195
  72  371.8378
  73  494.5338
  74  457.58
  75  334.6156
  76  7.738754
  77  97.23887
  78  207.4787
  79  357.4753
  80  387.3167
  81  323.9412
  82  441.0258
  83  257.4719
  84  399.2263
  85  447.695
  86  492.3229
  87  491.6816
  88  545.7922
  89  268.1383
  90  397.8859
  91  358.7847
  92  160.6034
  93  191.8473
  94  453.9279
  95  474.3131
  96  586.3374
  97  410.2266
  98  427.8798
  99  355.3884
 100  -59.29819
 101  197.7615
 102  725.5408
 103  705.0841
 104  612.7965
 105  633.5817
 106  578.1562
 107  217.0312
 108  385.4482
 109  467.2496
 110  401.5933
 111  365.4823
 112  275.0021
 113  365.7838
 114  539.767
 115  262.4362
 116  89.82609
 117  215.9746
 118  419.5581
 119  440.9052
 120  663.4039
 121  605.3628
 122  466.4388
 123  307.0565
 124  175.636
 125  22.09988
 126  10.51058
 127  220.8613
 128  362.8941
 129  255.5695
 130  91.90771
 131  205.9682
 132  565.1975
 133  272.1538
 134  249.114
 135  604.3224
 136  884.2122
 137  592.5655
 138  52.67082
 139  194.1705
 140  60.91023
 141  178.8379
 142  282.9242
 143  588.6198
 144  706.4149
 145  508.6045
 146  542.6956
 147  323.4306
 148  556.9843
 149  788.7885
 150  563.9889
 151  317.5726
 152  245.1287
 153  352.4735
 154  545.8004
 155  439.5535
 156  616.9135
 157  389.0641
 158  451.4545
 159  605.4622
 160  506.04
 161  487.0252
 162  617.0948
 163  572.5926
 164  343.3804
 165  489.1632
 166  388.7638
 167  408.3892
 168  408.1562
 169  581.8206
 170  401.5365
 171  198.2811
 172  387.7873
 173  398.0854
 174  474.8572
 175  531.3917
 176  662.7736
 177  766.0717
 178  845.4274
 179  625.0173
 180  531.5416
 181  682.03
 182  420.6351
 183  416.8989
 184  618.2239
 185  415.5353
 186  472.1279
 187  490.552
 188  372.6562
 189  400.071
 190  430.4564
 191  443.6137
 192  123.716
 193  457.2181
 194  503.5477
 195  260.1661
 196  299.657
 197  313.0614
 198  -106.8534
 199  28.8621
 200  293.2679
 201  430.6925
 202  380.6209
 203  333.3829
 204  188.6212
 205  239.3146
 206  471.4897
 207  369.9281
 208  435.9268
 209  777.8993
 210  662.1786
 211  413.2843
 212  290.9104
 213  361.6046
 214  156.7641
 215  82.44648
 216  311.0414
 217  374.3801
 218  453.7581
 219  528.3109
 220  461.4363
 221  263.5065
 222  27.65525
 223  47.42615
 224  506.1262
 225  665.1
 226  430.663
 227  134.7153
 228  131.6934
 229  456.4835
 230  376.2792
 231  355.8479
 232  532.4967
 233  107.2726
 234  66.39399
 235  -59.14479
 236  89.7403
 237  124.0531
 238  487.1064
 239  542.2791
 240  423.4094
 241  129.5938
 242  -50.13065
 243  237.8671
 244  498.2694
 245  352.2096
 246  346.7615
 247  518.5073
 248  393.3445
 249  627.6173
 250  125.035
 251  167.9977
 252  138.6797
 253  353.0853
 254  250.4364
 255  190.9735
 256  376.6499
 257  421.6698
 258  181.9673
 259  304.8277
 260  291.93
 261  385.8888
 262  366.122
 263  -68.51231
 264  -57.34953
 265  90.58531
 266  351.3101
 267  566.2181
 268  348.4312
 269  609.0066
 270  691.828
 271  473.3578
 272  397.6843
 273  241.7309
 274  145.6538
 275  435.6569
 276  351.1911
 277  276.0928
 278  341.7968
 279  481.7454
 280  198.2883
 281  462.4855
 282  413.7231
 283  206.4105
 284  302.813
 285  402.374
 286  415.0946
 287  502.2405
 288  673.4771
 289  639.807
 290  522.1237
 291  557.9012
 292  816.1228
 293  844.0989
 294  682.9353
 295  963.3932
 296  1317.264
 297  1698.2
 298  1850.212
 299  1917.162
 300  1622.933
 301  1039.44
 302  579.912
 303  314.8015
 304  133.1814
 305  771.9601
 306  807.1731
 307  677.2548
 308  566.3665
 309  370.2441
 310  -14.05776
 311  282.9086
 312  624.0695
 313  557.3859
 314  543.8995
 315  654.9155
 316  713.6995
 317  528.1144
 318  336.0487
 319  424.7127
 320  286.2466
 321  250.3066
 322  176.4491
 323  391.6497
 324  661.054
 325  690.2485
 326  729.6692
 327  556.0705
 328  527.734
 329  439.4306
 330  186.0289
 331  229.433
 332  559.4596
 333  329.4487
 334  165.3758
 335  533.4181
 336  345.504
 337  175.0826
 338  -242.215
 339  274.6201
 340  632.5981
 341  546.5609
 342  530.781
 343  619.7018
 344  700.457
 345  468.3473
 346  368.4508
 347  386.0261
 348  434.3271
 349  387.4789
 350  485.7103
 351  517.0457
 352  459.0898
 353  523.5312
 354  421.5846
 355  642.053
 356  663.7809
 357  533.8891
 358  318.9952
 359  558.6318
 360  490.5928
 361  300.5008
 362  329.3937
 363  283.9124
 364  371.8974
 365  664.2401
 366  502.5769
 367  207.4136
 368  604.3472
 369  566.1525
 370  91.92269
 371  300.2656
 372  777.6494
 373  749.2742
 374  756.5286
 375  646.6498
 376  448.0682
 377  541.8975
 378  409.854
 379  328.6666
 380  239.1247
 381  539.4281
 382  492.8438
 383  438.7331
 384  369.7704
 385  217.4681
 386  49.69899
 387  386.7232
 388  509.9789
 389  369.0063
 390  242.0902
 391  391.1358
 392  381.3013
 393  341.9061
 394  753.2358
 395  611.5778
 396  692.4589
 397  301.5976
 398  -62.34699
 399  387.7809
 400  653.5283
 401  634.6971
 402  222.4015
 403  244.7225
 404  252.7717
 405  224.7278
 406  428.7859
 407  478.0921
 408  381.3506
 409  498.2262
 410  537.1027
 411  392.5255
 412  346.8019
 413  404.2903
 414  658.7195
 415  620.8578
 416  509.3693
 417  578.0239
 418  696.3593
 419  624.8847
 420  702.3479
 421  245.6393
 422  135.1112
 423  349.8186
 424  224.3031
 425  464.7966
 426  192.1211
 427  202.3755
 428  297.9273
 429  294.4409
 430  499.8593
 431  554.108
 432  564.6723
 433  327.1978
 434  434.0363
 435  239.6372
 436  329.1895
 437  596.1174
 438  754.305
 439  553.5306
 440  317.5458
 441  559.2008
 442  297.5196
 443  388.3792
 444  660.2878
 445  377.3645
 446  610.9845
 447  459.5871
 448  62.88702
 449  4.917894
 450  212.1092
 451  204.0147
 452  203.4456
 453  542.9948
 454  409.2461
 455  259.4993
 456  169.0946
 457  171.7847
 458  118.7544
 459  238.8852
 460  320.6748
 461  579.5414
 462  607.5334
 463  508.5841
 464  254.8736
 465  332.4168
 466  150.5679
 467  418.5054
 468  347.3825
 469  172.4712
 470  389.8116
 471  445.6826
 472  550.5188
 473  182.9091
 474  114.6476
 475  86.91549
 476  271.6339
 477  407.6779
 478  362.7646
 479  666.0662
 480  603.4144
 481  598.5631
 482  541.1716
 483  761.8835
 484  699.3286
 485  295.6121
 486  751.7802
 487  863.282
 488  628.6452
 489  195.1905
 490  297.0964
 491  759.8995
 492  829.2272
 493  690.1411
 494  699.731
 495  804.8589
 496  694.7732
 497  692.67
 498  769.2702
 499  641.6547
 500  472.3347
 501  843.7193
 502  664.4203
 503  739.1833
 504  979.7018
 505  654.5889
 506  400.092
 507  324.0021
 508  293.9039
 509  633.918
 510  759.7515
 511  809.4486
