# Input file       =  1212663248.110032_cleaned.dat
# Candidate        =  PSR_0332+5434
# Telescope        =  AR
# Epoch_topo       =  58279.454480440188
# Epoch_bary       =  N/A
# T_sample         =  0.002
# Data Folded      =  7340032
# Data Avg         =  0.118200584480032
# Data StdDev      =  3.65156426314119 
# Profile Bins     =  1024
# Profile Avg      =  847.198623161736 
# Profile StdDev   =  309.156189972557 
# Reduced chi-sqr  =  1.047
# Prob(Noise)      <  0.145   (~1.1 sigma)
# P_topo (ms)      =  714.508147396245  +/- 0.000377
# P'_topo (s/s)    =  -0                +/- 1.99e-10
# P''_topo (s/s^2) =  0                 +/- 8.77e-14
# P_bary (ms)      =  N/A
# P'_bary (s/s)    =  N/A
# P''_bary (s/s^2) =  N/A
# P_orb (s)        =  N/A
# asin(i)/c (s)    =  N/A
# eccentricity     =  N/A
# w (rad)          =  N/A
# T_peri           =  N/A
######################################################
   0  929.1368
   1  958.6087
   2  955.121
   3  918.7567
   4  975.8375
   5  1047.329
   6  1003.958
   7  954.3969
   8  811.1901
   9  885.1736
  10  800.0681
  11  811.4778
  12  715.1639
  13  645.2227
  14  542.4278
  15  492.3425
  16  546.2568
  17  739.0244
  18  853.9771
  19  904.8733
  20  882.3488
  21  970.0115
  22  988.8528
  23  875.2034
  24  619.8026
  25  647.0519
  26  780.1821
  27  860.5063
  28  845.6429
  29  726.3902
  30  650.8766
  31  443.9316
  32  539.9852
  33  724.9664
  34  828.4836
  35  809.5142
  36  775.4008
  37  736.3537
  38  633.1483
  39  515.2962
  40  514.875
  41  658.2112
  42  706.6067
  43  810.3736
  44  708.9021
  45  609.5266
  46  586.298
  47  639.6728
  48  815.9831
  49  967.7869
  50  1047.12
  51  1096.118
  52  971.7764
  53  866.4133
  54  793.8945
  55  769.5068
  56  667.0549
  57  554.6234
  58  712.4186
  59  871.1992
  60  803.328
  61  654.4469
  62  553.9722
  63  733.4424
  64  774.5037
  65  774.5933
  66  614.637
  67  678.006
  68  691.1031
  69  635.0112
  70  551.2407
  71  579.3006
  72  746.5848
  73  714.3273
  74  711.2748
  75  664.4763
  76  745.3396
  77  856.9636
  78  839.2961
  79  893.6331
  80  694.9562
  81  655.7596
  82  569.4988
  83  775.2034
  84  975.5838
  85  1114.969
  86  1060.025
  87  949.1874
  88  912.6715
  89  872.5703
  90  1031.265
  91  1137.896
  92  1116.53
  93  1091.653
  94  1080.467
  95  1051.78
  96  912.1605
  97  782.0743
  98  773.9833
  99  759.2769
 100  964.7164
 101  977.0208
 102  893.7848
 103  777.6697
 104  860.3452
 105  932.1735
 106  834.5883
 107  768.9739
 108  838.6285
 109  938.1534
 110  926.0054
 111  875.103
 112  826.3776
 113  747.2227
 114  759.7362
 115  719.4941
 116  742.5671
 117  766.6378
 118  828.0773
 119  935.0422
 120  974.7307
 121  871.7709
 122  747.4485
 123  667.1823
 124  734.6447
 125  873.2994
 126  863.7199
 127  909.4905
 128  922.4489
 129  1177.036
 130  1017.054
 131  951.998
 132  1019.834
 133  1172.991
 134  1177.504
 135  982.6527
 136  921.2631
 137  770.2819
 138  777.402
 139  775.301
 140  758.3414
 141  722.9166
 142  812.304
 143  855.1626
 144  1027.537
 145  829.4836
 146  747.0883
 147  723.8863
 148  812.8513
 149  883.6075
 150  747.4274
 151  887.1191
 152  882.8931
 153  972.9553
 154  857.9016
 155  861.0428
 156  936.0234
 157  846.3511
 158  782.3356
 159  693.35
 160  827.9733
 161  853.5355
 162  916.6232
 163  846.7323
 164  843.8154
 165  985.458
 166  1085.768
 167  1083.368
 168  957.2816
 169  898.6285
 170  929.9909
 171  847.052
 172  751.3571
 173  710.2592
 174  720.7067
 175  816.558
 176  860.3546
 177  942.2825
 178  867.6223
 179  806.0019
 180  691.5408
 181  596.1537
 182  455.8879
 183  508.9245
 184  522.0706
 185  636.2672
 186  689.731
 187  726.5805
 188  689.0032
 189  652.9966
 190  861.8546
 191  940.5074
 192  1046.965
 193  990.7963
 194  941.7828
 195  826.0821
 196  793.9863
 197  818.1573
 198  851.1823
 199  747.0418
 200  815.71
 201  879.3984
 202  966.2236
 203  913.9689
 204  820.9342
 205  742.9127
 206  736.0565
 207  801.607
 208  875.1102
 209  876.0982
 210  766.4196
 211  800.3848
 212  822.4002
 213  851.4477
 214  743.9966
 215  735.9142
 216  763.6003
 217  825.8669
 218  777.2349
 219  806.8629
 220  740.8298
 221  672.6118
 222  570.8146
 223  678.163
 224  786.0787
 225  802.5549
 226  890.4338
 227  883.754
 228  818.7524
 229  551.199
 230  499.5413
 231  747.7048
 232  998.0827
 233  936.1106
 234  802.5741
 235  809.2106
 236  763.9105
 237  672.2142
 238  726.9835
 239  931.9791
 240  1068.267
 241  1093.452
 242  974.6255
 243  894.0435
 244  786.334
 245  869.8685
 246  866.3033
 247  815.6747
 248  791.1437
 249  753.7689
 250  673.8301
 251  501.3789
 252  562.4292
 253  696.7477
 254  831.1298
 255  867.916
 256  933.7464
 257  979.1821
 258  1047.537
 259  848.5408
 260  811.0397
 261  658.1716
 262  688.8768
 263  671.6531
 264  895.5453
 265  1061.96
 266  1290.099
 267  1260.555
 268  1220.282
 269  904.1172
 270  644.8314
 271  567.7728
 272  674.0446
 273  864.9926
 274  909.5013
 275  868.5344
 276  806.9695
 277  826.4272
 278  764.7349
 279  669.8481
 280  672.8021
 281  802.0981
 282  973.3487
 283  885.4052
 284  795.1002
 285  626.9261
 286  561.189
 287  603.4765
 288  660.2921
 289  815.814
 290  818.9665
 291  948.5991
 292  861.6157
 293  842.5831
 294  598.351
 295  635.1011
 296  707.014
 297  674.5273
 298  570.5232
 299  675.5353
 300  775.3934
 301  675.0975
 302  495.1257
 303  450.8231
 304  584.776
 305  697.8322
 306  923.5056
 307  928.9194
 308  806.0658
 309  651.3919
 310  577.444
 311  630.4052
 312  689.3918
 313  776.8715
 314  856.8788
 315  745.1511
 316  739.253
 317  737.6569
 318  939.3309
 319  1009.003
 320  958.0821
 321  959.8151
 322  1053.74
 323  1209.662
 324  997.5981
 325  887.682
 326  869.6779
 327  948.5605
 328  833.9032
 329  707.9451
 330  810.9415
 331  923.6506
 332  996.3381
 333  1077.425
 334  1050.322
 335  1165.299
 336  1227.666
 337  1240.758
 338  1133.466
 339  894.2023
 340  918.189
 341  818.5432
 342  835.8127
 343  642.2241
 344  639.9221
 345  783.4146
 346  827.812
 347  702.503
 348  625.439
 349  653.632
 350  797.815
 351  894.8737
 352  860.4203
 353  730.9277
 354  540.9229
 355  510.2706
 356  505.248
 357  622.2394
 358  781.8246
 359  896.5177
 360  873.7199
 361  837.3752
 362  963.0015
 363  1010.948
 364  1020.71
 365  1137.373
 366  1111.458
 367  1015.768
 368  829.5983
 369  913.9413
 370  1039.314
 371  941.3591
 372  831.5662
 373  619.2348
 374  625.5966
 375  668.2267
 376  682.8783
 377  743.615
 378  819.458
 379  802.9758
 380  691.6123
 381  663.2548
 382  778.9174
 383  828.3027
 384  832.5694
 385  647.1334
 386  647.2521
 387  769.8922
 388  830.858
 389  669.6531
 390  581.7552
 391  742.7409
 392  899.3689
 393  887.1959
 394  789.0378
 395  712.5859
 396  689.0533
 397  655.3911
 398  760.7637
 399  726.416
 400  712.6017
 401  618.4194
 402  649.5473
 403  573.7798
 404  508.3715
 405  575.8437
 406  815.1348
 407  951.7899
 408  931.8107
 409  842.8301
 410  790.4354
 411  673.1129
 412  716.6764
 413  830.9221
 414  941.169
 415  925.7258
 416  894.835
 417  765.4327
 418  717.6173
 419  719.9348
 420  837.0096
 421  850.6254
 422  764.4619
 423  685.5096
 424  649.9545
 425  793.3781
 426  818.8216
 427  819.0219
 428  776.2499
 429  806.6047
 430  844.1226
 431  872.7736
 432  943.3182
 433  1083.564
 434  1166.211
 435  1040.46
 436  928.912
 437  903.4074
 438  858.9174
 439  777.5583
 440  768.3499
 441  836.5306
 442  809.2537
 443  841.887
 444  929.1716
 445  984.9523
 446  1038.577
 447  979.0547
 448  960.8113
 449  669.9335
 450  626.6389
 451  687.4003
 452  845.9792
 453  706.5697
 454  575.8193
 455  596.1305
 456  721.6063
 457  630.9528
 458  658.7073
 459  674.9879
 460  864.3636
 461  856.9616
 462  927.6983
 463  1007.858
 464  885.2706
 465  832.6568
 466  844.2192
 467  903.1803
 468  849.7633
 469  765.4787
 470  793.001
 471  712.7733
 472  561.7181
 473  520.4096
 474  688.5833
 475  741.8947
 476  642.5818
 477  565.6325
 478  676.634
 479  820.6058
 480  783.0703
 481  636.4946
 482  641.4633
 483  605.3937
 484  644.7405
 485  600.9933
 486  541.931
 487  620.0588
 488  594.3275
 489  589.2598
 490  488.4891
 491  484.9955
 492  500.4184
 493  586.0597
 494  635.0872
 495  780.8138
 496  803.9468
 497  865.1157
 498  740.1837
 499  791.892
 500  680.7509
 501  768.157
 502  615.111
 503  655.1433
 504  624.1376
 505  787.9795
 506  755.4363
 507  743.9871
 508  690.53
 509  779.0089
 510  766.2791
 511  733.8135
 512  782.2013
 513  906.5203
 514  890.5447
 515  904.1415
 516  812.9529
 517  877.4043
 518  708.2325
 519  655.3331
 520  711.3644
 521  963.4469
 522  990.4879
 523  871.5065
 524  640.712
 525  556.7877
 526  584.7991
 527  599.7924
 528  528.7017
 529  493.8436
 530  677.1875
 531  989.6867
 532  1060.494
 533  934.9684
 534  699.7479
 535  900.9917
 536  936.1583
 537  883.2396
 538  751.6966
 539  734.1564
 540  711.2078
 541  725.7272
 542  833.858
 543  814.1454
 544  778.8851
 545  832.9122
 546  766.5906
 547  752.4684
 548  763.7997
 549  940.9854
 550  983.6779
 551  984.6302
 552  910.8474
 553  873.3307
 554  904.9686
 555  892.628
 556  987.1178
 557  1029.353
 558  1022.985
 559  1037.403
 560  952.3646
 561  973.3495
 562  985.304
 563  981.9425
 564  953.777
 565  972.8003
 566  1067.758
 567  989.2803
 568  864.1905
 569  765.3472
 570  843.812
 571  944.6752
 572  1006.212
 573  980.4333
 574  975.5416
 575  1066.573
 576  1028.248
 577  960.775
 578  992.5358
 579  1037.517
 580  1051.313
 581  1028.044
 582  997.9329
 583  894.4062
 584  873.8795
 585  897.4388
 586  1056.234
 587  964.8372
 588  1168.995
 589  1351.598
 590  1574.031
 591  1449.641
 592  1396.945
 593  1405.168
 594  1508.383
 595  1562.345
 596  1613.997
 597  1632.432
 598  1665.436
 599  1596.348
 600  1649.635
 601  1520.052
 602  1330.923
 603  1196.232
 604  1201.958
 605  1094.175
 606  911.6851
 607  887.1509
 608  1020.567
 609  1026.526
 610  975.2798
 611  985.7545
 612  1186.753
 613  1150.303
 614  1042.82
 615  917.1381
 616  950.9792
 617  1041.246
 618  1014.908
 619  1025.665
 620  1016.271
 621  1027.087
 622  1029.915
 623  930.9262
 624  886.8604
 625  988.673
 626  1056.263
 627  1079.242
 628  942.9847
 629  806.2337
 630  812.8961
 631  828.8501
 632  790.5859
 633  720.3429
 634  725.4465
 635  796.3796
 636  684.3824
 637  802.9209
 638  888.5231
 639  1110.414
 640  1012.402
 641  875.0074
 642  823.3079
 643  985.2777
 644  1071.878
 645  960.7409
 646  796.4036
 647  790.3616
 648  910.2787
 649  836.8211
 650  821.7836
 651  784.6882
 652  867.712
 653  827.283
 654  884.1392
 655  853.074
 656  758.9056
 657  703.4386
 658  708.6376
 659  680.5267
 660  720.261
 661  882.4407
 662  1005.198
 663  994.3458
 664  981.5258
 665  900.1085
 666  939.0673
 667  937.8516
 668  804.108
 669  720.9552
 670  740.4456
 671  771.0692
 672  784.2438
 673  808.6796
 674  913.826
 675  1033.63
 676  1051.85
 677  961.5092
 678  789.0544
 679  742.7408
 680  613.2447
 681  582.9781
 682  502.736
 683  622.8543
 684  669.3223
 685  707.6889
 686  749.5209
 687  740.4849
 688  779.0482
 689  860.0978
 690  909.1373
 691  946.9013
 692  868.2983
 693  834.3644
 694  915.5367
 695  973.247
 696  1021.395
 697  868.2897
 698  799.4907
 699  727.8119
 700  805.5016
 701  916.4968
 702  961.7818
 703  1035.794
 704  962.4624
 705  845.4279
 706  790.1644
 707  837.6451
 708  987.2548
 709  1042.208
 710  1051.16
 711  927.439
 712  815.0538
 713  853.4952
 714  830.5264
 715  849.201
 716  754.4061
 717  784.2455
 718  844.8802
 719  873.9066
 720  812.501
 721  729.1956
 722  744.8964
 723  847.0286
 724  867.3969
 725  846.4918
 726  677.9802
 727  740.6501
 728  917.004
 729  979.8127
 730  944.3394
 731  838.5923
 732  829.7884
 733  793.557
 734  883.1757
 735  879.602
 736  900.689
 737  966.8834
 738  1152.088
 739  1172.105
 740  1019.844
 741  912.0616
 742  847.2036
 743  1005.521
 744  997.155
 745  1023.577
 746  807.7883
 747  793.8353
 748  835.7358
 749  813.1643
 750  580.0236
 751  528.2905
 752  665.9491
 753  682.6152
 754  646.8165
 755  825.6461
 756  999.0246
 757  1060.561
 758  964.0374
 759  1080.139
 760  1071.08
 761  883.1843
 762  689.0308
 763  504.6859
 764  427.2133
 765  451.9963
 766  650.9545
 767  838.191
 768  917.7722
 769  830.7327
 770  787.2401
 771  816.2622
 772  680.121
 773  715.0283
 774  764.6791
 775  859.6427
 776  815.4695
 777  886.8678
 778  918.0582
 779  961.1387
 780  842.5978
 781  890.8308
 782  944.5366
 783  1054.017
 784  963.3188
 785  866.6342
 786  699.5751
 787  681.0829
 788  730.9839
 789  886.6629
 790  880.6818
 791  902.3686
 792  770.2337
 793  732.7904
 794  636.4821
 795  688.5129
 796  750.1627
 797  818.162
 798  798.5295
 799  730.9404
 800  605.8156
 801  622.5438
 802  712.4817
 803  650.3185
 804  582.9206
 805  642.1136
 806  737.193
 807  755.6051
 808  712.1691
 809  749.1212
 810  869.666
 811  892.9844
 812  834.9359
 813  821.5695
 814  931.0427
 815  999.4094
 816  928.6711
 817  905.831
 818  816.8943
 819  795.9315
 820  748.6432
 821  774.5672
 822  732.5439
 823  666.8354
 824  713.515
 825  730.3857
 826  920.4334
 827  849.1067
 828  909.7201
 829  867.9999
 830  846.5643
 831  781.6536
 832  818.4359
 833  795.0966
 834  862.991
 835  830.0836
 836  838.9738
 837  783.9828
 838  734.5002
 839  608.2207
 840  540.2266
 841  618.1684
 842  874.6078
 843  919.241
 844  926.6642
 845  750.677
 846  844.9426
 847  804.1383
 848  785.9392
 849  701.9782
 850  798.0399
 851  899.6157
 852  967.5344
 853  1019.199
 854  992.0172
 855  924.4832
 856  748.5526
 857  640.0797
 858  550.1202
 859  516.2219
 860  558.2307
 861  673.1132
 862  749.8511
 863  803.5565
 864  780.8451
 865  763.7853
 866  851.5854
 867  957.8982
 868  1020.333
 869  891.4502
 870  833.2534
 871  880.3672
 872  871.3476
 873  851.0505
 874  973.4768
 875  1051.311
 876  1167.614
 877  1144.049
 878  1220.301
 879  1175.447
 880  1175.57
 881  1138.007
 882  959.9377
 883  841.47
 884  780.3871
 885  796.5997
 886  783.3547
 887  859.6052
 888  940.7863
 889  999.6278
 890  967.5754
 891  1056.707
 892  1000.366
 893  902.777
 894  774.5083
 895  765.8503
 896  659.4457
 897  807.5615
 898  1035.495
 899  1211.014
 900  1063.795
 901  971.3998
 902  1022.493
 903  1079.176
 904  1099.239
 905  1073.123
 906  1124.223
 907  1199.958
 908  1273.645
 909  1214.877
 910  1251.288
 911  1130.486
 912  1157.363
 913  1145.964
 914  1199.29
 915  1078.837
 916  1098.226
 917  1141.721
 918  1070.885
 919  917.0927
 920  935.6692
 921  1114.806
 922  1144.093
 923  1039.021
 924  1011.551
 925  975.3079
 926  914.2073
 927  722.9437
 928  608.9423
 929  749.2163
 930  794.5148
 931  992.1498
 932  890.9937
 933  998.7768
 934  850.8948
 935  855.7866
 936  785.6175
 937  840.4379
 938  1082.746
 939  1282.894
 940  1329.16
 941  1221.453
 942  1086.045
 943  979.9265
 944  842.896
 945  724.7841
 946  690.1451
 947  731.6208
 948  746.4022
 949  725.4158
 950  733.3846
 951  641.8814
 952  718.7629
 953  796.7399
 954  888.9828
 955  858.1123
 956  851.6776
 957  908.6599
 958  907.293
 959  839.1217
 960  724.6681
 961  764.9753
 962  756.2347
 963  843.7999
 964  936.8621
 965  940.955
 966  889.4393
 967  834.0831
 968  849.7264
 969  753.215
 970  848.992
 971  938.6036
 972  1044.8
 973  1078.431
 974  973.3992
 975  876.04
 976  649.5051
 977  743.2568
 978  727.1135
 979  824.4196
 980  770.8518
 981  681.1371
 982  726.2274
 983  815.7296
 984  1046.666
 985  1097.99
 986  1187.043
 987  1227.798
 988  1168.118
 989  957.6893
 990  783.2464
 991  739.9788
 992  916.6375
 993  940.3793
 994  768.1616
 995  690.6237
 996  687.4517
 997  739.5032
 998  631.5175
 999  636.5585
1000  724.7847
1001  879.2862
1002  864.2686
1003  953.1232
1004  994.7943
1005  1112.582
1006  960.0059
1007  830.0306
1008  867.9376
1009  934.1525
1010  972.5909
1011  933.4205
1012  922.0952
1013  963.0266
1014  1033.928
1015  967.3152
1016  720.7858
1017  661.4295
1018  869.6973
1019  1092.531
1020  990.8742
1021  895.801
1022  939.9281
1023  969.6403
