# Input file       =  1212490957.114973_cleaned.dat
# Candidate        =  PSR_0332+5434
# Telescope        =  AR
# Epoch_topo       =  58277.460371701076
# Epoch_bary       =  N/A
# T_sample         =  0.002
# Data Folded      =  7340032
# Data Avg         =  0.0204734451160352
# Data StdDev      =  2.5468387323038  
# Profile Bins     =  1024
# Profile Avg      =  146.690086818569 
# Profile StdDev   =  215.625661282012 
# Reduced chi-sqr  =  1.280
# Prob(Noise)      <  2.77e-09   (~5.8 sigma)
# P_topo (ms)      =  714.510057084679  +/- 0.000124
# P'_topo (s/s)    =  -0                +/- 6.52e-11
# P''_topo (s/s^2) =  0                 +/- 2.88e-14
# P_bary (ms)      =  N/A
# P'_bary (s/s)    =  N/A
# P''_bary (s/s^2) =  N/A
# P_orb (s)        =  N/A
# asin(i)/c (s)    =  N/A
# eccentricity     =  N/A
# w (rad)          =  N/A
# T_peri           =  N/A
######################################################
   0  95.07188
   1  173.244
   2  97.33544
   3  121.0417
   4  131.4525
   5  168.5524
   6  133.8708
   7  102.8869
   8  148.162
   9  267.0864
  10  278.8918
  11  228.3596
  12  222.572
  13  235.1683
  14  297.783
  15  258.9754
  16  303.4829
  17  321.9655
  18  416.2931
  19  367.6528
  20  284.168
  21  221.6522
  22  246.1168
  23  238.0797
  24  211.35
  25  195.5244
  26  150.9075
  27  182.5659
  28  113.247
  29  64.31226
  30  -125.4797
  31  -55.46951
  32  -45.51715
  33  96.92027
  34  -3.231777
  35  82.39044
  36  70.27811
  37  131.136
  38  126.7536
  39  169.056
  40  205.8391
  41  332.8536
  42  309.5148
  43  230.8119
  44  95.23986
  45  7.019464
  46  -11.76771
  47  -3.563384
  48  13.36751
  49  -15.32055
  50  -5.848972
  51  -24.84451
  52  -113.4763
  53  -84.69244
  54  11.46757
  55  163.553
  56  178.8634
  57  181.7191
  58  69.16029
  59  101.5399
  60  223.237
  61  291.4105
  62  220.3547
  63  22.89735
  64  -50.96337
  65  -41.33434
  66  103.9648
  67  184.5936
  68  207.2647
  69  238.8732
  70  237.2472
  71  160.5379
  72  13.69544
  73  -76.57407
  74  -77.31691
  75  -29.65392
  76  55.33437
  77  161.436
  78  182.1845
  79  132.9595
  80  -13.0402
  81  -74.27436
  82  7.503477
  83  203.5799
  84  294.5347
  85  283.2375
  86  310.0949
  87  305.7694
  88  194.9133
  89  39.97235
  90  64.48454
  91  121.5607
  92  120.7141
  93  86.5229
  94  96.7506
  95  148.2214
  96  211.445
  97  209.8721
  98  97.6705
  99  0.5412837
 100  -72.61016
 101  -16.86106
 102  51.36988
 103  144.8028
 104  146.2563
 105  176.5791
 106  98.32558
 107  112.1626
 108  112.6055
 109  186.1857
 110  202.1687
 111  254.1734
 112  291.7541
 113  367.6978
 114  415.8835
 115  383.5184
 116  274.7188
 117  195.9464
 118  199.7371
 119  163.4177
 120  148.7995
 121  127.5958
 122  230.0329
 123  269.1295
 124  200.1564
 125  90.62138
 126  -32.6057
 127  -39.52023
 128  31.06101
 129  74.74163
 130  189.7229
 131  109.2684
 132  125.5682
 133  103.3738
 134  67.98074
 135  -68.12103
 136  -5.389001
 137  186.8114
 138  277.3642
 139  83.70815
 140  63.11006
 141  188.7084
 142  253.3906
 143  117.6829
 144  -50.979
 145  -42.63842
 146  -0.4892971
 147  62.08633
 148  78.87304
 149  86.01796
 150  178.1073
 151  160.4391
 152  180.9866
 153  42.19227
 154  12.77922
 155  -53.68095
 156  3.277965
 157  -1.184706
 158  33.00616
 159  70.81171
 160  127.0961
 161  108.3158
 162  60.52078
 163  172.1722
 164  170.874
 165  132.371
 166  71.91329
 167  53.96442
 168  117.9685
 169  156.1784
 170  206.9156
 171  176.5201
 172  176.4033
 173  197.9865
 174  206.4373
 175  292.1761
 176  353.4477
 177  362.5197
 178  244.8004
 179  163.7942
 180  112.4408
 181  92.31733
 182  76.98923
 183  73.09901
 184  99.81982
 185  77.20347
 186  49.67202
 187  48.85507
 188  27.19289
 189  114.6369
 190  107.3993
 191  211.8214
 192  198.5943
 193  255.5078
 194  151.9023
 195  209.4099
 196  290.1574
 197  346.8872
 198  233.1365
 199  221.9893
 200  161.2217
 201  123.0977
 202  -32.99866
 203  3.305283
 204  11.1511
 205  31.77156
 206  99.72403
 207  92.58694
 208  17.35122
 209  -145.1606
 210  -69.8919
 211  152.9946
 212  222.9663
 213  183.8613
 214  89.50254
 215  173.4979
 216  211.2918
 217  260.9297
 218  389.8066
 219  340.0274
 220  288.8889
 221  80.53242
 222  7.687613
 223  55.02147
 224  147.3709
 225  186.3419
 226  255.7362
 227  318.7278
 228  333.008
 229  243.1377
 230  182.7292
 231  195.0127
 232  327.9989
 233  381.3956
 234  298.6843
 235  156.0855
 236  186.8702
 237  250.1135
 238  294.0508
 239  298.1101
 240  263.448
 241  109.6777
 242  104.3815
 243  141.5127
 244  152.0486
 245  73.05534
 246  74.59868
 247  121.7994
 248  210.5308
 249  314.7339
 250  337.015
 251  232.1861
 252  258.6826
 253  285.7639
 254  278.0251
 255  240.4948
 256  242.7563
 257  307.2596
 258  262.7844
 259  180.7687
 260  154.5501
 261  206.5567
 262  260.6554
 263  178.3697
 264  85.07991
 265  138.0018
 266  167.4125
 267  187.2607
 268  181.6516
 269  218.3526
 270  233.1293
 271  186.0888
 272  146.5926
 273  177.5777
 274  166.0067
 275  145.3124
 276  74.77708
 277  50.82403
 278  60.53215
 279  44.64928
 280  64.19009
 281  24.5689
 282  10.8116
 283  1.363579
 284  89.76466
 285  99.10136
 286  174.5912
 287  71.85384
 288  52.15745
 289  -55.08287
 290  7.661932
 291  10.41399
 292  55.44664
 293  100.5655
 294  68.50614
 295  84.90692
 296  3.022055
 297  58.89563
 298  5.311511
 299  52.71843
 300  -43.84628
 301  125.81
 302  146.9026
 303  218.2883
 304  57.92324
 305  126.07
 306  160.6572
 307  290.5558
 308  301.3019
 309  312.6786
 310  250.0677
 311  216.0945
 312  107.166
 313  31.45397
 314  1.651636
 315  135.0711
 316  228.0898
 317  278.2152
 318  162.8748
 319  64.65202
 320  36.84326
 321  127.0074
 322  154.3873
 323  156.0496
 324  85.13225
 325  175.894
 326  179.7422
 327  142.7145
 328  89.71542
 329  118.5112
 330  222.5493
 331  154.3412
 332  161.8243
 333  97.31359
 334  163.0754
 335  154.7087
 336  205.7745
 337  187.4342
 338  119.4824
 339  -18.90306
 340  -46.44337
 341  -24.025
 342  -31.24231
 343  -0.7992475
 344  50.41548
 345  86.10078
 346  88.48022
 347  84.92041
 348  214.9085
 349  240.4488
 350  196.44
 351  149.4901
 352  107.9918
 353  99.65909
 354  85.35548
 355  156.0047
 356  236.5775
 357  185.5388
 358  147.3131
 359  169.5929
 360  231.7275
 361  187.8387
 362  207.3591
 363  315.2228
 364  478.7273
 365  443.3895
 366  330.2799
 367  240.0552
 368  137.5181
 369  101.399
 370  108.5696
 371  219.9869
 372  261.5444
 373  239.3268
 374  249.6173
 375  210.3374
 376  174.2252
 377  165.3476
 378  144.2181
 379  158.6823
 380  202.9769
 381  198.7694
 382  223.9743
 383  169.3344
 384  276.5999
 385  290.7577
 386  338.9815
 387  307.1266
 388  306.7703
 389  210.1512
 390  159.8822
 391  47.12685
 392  86.53004
 393  194.186
 394  273.8962
 395  207.8867
 396  71.4824
 397  4.99223
 398  -3.55025
 399  36.0705
 400  221.6442
 401  318.2382
 402  336.0731
 403  245.6407
 404  141.4824
 405  190.6319
 406  199.3396
 407  247.3718
 408  214.9065
 409  198.1547
 410  183.8506
 411  174.6805
 412  218.6768
 413  282.0256
 414  313.6301
 415  226.3374
 416  93.12659
 417  93.8187
 418  124.107
 419  227.7997
 420  358.9191
 421  454.4911
 422  433.6177
 423  266.9444
 424  147.0067
 425  111.1923
 426  181.1772
 427  175.587
 428  250.0216
 429  255.4141
 430  292.1227
 431  261.3555
 432  243.5817
 433  200.6605
 434  217.9164
 435  265.1674
 436  284.9623
 437  210.028
 438  166.2233
 439  122.3492
 440  95.0481
 441  86.52872
 442  44.5555
 443  148.2289
 444  104.7665
 445  89.28184
 446  59.74879
 447  172.0807
 448  292.4039
 449  194.2712
 450  183.8857
 451  204.8321
 452  249.7358
 453  233.4615
 454  214.4764
 455  173.4479
 456  104.6352
 457  26.80699
 458  9.972879
 459  -22.60177
 460  17.91583
 461  160.9469
 462  226.5952
 463  235.2142
 464  61.24586
 465  -4.29597
 466  -125.8466
 467  -108.6794
 468  -80.80593
 469  28.15171
 470  151.5064
 471  247.9386
 472  202.3575
 473  160.2378
 474  205.6982
 475  254.5327
 476  234.4162
 477  123.4225
 478  88.40678
 479  77.11013
 480  185.4872
 481  262.2985
 482  248.2894
 483  31.67604
 484  -110.2075
 485  1.290573
 486  87.24793
 487  131.059
 488  -3.411727
 489  -9.68342
 490  88.6428
 491  186.3688
 492  198.5579
 493  145.9071
 494  142.0032
 495  181.6518
 496  199.0608
 497  236.1159
 498  172.8438
 499  158.7278
 500  163.3307
 501  312.0261
 502  329.0398
 503  284.8267
 504  271.397
 505  340.8368
 506  394.5803
 507  398.7639
 508  357.9471
 509  258.2009
 510  281.1932
 511  328.8519
 512  344.7335
 513  357.4322
 514  158.0504
 515  130.3046
 516  43.58297
 517  125.3757
 518  140.1786
 519  131.9863
 520  113.4749
 521  161.0997
 522  264.3348
 523  385.2384
 524  388.6165
 525  273.0975
 526  190.2722
 527  121.8523
 528  141.7721
 529  67.87576
 530  21.03214
 531  39.17468
 532  167.2976
 533  268.0287
 534  313.8773
 535  278.8361
 536  136.0715
 537  18.24704
 538  -57.32287
 539  -58.29356
 540  44.02736
 541  108.3186
 542  219.2633
 543  118.8432
 544  66.64537
 545  60.49065
 546  124.4873
 547  95.76957
 548  25.85508
 549  32.392
 550  54.60959
 551  73.97508
 552  162.7265
 553  219.7337
 554  247.116
 555  277.548
 556  269.7759
 557  379.851
 558  403.0227
 559  420.3313
 560  299.0743
 561  269.4092
 562  224.566
 563  205.0652
 564  228.0011
 565  351.3775
 566  397.5486
 567  364.4603
 568  289.0933
 569  238.3736
 570  248.6703
 571  174.0758
 572  94.97551
 573  34.03904
 574  119.0926
 575  152.7646
 576  191.6499
 577  182.39
 578  217.1443
 579  101.4559
 580  81.6577
 581  81.73619
 582  51.17128
 583  79.40732
 584  208.2915
 585  301.619
 586  303.8086
 587  195.9893
 588  238.2247
 589  337.3682
 590  488.0806
 591  601.1915
 592  711.7587
 593  721.8297
 594  816.3126
 595  864.61
 596  1010.276
 597  987.7159
 598  1020.965
 599  885.7547
 600  753.2433
 601  608.8928
 602  494.4568
 603  355.3772
 604  198.7753
 605  192.8167
 606  186.6883
 607  145.4385
 608  155.2893
 609  200.3521
 610  210.3766
 611  129.2498
 612  136.3327
 613  179.8531
 614  178.6794
 615  134.7461
 616  25.67551
 617  43.95581
 618  80.02806
 619  245.9197
 620  212.3151
 621  262.2062
 622  203.8264
 623  145.4015
 624  -27.72892
 625  7.081407
 626  169.6197
 627  289.0813
 628  198.6794
 629  60.01939
 630  -40.8289
 631  -133.0198
 632  -135.2749
 633  -86.32765
 634  -33.99721
 635  60.89677
 636  106.0776
 637  78.38231
 638  -35.14155
 639  -110.6662
 640  12.48324
 641  204.1528
 642  207.531
 643  147.1517
 644  116.8649
 645  162.9219
 646  113.0796
 647  65.68704
 648  123.1256
 649  145.9314
 650  76.85738
 651  -48.36897
 652  -117.0466
 653  -52.49543
 654  95.97112
 655  164.7138
 656  215.7851
 657  185.6983
 658  205.5223
 659  204.6448
 660  213.4068
 661  190.7649
 662  159.3564
 663  239.3726
 664  226.0264
 665  181.5788
 666  -40.25364
 667  -41.74315
 668  26.303
 669  197.1772
 670  300.8311
 671  256.4965
 672  267.3982
 673  199.531
 674  204.644
 675  227.252
 676  325.2885
 677  380.88
 678  259.7642
 679  87.44115
 680  -15.32741
 681  -44.24221
 682  -45.53553
 683  -66.11967
 684  -11.86508
 685  -36.48597
 686  -31.69124
 687  -11.64601
 688  121.4141
 689  113.2994
 690  131.4122
 691  181.0179
 692  200.4677
 693  101.8779
 694  95.42189
 695  195.09
 696  319.9251
 697  224.6617
 698  146.2495
 699  180.6353
 700  212.4173
 701  152.6897
 702  49.08867
 703  -17.49834
 704  83.12563
 705  205.1375
 706  287.0222
 707  128.8638
 708  43.61493
 709  75.12532
 710  249.9697
 711  284.1331
 712  284.5098
 713  235.6857
 714  181.2809
 715  153.9545
 716  200.6494
 717  196.3756
 718  107.7866
 719  -34.92797
 720  -16.88625
 721  65.77042
 722  110.0975
 723  171.0685
 724  175.3499
 725  200.1443
 726  181.5906
 727  164.8619
 728  124.2706
 729  96.31812
 730  95.20171
 731  139.787
 732  92.88509
 733  40.11296
 734  -15.08422
 735  29.53656
 736  87.5427
 737  179.9006
 738  159.472
 739  51.274
 740  64.93813
 741  57.50075
 742  67.73669
 743  5.581054
 744  -8.380795
 745  94.52562
 746  48.11837
 747  60.31235
 748  -0.2039229
 749  4.705379
 750  -12.14425
 751  46.44957
 752  4.114408
 753  46.92276
 754  -100.2475
 755  -106.0535
 756  -72.03247
 757  11.34043
 758  74.84464
 759  140.8775
 760  154.6039
 761  91.54623
 762  -5.33854
 763  18.28923
 764  -37.98361
 765  -49.98438
 766  -62.19077
 767  34.13021
 768  -18.84622
 769  -73.24266
 770  -79.36836
 771  -48.88171
 772  -26.87333
 773  -74.6951
 774  -72.64871
 775  -81.10934
 776  -68.10919
 777  -118.2695
 778  -108.7776
 779  -53.87619
 780  -10.30826
 781  68.30867
 782  42.74091
 783  -69.91147
 784  -142.2463
 785  -53.35505
 786  167.538
 787  123.2691
 788  100.8252
 789  71.68449
 790  86.94246
 791  -44.90779
 792  -61.98047
 793  35.08727
 794  48.89819
 795  -5.574579
 796  -13.34879
 797  76.11886
 798  104.0907
 799  219.7814
 800  259.8361
 801  288.0808
 802  85.00023
 803  75.3075
 804  62.82254
 805  102.8644
 806  56.66762
 807  -14.96347
 808  35.97083
 809  -63.82352
 810  -67.36094
 811  -133.9921
 812  -13.04762
 813  105.6671
 814  165.27
 815  181.6877
 816  -9.30463
 817  -99.10646
 818  -57.8608
 819  110.5998
 820  105.962
 821  20.54642
 822  -56.03369
 823  -3.635909
 824  95.48454
 825  139.2013
 826  169.6971
 827  49.93825
 828  -8.373861
 829  -116.1351
 830  0.1209941
 831  84.62392
 832  202.4756
 833  251.8135
 834  193.5587
 835  162.2151
 836  154.6246
 837  247.7635
 838  244.59
 839  229.5498
 840  208.6233
 841  157.0701
 842  81.8474
 843  105.7577
 844  146.9206
 845  191.1843
 846  81.31882
 847  115.0419
 848  84.49371
 849  104.2472
 850  30.73022
 851  -0.8013411
 852  -64.81353
 853  -9.216423
 854  -6.33385
 855  68.74424
 856  98.18814
 857  165.5199
 858  117.0004
 859  88.22707
 860  111.1922
 861  181.0002
 862  196.9024
 863  246.1667
 864  152.623
 865  133.294
 866  118.8619
 867  187.5835
 868  156.0337
 869  73.29434
 870  -5.666057
 871  30.96523
 872  113.2878
 873  130.1315
 874  20.31667
 875  -28.87664
 876  48.38576
 877  112.6807
 878  117.886
 879  87.89602
 880  166.8953
 881  173.8293
 882  261.3293
 883  288.8247
 884  219.4526
 885  68.2189
 886  -86.76629
 887  -46.89178
 888  -29.00011
 889  80.10015
 890  98.55447
 891  103.2866
 892  23.71601
 893  14.24329
 894  151.4986
 895  228.3248
 896  216.5912
 897  74.58001
 898  18.97342
 899  -30.22712
 900  24.05876
 901  49.467
 902  135.1387
 903  72.46973
 904  95.66882
 905  84.58714
 906  34.72264
 907  67.2383
 908  143.2586
 909  195.0412
 910  113.9443
 911  199.1577
 912  397.4653
 913  525.1942
 914  430.5927
 915  235.5013
 916  118.4202
 917  39.3638
 918  110.0599
 919  221.6036
 920  372.7769
 921  329.8292
 922  268.8703
 923  181.1561
 924  138.6672
 925  112.4282
 926  290.3946
 927  415.2679
 928  371.7409
 929  129.7787
 930  -11.8774
 931  -49.58964
 932  31.22967
 933  160.875
 934  232.077
 935  140.1644
 936  -5.212478
 937  19.5726
 938  117.86
 939  187.726
 940  265.3172
 941  275.5661
 942  216.484
 943  79.14944
 944  51.35225
 945  112.8028
 946  158.1819
 947  181.6115
 948  108.2504
 949  57.15881
 950  136.9375
 951  282.6778
 952  322.4316
 953  270.6558
 954  291.4021
 955  203.555
 956  123.5927
 957  -30.09399
 958  -34.43599
 959  43.27872
 960  234.3237
 961  344.8657
 962  342.5563
 963  199.2743
 964  100.2696
 965  65.75201
 966  143.3924
 967  214.7426
 968  301.2009
 969  257.5594
 970  151.5406
 971  63.93252
 972  155.6965
 973  270.2099
 974  324.3693
 975  309.6328
 976  303.0968
 977  165.6139
 978  110.071
 979  44.19612
 980  170.2265
 981  197.1582
 982  203.2088
 983  248.697
 984  202.443
 985  221.356
 986  131.1996
 987  120.9209
 988  42.96598
 989  102.3199
 990  165.5026
 991  292.9319
 992  142.7571
 993  7.55966
 994  12.58013
 995  117.6377
 996  135.9205
 997  7.120837
 998  46.36615
 999  87.30173
1000  210.3439
1001  165.1683
1002  231.7733
1003  213.807
1004  199.9024
1005  217.9403
1006  226.5473
1007  310.925
1008  257.0899
1009  224.746
1010  195.4591
1011  95.14164
1012  10.82126
1013  50.95034
1014  88.71874
1015  107.5361
1016  58.78153
1017  72.09723
1018  19.91475
1019  105.6707
1020  174.4122
1021  314.4703
1022  245.4091
1023  211.5857
