# Input file       =  1212303721.111694_cleaned.dat
# Candidate        =  PSR_0332+5434
# Telescope        =  AR
# Epoch_topo       =  58275.293288329791
# Epoch_bary       =  N/A
# T_sample         =  0.002
# Data Folded      =  7340032
# Data Avg         =  0.108667686094123
# Data StdDev      =  2.89485174862554 
# Profile Bins     =  512
# Profile Avg      =  1557.94935770488 
# Profile StdDev   =  346.609389723527 
# Reduced chi-sqr  =  1.707
# Prob(Noise)      <  2.64e-21   (~9.4 sigma)
# P_topo (ms)      =  714.511809519175  +/- 0.00052
# P'_topo (s/s)    =  -0                +/- 2.74e-10
# P''_topo (s/s^2) =  0                 +/- 1.21e-13
# P_bary (ms)      =  N/A
# P'_bary (s/s)    =  N/A
# P''_bary (s/s^2) =  N/A
# P_orb (s)        =  N/A
# asin(i)/c (s)    =  N/A
# eccentricity     =  N/A
# w (rad)          =  N/A
# T_peri           =  N/A
######################################################
   0  1568.179
   1  1755.336
   2  1492.044
   3  1501.263
   4  1507.213
   5  1549.425
   6  1734.719
   7  1503.299
   8  1268.479
   9  1557.905
  10  1430.836
  11  1389.624
  12  1497.451
  13  1581.598
  14  1749.916
  15  1393.697
  16  1319.81
  17  1160.713
  18  1715.172
  19  1583.81
  20  1349.306
  21  1358.635
  22  1157.054
  23  1098.625
  24  1509.039
  25  1355.01
  26  1028.151
  27  1220.257
  28  1254.907
  29  1354.78
  30  1534.6
  31  1341.14
  32  1377.569
  33  1448.006
  34  1313.907
  35  1213.006
  36  1104.009
  37  1677.758
  38  1510.764
  39  1449.919
  40  1401.073
  41  1349.237
  42  1528.013
  43  1394.086
  44  1412.314
  45  1201.246
  46  1085.849
  47  1394.793
  48  1619.093
  49  1407.18
  50  1142.308
  51  1683.138
  52  1541.925
  53  1406.502
  54  1362.716
  55  1234.786
  56  1333.364
  57  1505.735
  58  1126.525
  59  1508.749
  60  1555.55
  61  1323.592
  62  1361.997
  63  1220.92
  64  1343.53
  65  1089.745
  66  1229.422
  67  1335.197
  68  1477.089
  69  1267.604
  70  1050.216
  71  1276.505
  72  1366.922
  73  1331.658
  74  1218.504
  75  1233.903
  76  1423.759
  77  1532.943
  78  1556.234
  79  1354.841
  80  1186.639
  81  1045.605
  82  1041.02
  83  1070.894
  84  1001.46
  85  1016.119
  86  1076.881
  87  873.8341
  88  1052.826
  89  1173.991
  90  1347.07
  91  1383.974
  92  1133.667
  93  1130.317
  94  1180.943
  95  1434.992
  96  1438.034
  97  1216.898
  98  1006.138
  99  1326.747
 100  1269.144
 101  1190.903
 102  1517.591
 103  1280.625
 104  1081.322
 105  1156.488
 106  1353.193
 107  1146.401
 108  1215.398
 109  1254.923
 110  1166.371
 111  1441.778
 112  1649.186
 113  1491.083
 114  1351.015
 115  1311.011
 116  1458.815
 117  1338.995
 118  1245.055
 119  998.88
 120  1105.319
 121  1307.474
 122  719.8038
 123  1032.425
 124  1159.407
 125  1081.318
 126  1552.534
 127  1371.94
 128  1238.763
 129  1262.938
 130  1378.766
 131  1256.612
 132  1064.092
 133  1369.162
 134  1261.767
 135  1225.497
 136  1003.546
 137  1015.008
 138  1218.772
 139  1122.422
 140  1390.142
 141  1359.249
 142  946.7789
 143  1064.691
 144  1234.185
 145  1328.79
 146  1159.685
 147  1324.684
 148  1211.377
 149  1240.133
 150  1275.346
 151  975.7401
 152  748.9642
 153  945.1968
 154  1049.036
 155  1470.878
 156  1398.076
 157  1278.126
 158  1291.563
 159  1383.496
 160  1372.953
 161  1443.613
 162  1301.318
 163  1243.844
 164  1160.157
 165  1543.394
 166  1747.103
 167  1470.152
 168  1573.286
 169  1598.441
 170  1483.086
 171  1424.986
 172  1234.083
 173  973.089
 174  1254.851
 175  1376.099
 176  1683.647
 177  1842.264
 178  1758.978
 179  1381.253
 180  1231.806
 181  1378.707
 182  1272.527
 183  1192.98
 184  1228.777
 185  1371.343
 186  1220.788
 187  1406.793
 188  1547.36
 189  1233.438
 190  1487.774
 191  1509.433
 192  1646.753
 193  1657.5
 194  2009.553
 195  1745.521
 196  1522.613
 197  1736.554
 198  1538.577
 199  1408.175
 200  1413.288
 201  1551.166
 202  1390.633
 203  1462.516
 204  1408.419
 205  1164.602
 206  1176.102
 207  1238.491
 208  1357.206
 209  1546.22
 210  1542.327
 211  1586.375
 212  1401.097
 213  1413.3
 214  1245.83
 215  1204.906
 216  1356.131
 217  1258.123
 218  956.4783
 219  1145.146
 220  1236.165
 221  1249.586
 222  1289.078
 223  1248.618
 224  1331.645
 225  1549.798
 226  1752.426
 227  1663.261
 228  1644.25
 229  1524.382
 230  1429.098
 231  1360.024
 232  1781.706
 233  1639.143
 234  1345.828
 235  1118.797
 236  1422.302
 237  1481.066
 238  1341.448
 239  1716.688
 240  1699.98
 241  1501.72
 242  1236.166
 243  1515.287
 244  1732.907
 245  1595.818
 246  1507.793
 247  1261.082
 248  1449.663
 249  1927.758
 250  1702.591
 251  1552.746
 252  1641.789
 253  1572.935
 254  1460.26
 255  1506.393
 256  1280.362
 257  1413.766
 258  1450.932
 259  1337.171
 260  1349.068
 261  1620.454
 262  1603.359
 263  1115.487
 264  1148.404
 265  1399.033
 266  1567.653
 267  1916.917
 268  2116.842
 269  1929.045
 270  1781.807
 271  1738.66
 272  1697.74
 273  1500.927
 274  1391.875
 275  1457.53
 276  1365.468
 277  1588.083
 278  1870.146
 279  1806.573
 280  1284.671
 281  1330.544
 282  1744.916
 283  1742.345
 284  1714.062
 285  1690.509
 286  1628.763
 287  1574.304
 288  1564.953
 289  1493.86
 290  1699.535
 291  1754.297
 292  2038.998
 293  1956.394
 294  1978.705
 295  2581.876
 296  2437.061
 297  2818.125
 298  3451.288
 299  3755.394
 300  3286.277
 301  2607.077
 302  2258.558
 303  1824.846
 304  1662.032
 305  1623.848
 306  1663.326
 307  1767.953
 308  1703.672
 309  1879.29
 310  1607.701
 311  1933.271
 312  1829.933
 313  1837.648
 314  1972.273
 315  1848.15
 316  1524.972
 317  1523.96
 318  1748.768
 319  1822.474
 320  1953.288
 321  1593.213
 322  1446.662
 323  1667.88
 324  1811.237
 325  2003.241
 326  1965.309
 327  1703.722
 328  1527.965
 329  1400.544
 330  1658.729
 331  1553.256
 332  1888.192
 333  1775.814
 334  1370.145
 335  1427.806
 336  1657.24
 337  1300.899
 338  1506.398
 339  1466.647
 340  1452.99
 341  1711.006
 342  1529.584
 343  1742.803
 344  1689.029
 345  1817.524
 346  1703.179
 347  1573.071
 348  1733.18
 349  1785.571
 350  1520.757
 351  1337.914
 352  1418.4
 353  1511.344
 354  1472.913
 355  1445.275
 356  1640.668
 357  1691.787
 358  1732.296
 359  1987.867
 360  1990.595
 361  2215.58
 362  1774.829
 363  1541.9
 364  1784.867
 365  1979.607
 366  1714.756
 367  1957.646
 368  1803.509
 369  1575.509
 370  1755.906
 371  1788.445
 372  1713.086
 373  1849.176
 374  2239.442
 375  1970.855
 376  1523.785
 377  1482.776
 378  1848.509
 379  2074.53
 380  2061.466
 381  2182.947
 382  1744.714
 383  1459.899
 384  1850.467
 385  2260.892
 386  2030.922
 387  1654.367
 388  1542.034
 389  1662.836
 390  1796.365
 391  1858.774
 392  1878.705
 393  1615.981
 394  1911.285
 395  1825.367
 396  1625.323
 397  1867.769
 398  2039.651
 399  1721.427
 400  1652.81
 401  1814.711
 402  1992.032
 403  1830.306
 404  1716.247
 405  1711.203
 406  1708.922
 407  1737.221
 408  1834.935
 409  1980.509
 410  1937.656
 411  1765.992
 412  1516.057
 413  1708.828
 414  1872.807
 415  1684.272
 416  1827.445
 417  1679.326
 418  1831.338
 419  1701.063
 420  1415.034
 421  1649.006
 422  1753.18
 423  1835.237
 424  1566.415
 425  1561.342
 426  2029.326
 427  1920.983
 428  1988.429
 429  1664.665
 430  1551.311
 431  1716.176
 432  1748.292
 433  1743.532
 434  1769.023
 435  1760.864
 436  1807.261
 437  1918.761
 438  1645.371
 439  1887.282
 440  1815.398
 441  1807.367
 442  2165.88
 443  1964.2
 444  1592.466
 445  1501.195
 446  1508.062
 447  1724.353
 448  1979.856
 449  2346.593
 450  2222.887
 451  1669.02
 452  1758.058
 453  1946.766
 454  1804.099
 455  1836.663
 456  1846.26
 457  1875.415
 458  1793.279
 459  1805.547
 460  2121.687
 461  2031.642
 462  1414.651
 463  1453.495
 464  1638.575
 465  1688.762
 466  1648.395
 467  1829.501
 468  2039.497
 469  1906.679
 470  1939.143
 471  1994.894
 472  1552.903
 473  1728.579
 474  1984.236
 475  1769.24
 476  1817.548
 477  1865.863
 478  2026.177
 479  1900.468
 480  1659.965
 481  1793.691
 482  1494.638
 483  1699.613
 484  1674.873
 485  1717.774
 486  1362.957
 487  1473.115
 488  1452.617
 489  1614.18
 490  1863.101
 491  1513.799
 492  1487.071
 493  1649.471
 494  1760.937
 495  1604.714
 496  1635.667
 497  1557.861
 498  1531.975
 499  1840.809
 500  1853.689
 501  1729.523
 502  1511.112
 503  1709.072
 504  1829.472
 505  1895.492
 506  1663.576
 507  1750.139
 508  1637.855
 509  1576.175
 510  1683.937
 511  1717.221
