# Input file       =  1212577115.126887_cleaned.dat
# Candidate        =  PSR_0332+5434
# Telescope        =  AR
# Epoch_topo       =  58278.457570913044
# Epoch_bary       =  N/A
# T_sample         =  0.002
# Data Folded      =  7340032
# Data Avg         =  0.0708490297464386
# Data StdDev      =  2.63105476015358 
# Profile Bins     =  512
# Profile Avg      =  1015.71392333636 
# Profile StdDev   =  315.024175306732 
# Reduced chi-sqr  =  1.496
# Prob(Noise)      <  2.25e-12   (~6.9 sigma)
# P_topo (ms)      =  714.509101036788  +/- 0.000276
# P'_topo (s/s)    =  -0                +/- 1.46e-10
# P''_topo (s/s^2) =  0                 +/- 6.43e-14
# P_bary (ms)      =  N/A
# P'_bary (s/s)    =  N/A
# P''_bary (s/s^2) =  N/A
# P_orb (s)        =  N/A
# asin(i)/c (s)    =  N/A
# eccentricity     =  N/A
# w (rad)          =  N/A
# T_peri           =  N/A
######################################################
   0  773.3198
   1  998.0464
   2  927.5076
   3  969.6819
   4  591.6669
   5  603.0302
   6  1067.535
   7  1044.679
   8  918.5042
   9  812.5967
  10  1153.438
  11  1113.896
  12  860.6068
  13  1310.693
  14  1473.641
  15  1194.299
  16  1374.981
  17  1223.927
  18  1483.3
  19  1590.104
  20  1517.315
  21  1661.421
  22  1502.997
  23  1278.056
  24  1478.332
  25  1413.517
  26  1051.151
  27  1102.729
  28  1167.213
  29  1146.666
  30  1188.397
  31  1343.289
  32  1482.965
  33  1340.745
  34  1256.891
  35  1520.32
  36  1620.645
  37  1939.773
  38  2480.134
  39  2943.186
  40  2931.039
  41  2709.455
  42  2317.659
  43  1465.955
  44  998.0164
  45  1008.207
  46  1012.451
  47  913.3569
  48  1181.182
  49  1012.341
  50  853.3341
  51  866.9135
  52  890.6202
  53  819.7074
  54  903.3836
  55  1081.968
  56  898.4435
  57  895.6756
  58  941.9158
  59  1084.406
  60  1227.04
  61  938.9541
  62  1023.799
  63  1132.163
  64  818.8978
  65  850.5302
  66  1061.747
  67  990.0599
  68  726.3278
  69  763.2685
  70  1093.122
  71  723.373
  72  764.9581
  73  859.8478
  74  614.9241
  75  627.812
  76  925.4709
  77  1082.818
  78  903.8231
  79  776.5848
  80  889.6331
  81  817.9942
  82  903.4339
  83  1030.452
  84  1120.621
  85  1128.72
  86  1218.898
  87  912.7879
  88  805.1409
  89  751.4977
  90  973.1074
  91  994.0308
  92  744.1044
  93  586.3792
  94  791.8088
  95  975.2262
  96  839.3336
  97  1005.013
  98  1011.21
  99  1039.938
 100  656.1583
 101  603.2015
 102  868.0168
 103  1061.764
 104  1038.52
 105  1083.23
 106  1130.784
 107  1081.28
 108  1161.385
 109  1157.433
 110  813.6326
 111  1006.351
 112  1352.737
 113  1267.634
 114  1161.813
 115  1189.585
 116  996.0834
 117  1200.762
 118  975.4529
 119  1231.516
 120  1438.075
 121  1498.493
 122  1160.547
 123  988.6838
 124  968.905
 125  1224.759
 126  1223.087
 127  1338.255
 128  1400.04
 129  1063.689
 130  994.8571
 131  905.264
 132  904.1553
 133  977.0612
 134  971.3915
 135  810.4146
 136  720.1371
 137  905.6992
 138  1002.476
 139  1119.759
 140  832.9819
 141  959.6356
 142  930.5367
 143  926.4384
 144  1044.099
 145  1004.354
 146  1252.098
 147  1069.305
 148  1010.281
 149  1202.462
 150  1287.072
 151  1018.81
 152  785.1936
 153  1179.167
 154  1151.449
 155  1111.531
 156  1143.95
 157  1164.856
 158  1011.939
 159  1034.246
 160  1079.341
 161  979.3743
 162  809.1396
 163  762.7808
 164  827.0369
 165  1169.89
 166  1302.419
 167  1123.748
 168  1022.48
 169  874.2815
 170  981.6582
 171  1055.44
 172  996.2383
 173  838.2214
 174  1189.103
 175  1348.97
 176  939.996
 177  1017.783
 178  977.5126
 179  615.6892
 180  635.889
 181  713.8985
 182  749.7572
 183  829.9955
 184  928.8804
 185  882.909
 186  1293.66
 187  1392.709
 188  1390.564
 189  1226.986
 190  1095.936
 191  1274.554
 192  1598.677
 193  1538.914
 194  1391.014
 195  1152.456
 196  952.9182
 197  1053.017
 198  842.3275
 199  1152.629
 200  1361.485
 201  1333.744
 202  1335.648
 203  1234.723
 204  1247.297
 205  977.3538
 206  1053.727
 207  1203.809
 208  866.8065
 209  490.7161
 210  721.4328
 211  1113.328
 212  1009.165
 213  965.5742
 214  1071.151
 215  1063.563
 216  800.5516
 217  967.298
 218  1211.938
 219  1324.404
 220  1230.355
 221  1132.609
 222  1062.365
 223  897.806
 224  981.7501
 225  1036.797
 226  1171.271
 227  1248.676
 228  955.2365
 229  942.0367
 230  1043.859
 231  1201.997
 232  1442.847
 233  1408.317
 234  1028.459
 235  957.3824
 236  869.6431
 237  989.6667
 238  992.136
 239  832.8237
 240  999.9449
 241  693.126
 242  556.7473
 243  514.2966
 244  717.6836
 245  1179.759
 246  874.0273
 247  622.4708
 248  812.2853
 249  992.1108
 250  944.844
 251  1104.261
 252  993.0012
 253  1196.905
 254  1335.028
 255  1193.071
 256  823.0866
 257  1054.016
 258  1109.612
 259  1084.135
 260  873.1179
 261  653.9575
 262  1035.597
 263  1164.525
 264  906.84
 265  982.5209
 266  1110.492
 267  1213.795
 268  1291.525
 269  1226.795
 270  1069.06
 271  959.6246
 272  1161.091
 273  1312.264
 274  1012.28
 275  1112.144
 276  1215.435
 277  1192.504
 278  955.1782
 279  758.1448
 280  838.3329
 281  863.3911
 282  1002.382
 283  1048.65
 284  895.0334
 285  576.0577
 286  484.7751
 287  867.848
 288  760.8984
 289  755.8465
 290  952.0084
 291  871.5793
 292  812.158
 293  1038.955
 294  949.7507
 295  621.9127
 296  699.2314
 297  1099.879
 298  913.9605
 299  890.4765
 300  1064.49
 301  1225.55
 302  1112.689
 303  755.5298
 304  767.6611
 305  984.97
 306  698.1583
 307  985.8703
 308  1289.741
 309  945.7962
 310  890.739
 311  1144.449
 312  1150.798
 313  1126.914
 314  1499.994
 315  1431.09
 316  955.5192
 317  985.5027
 318  1179.749
 319  1050.868
 320  1124.145
 321  1143.799
 322  1141.793
 323  1219.282
 324  1018.689
 325  1070.723
 326  1319.255
 327  1061.415
 328  1027.467
 329  1402.87
 330  1232.402
 331  903.3097
 332  1096.724
 333  1256.505
 334  1143.666
 335  778.9111
 336  909.8087
 337  939.7291
 338  729.9575
 339  865.6171
 340  1058.621
 341  1237.133
 342  1049.029
 343  593.8672
 344  619.5131
 345  546.3161
 346  571.444
 347  618.4432
 348  612.2442
 349  982.335
 350  938.1972
 351  831.0375
 352  638.1694
 353  673.4307
 354  981.5863
 355  1037.232
 356  1169.43
 357  1339.646
 358  1298.437
 359  1332.512
 360  1208.054
 361  1195.465
 362  1156.927
 363  1142.629
 364  1052.055
 365  977.9171
 366  1074.449
 367  1231.791
 368  884.0001
 369  885.3759
 370  1063.668
 371  778.8815
 372  765.8732
 373  850.7485
 374  746.3768
 375  732.3112
 376  835.7159
 377  935.7957
 378  684.1391
 379  893.0203
 380  941.2147
 381  804.9917
 382  946.2043
 383  942.4824
 384  909.3206
 385  746.613
 386  875.4732
 387  1086.757
 388  945.5415
 389  994.9075
 390  881.9512
 391  1071.902
 392  925.2149
 393  1346.376
 394  1432.597
 395  969.4933
 396  726.0831
 397  709.5542
 398  857.2679
 399  795.3332
 400  1059.075
 401  1289.919
 402  1166.909
 403  1120.825
 404  1034.49
 405  1126.91
 406  1104.333
 407  783.7668
 408  871.3967
 409  1188.28
 410  1299.499
 411  1125.994
 412  1255.711
 413  1089.499
 414  1189.705
 415  986.304
 416  980.8762
 417  821.4102
 418  880.1309
 419  1132.012
 420  970.8846
 421  1077.139
 422  1321.114
 423  1138.325
 424  953.5728
 425  743.2639
 426  674.8547
 427  803.0268
 428  654.8301
 429  846.488
 430  1131.348
 431  926.3892
 432  666.5621
 433  789.5915
 434  754.1995
 435  628.4314
 436  652.4732
 437  949.2797
 438  1079.529
 439  644.9394
 440  546.7482
 441  576.8067
 442  586.3221
 443  684.0652
 444  905.5753
 445  871.8627
 446  743.925
 447  767.5549
 448  557.2763
 449  776.0367
 450  1284.691
 451  1152.741
 452  955.8273
 453  1176.469
 454  798.9856
 455  1062.057
 456  1040.227
 457  1261.511
 458  1362.113
 459  1295.066
 460  856.7734
 461  855.8724
 462  844.2788
 463  633.8345
 464  863.3368
 465  879.4711
 466  1275.444
 467  1077.566
 468  1184.38
 469  1137.036
 470  1032.828
 471  1021.997
 472  732.8616
 473  681.0245
 474  826.4656
 475  862.2799
 476  563.0294
 477  827.8372
 478  914.4653
 479  643.0625
 480  624.0699
 481  625.4949
 482  852.5624
 483  705.1795
 484  906.2748
 485  1013.223
 486  884.5846
 487  1035.595
 488  743.3275
 489  920.141
 490  936.8748
 491  1013.017
 492  1112.7
 493  1092.615
 494  975.8361
 495  876.2153
 496  901.4197
 497  798.0155
 498  952.8005
 499  1072.325
 500  776.6147
 501  784.8714
 502  1132.472
 503  947.9408
 504  850.2944
 505  992.817
 506  722.0568
 507  758.8917
 508  835.2621
 509  528.5239
 510  486.5428
 511  724.1899
