# Input file       =  1212146313.112695_cleaned.dat
# Candidate        =  PSR_0332+5434
# Telescope        =  AR
# Epoch_topo       =  58273.471436489526
# Epoch_bary       =  N/A
# T_sample         =  0.002
# Data Folded      =  7340032
# Data Avg         =  0.0289118932736788
# Data StdDev      =  2.60101019314618 
# Profile Bins     =  1024
# Profile Avg      =  207.230173784236 
# Profile StdDev   =  220.212036115484 
# Reduced chi-sqr  =  1.399
# Prob(Noise)      <  3.9e-16   (~8.1 sigma)
# P_topo (ms)      =  714.513904806228  +/- 0.000487
# P'_topo (s/s)    =  -0                +/- 2.57e-10
# P''_topo (s/s^2) =  0                 +/- 1.13e-13
# P_bary (ms)      =  N/A
# P'_bary (s/s)    =  N/A
# P''_bary (s/s^2) =  N/A
# P_orb (s)        =  N/A
# asin(i)/c (s)    =  N/A
# eccentricity     =  N/A
# w (rad)          =  N/A
# T_peri           =  N/A
######################################################
   0  358.7492
   1  345.5373
   2  223.8207
   3  254.9237
   4  242.3865
   5  280.2802
   6  276.2887
   7  265.647
   8  246.0964
   9  181.8012
  10  182.3314
  11  274.3198
  12  319.3565
  13  235.3774
  14  195.5086
  15  253.0473
  16  308.5838
  17  225.246
  18  200.6139
  19  215.8531
  20  188.959
  21  139.2392
  22  101.5008
  23  60.5455
  24  122.9108
  25  263.2527
  26  252.7518
  27  78.18569
  28  -90.57248
  29  15.33753
  30  214.7579
  31  303.7956
  32  180.1529
  33  65.6945
  34  133.8862
  35  126.2578
  36  179.8895
  37  155.0289
  38  201.0566
  39  203.6313
  40  211.5803
  41  204.1973
  42  188.2514
  43  234.5728
  44  228.6222
  45  179.1033
  46  164.7306
  47  251.4026
  48  325.2886
  49  312.8612
  50  207.6423
  51  178.5268
  52  141.6263
  53  252.5416
  54  268.9831
  55  381.4398
  56  329.9781
  57  360.9067
  58  248.4465
  59  166.1923
  60  3.550215
  61  103.425
  62  201.8501
  63  266.6989
  64  165.6114
  65  97.76947
  66  65.7863
  67  201.3941
  68  271.8102
  69  398.8958
  70  322.0942
  71  233.732
  72  221.5808
  73  141.3236
  74  167.5335
  75  71.09701
  76  -58.81372
  77  -138.571
  78  3.113784
  79  267.7249
  80  351.7029
  81  269.6332
  82  218.2408
  83  194.8059
  84  142.1644
  85  112.7006
  86  84.14391
  87  192.2343
  88  254.2246
  89  227.0538
  90  153.7102
  91  178.6212
  92  306.43
  93  355.5011
  94  373.7061
  95  441.7477
  96  303.8879
  97  171.898
  98  97.79782
  99  145.1274
 100  218.6166
 101  274.0269
 102  208.3199
 103  141.4486
 104  25.0455
 105  115.2014
 106  63.201
 107  82.86728
 108  114.5158
 109  213.2496
 110  268.5875
 111  186.705
 112  106.6986
 113  24.28996
 114  145.8338
 115  205.0521
 116  297.6055
 117  217.441
 118  193.146
 119  81.14633
 120  74.68399
 121  97.67328
 122  90.11108
 123  75.02396
 124  120.7853
 125  167.6111
 126  182.2957
 127  66.02422
 128  66.71152
 129  55.87118
 130  169.995
 131  53.71424
 132  61.77006
 133  -28.03247
 134  61.50928
 135  64.91355
 136  108.0052
 137  106.035
 138  107.5131
 139  22.42358
 140  18.27083
 141  47.98341
 142  191.9456
 143  238.6859
 144  272.1748
 145  211.1793
 146  118.968
 147  21.61752
 148  -13.19353
 149  116.4726
 150  136.7578
 151  220.5888
 152  175.5781
 153  169.3858
 154  56.65472
 155  76.56857
 156  187.2283
 157  290.3535
 158  211.3182
 159  143.3457
 160  75.38206
 161  102.174
 162  85.97798
 163  86.64687
 164  42.27374
 165  80.73342
 166  55.10619
 167  63.76934
 168  28.19265
 169  110.7937
 170  238.9945
 171  190.0569
 172  199.6998
 173  163.104
 174  271.641
 175  191.0939
 176  152.8053
 177  104.9256
 178  136.3581
 179  123.6959
 180  100.6509
 181  140.484
 182  169.6091
 183  133.6988
 184  61.6377
 185  66.46404
 186  25.37807
 187  -4.45998
 188  7.277846
 189  53.63626
 190  39.80427
 191  -18.83676
 192  116.2634
 193  232.7196
 194  333.6292
 195  287.7602
 196  257.9159
 197  149.8234
 198  85.51843
 199  105.2686
 200  318.3655
 201  375.5098
 202  365.7418
 203  264.9826
 204  208.6844
 205  171.0496
 206  171.0726
 207  165.2197
 208  115.1489
 209  146.4914
 210  158.8295
 211  194.4273
 212  199.1332
 213  216.0128
 214  210.0711
 215  192.3557
 216  184.8021
 217  181.3889
 218  136.3868
 219  90.28935
 220  115.0925
 221  217.4836
 222  240.5327
 223  215.0181
 224  161.3829
 225  241.2819
 226  264.5189
 227  320.9123
 228  414.2865
 229  308.3676
 230  172.6441
 231  91.17442
 232  103.5752
 233  174.5816
 234  207.5309
 235  292.8308
 236  345.1188
 237  326.1598
 238  371.9527
 239  379.7492
 240  349.0284
 241  245.1175
 242  137.0001
 243  89.18936
 244  120.7406
 245  258.6922
 246  365.5213
 247  340.8756
 248  283.147
 249  310.018
 250  305.4518
 251  256.0524
 252  314.7619
 253  370.5189
 254  376.8797
 255  232.5699
 256  220.7425
 257  234.3024
 258  171.5096
 259  6.13792
 260  -42.97324
 261  31.82945
 262  189.7887
 263  225.8944
 264  286.3129
 265  246.1651
 266  331.2004
 267  287.5719
 268  281.1906
 269  142.878
 270  154.1673
 271  262.5598
 272  298.01
 273  234.9256
 274  69.20427
 275  100.2952
 276  61.48883
 277  187.5091
 278  256.7573
 279  359.6935
 280  335.907
 281  192.8544
 282  189.574
 283  170.8893
 284  218.4585
 285  172.7019
 286  227.5894
 287  181.7658
 288  191.4322
 289  100.1469
 290  78.70812
 291  45.19083
 292  -6.738698
 293  -73.47862
 294  -104.2929
 295  15.24968
 296  157.8245
 297  151.529
 298  72.00855
 299  118.6969
 300  198.308
 301  396.4221
 302  374.3383
 303  325.3801
 304  190.8914
 305  194.6929
 306  169.4523
 307  153.3431
 308  131.9208
 309  101.9979
 310  153.1934
 311  159.521
 312  216.6275
 313  133.3635
 314  50.36313
 315  -41.08093
 316  152.1333
 317  211.9147
 318  160.5525
 319  84.99415
 320  106.329
 321  226.3224
 322  243.4649
 323  305.2921
 324  207.3274
 325  88.1153
 326  142.6097
 327  64.83758
 328  -29.63894
 329  -82.77962
 330  71.66528
 331  124.7141
 332  42.53143
 333  -35.50061
 334  44.17995
 335  74.2903
 336  165.3431
 337  112.4786
 338  211.5986
 339  187.313
 340  173.2495
 341  97.29015
 342  124.2811
 343  139.3622
 344  153.2043
 345  58.36908
 346  33.15353
 347  18.49158
 348  124.9762
 349  86.22744
 350  24.42833
 351  -24.69886
 352  -11.51371
 353  9.263551
 354  28.17157
 355  50.44871
 356  16.1967
 357  0.8267128
 358  31.83083
 359  42.07912
 360  66.40784
 361  76.04782
 362  79.75595
 363  8.349745
 364  78.30984
 365  143.7977
 366  183.8872
 367  207.7494
 368  198.7902
 369  223.9588
 370  71.02134
 371  99.41066
 372  118.3751
 373  147.8657
 374  96.75729
 375  7.322731
 376  47.22192
 377  153.6768
 378  279.8258
 379  278.7418
 380  230.0429
 381  137.8591
 382  127.8012
 383  161.3972
 384  245.3759
 385  198.5933
 386  71.70341
 387  23.51575
 388  27.90277
 389  74.76313
 390  -35.47179
 391  -94.34264
 392  -165.4296
 393  -164.5061
 394  -166.275
 395  -117.3415
 396  -14.62451
 397  62.24836
 398  61.50911
 399  123.5461
 400  113.6155
 401  105.8983
 402  92.52165
 403  81.5294
 404  107.4688
 405  -14.99075
 406  -3.737329
 407  -10.82913
 408  167.4358
 409  242.301
 410  321.4136
 411  227.6209
 412  222.28
 413  207.4598
 414  217.1894
 415  192.8501
 416  137.2539
 417  0.779452
 418  -45.21464
 419  -145.3908
 420  -117.0878
 421  -19.6489
 422  150.2727
 423  137.8523
 424  -2.289313
 425  -55.24866
 426  -34.27258
 427  72.9688
 428  118.3425
 429  154.3744
 430  32.50017
 431  -41.29034
 432  -29.29488
 433  -21.98139
 434  -96.20337
 435  -107.6666
 436  -32.86103
 437  114.3593
 438  14.89397
 439  -78.40897
 440  -179.0764
 441  -133.8117
 442  -83.10802
 443  31.91821
 444  119.1152
 445  181.5709
 446  230.1332
 447  242.2047
 448  77.37878
 449  -88.33554
 450  -93.071
 451  9.497499
 452  177.029
 453  132.3322
 454  27.34539
 455  -58.79391
 456  29.4578
 457  210.2291
 458  295.733
 459  320.6986
 460  350.7832
 461  255.2093
 462  121.6319
 463  79.62547
 464  156.9326
 465  314.5394
 466  357.6734
 467  420.4611
 468  246.4538
 469  138.337
 470  153.8475
 471  234.1845
 472  209.7011
 473  122.7339
 474  139.8202
 475  142.4651
 476  131.9924
 477  146.427
 478  233.3438
 479  318.7788
 480  338.8704
 481  232.6353
 482  132.8152
 483  83.67098
 484  194.9078
 485  306.0685
 486  258.7247
 487  161.9605
 488  91.93593
 489  121.1938
 490  88.33311
 491  125.4173
 492  211.6866
 493  181.5771
 494  146.0625
 495  99.94711
 496  116.83
 497  93.92104
 498  31.96882
 499  19.61172
 500  79.28252
 501  166.2164
 502  221.1732
 503  232.1952
 504  219.975
 505  246.0445
 506  239.1619
 507  285.7433
 508  365.3686
 509  407.8414
 510  265.7468
 511  224.8718
 512  203.8246
 513  277.6201
 514  252.3314
 515  162.5354
 516  69.8694
 517  55.06028
 518  172.1005
 519  276.206
 520  321.8239
 521  350.0237
 522  463.0002
 523  408.5974
 524  313.96
 525  258.634
 526  320.9046
 527  302.7711
 528  219.541
 529  170.4504
 530  199.1322
 531  143.2117
 532  138.7172
 533  117.4109
 534  201.6118
 535  183.6607
 536  229.097
 537  248.7076
 538  323.7138
 539  164.8444
 540  59.97978
 541  27.19558
 542  160.497
 543  128.066
 544  71.09656
 545  64.3437
 546  50.21647
 547  110.0758
 548  181.0965
 549  239.872
 550  217.5037
 551  137.6361
 552  119.9879
 553  142.3417
 554  242.5692
 555  218.3837
 556  108.9765
 557  83.589
 558  232.5306
 559  321.5469
 560  259.9201
 561  215.4222
 562  208.0177
 563  234.3083
 564  284.7043
 565  316.5678
 566  308.7788
 567  331.4771
 568  365.8313
 569  415.7511
 570  406.2623
 571  310.8805
 572  251.1796
 573  184.9737
 574  119.8545
 575  84.43539
 576  99.31838
 577  324.0072
 578  515.8679
 579  596.1349
 580  539.9437
 581  402.1703
 582  424.3831
 583  413.7066
 584  450.1257
 585  451.504
 586  591.3245
 587  573.4839
 588  449.5471
 589  356.3803
 590  423.5117
 591  504.3951
 592  597.5955
 593  607.1293
 594  738.215
 595  760.9375
 596  881.6196
 597  899.8517
 598  874.415
 599  737.645
 600  701.0118
 601  648.8163
 602  629.6266
 603  559.704
 604  470.7092
 605  346.1793
 606  235.6264
 607  153.8725
 608  119.6856
 609  54.38378
 610  124.157
 611  119.9683
 612  198.8813
 613  85.70295
 614  93.81579
 615  74.53496
 616  105.2943
 617  115.4722
 618  267.4212
 619  377.7779
 620  294.3113
 621  54.51918
 622  90.48447
 623  67.77307
 624  132.0419
 625  92.66094
 626  216.3438
 627  283.2681
 628  381.1288
 629  446.1566
 630  465.3608
 631  415.0255
 632  381.1951
 633  385.7916
 634  389.9868
 635  404.2731
 636  338.835
 637  356.722
 638  455.0909
 639  506.8526
 640  469.197
 641  353.859
 642  360.844
 643  308.087
 644  304.599
 645  320.6752
 646  283.6029
 647  301.5725
 648  378.1826
 649  480.0984
 650  471.5899
 651  383.0306
 652  394.8856
 653  390.5391
 654  361.2739
 655  245.1422
 656  232.5242
 657  349.4571
 658  442.6415
 659  455.8331
 660  350.8331
 661  378.9816
 662  409.6027
 663  391.2411
 664  328.0782
 665  268.045
 666  307.4534
 667  348.9911
 668  320.6812
 669  368.9914
 670  372.6436
 671  342.4476
 672  316.0824
 673  373.8604
 674  363.405
 675  263.5509
 676  179.4961
 677  286.0159
 678  300.467
 679  161.261
 680  156.1978
 681  261.1936
 682  267.5085
 683  166.2116
 684  140.9781
 685  243.0355
 686  232.8315
 687  315.5482
 688  417.1394
 689  499.6947
 690  448.5804
 691  457.594
 692  468.1409
 693  360.3842
 694  220.576
 695  211.658
 696  308.0025
 697  354.392
 698  395.9882
 699  382.4153
 700  348.2524
 701  302.294
 702  308.9254
 703  229.5239
 704  179.7685
 705  321.2791
 706  420.6337
 707  598.6123
 708  542.3589
 709  613.6015
 710  521.7135
 711  478.182
 712  447.5574
 713  493.937
 714  475.9963
 715  502.7471
 716  474.0045
 717  450.3325
 718  310.9612
 719  250.5132
 720  282.4703
 721  330.6776
 722  346.7527
 723  402.0518
 724  457.9398
 725  543.5457
 726  466.3627
 727  386.5214
 728  421.2886
 729  546.488
 730  557.2282
 731  446.1922
 732  291.1331
 733  310.081
 734  320.9443
 735  327.6913
 736  285.6345
 737  195.7389
 738  288.0734
 739  447.051
 740  522.6623
 741  497.898
 742  406.1244
 743  359.6028
 744  223.6071
 745  260.9073
 746  224.7282
 747  249.2607
 748  226.722
 749  273.7751
 750  357.3185
 751  307.5833
 752  320.4626
 753  309.6967
 754  275.3479
 755  294.2407
 756  346.1905
 757  410.6044
 758  247.5735
 759  65.96194
 760  62.66634
 761  123.0038
 762  238.7155
 763  277.1491
 764  349.2332
 765  336.8271
 766  152.6061
 767  8.073158
 768  -50.3059
 769  43.82722
 770  111.8537
 771  216.0534
 772  276.4166
 773  229.4476
 774  180.5308
 775  199.0035
 776  203.4361
 777  157.0565
 778  47.5401
 779  -3.401593
 780  -45.2611
 781  -30.87398
 782  59.76913
 783  143.2048
 784  193.973
 785  172.0292
 786  219.1244
 787  270.1167
 788  247.0057
 789  157.6788
 790  73.05602
 791  74.8797
 792  80.59156
 793  131.1324
 794  74.57784
 795  108.7276
 796  105.4214
 797  165.0579
 798  204.4386
 799  371.2827
 800  349.9326
 801  306.4053
 802  104.2037
 803  86.30527
 804  95.60867
 805  204.2737
 806  395.2973
 807  382.7105
 808  276.1166
 809  198.3152
 810  334.6278
 811  443.9663
 812  434.9924
 813  369.865
 814  262.0903
 815  171.4332
 816  164.2974
 817  312.4522
 818  460.7442
 819  520.2203
 820  463.6157
 821  381.4738
 822  317.5379
 823  251.7852
 824  187.9784
 825  240.1367
 826  339.9998
 827  403.3374
 828  306.4985
 829  253.4684
 830  202.5029
 831  137.8959
 832  112.768
 833  89.28824
 834  171.6726
 835  261.7612
 836  323.09
 837  274.5729
 838  260.7282
 839  289.6138
 840  354.0961
 841  350.4427
 842  316.1834
 843  342.6467
 844  283.0565
 845  222.0248
 846  207.0981
 847  313.8796
 848  394.5063
 849  358.5853
 850  203.6611
 851  141.625
 852  97.65561
 853  1.251393
 854  -47.13675
 855  74.87329
 856  203.7751
 857  158.1415
 858  59.0358
 859  80.49802
 860  131.9251
 861  189.6965
 862  262.1859
 863  282.6072
 864  182.8979
 865  16.3047
 866  94.16769
 867  231.6315
 868  325.2961
 869  249.1096
 870  60.69915
 871  24.38208
 872  46.04402
 873  142.3835
 874  95.06977
 875  118.3011
 876  61.00565
 877  10.78893
 878  -58.56517
 879  -10.21572
 880  0.6562231
 881  78.02386
 882  110.9905
 883  178.2541
 884  81.01775
 885  86.69003
 886  205.4326
 887  363.0555
 888  336.3693
 889  246.6484
 890  106.2406
 891  68.72452
 892  65.49623
 893  44.27724
 894  99.40673
 895  172.6087
 896  290.544
 897  215.9169
 898  144.4656
 899  155.6143
 900  192.0935
 901  181.5286
 902  88.73173
 903  98.29514
 904  196.9319
 905  387.1797
 906  340.2298
 907  160.1886
 908  118.118
 909  157.36
 910  204.9236
 911  246.5978
 912  254.4291
 913  333.9685
 914  219.1975
 915  151.3994
 916  118.2976
 917  178.0997
 918  207.9205
 919  199.6089
 920  257.3159
 921  329.5954
 922  413.7958
 923  331.2861
 924  211.3819
 925  139.9692
 926  167.0312
 927  210.9691
 928  232.9212
 929  189.7102
 930  116.8537
 931  38.6292
 932  -27.4969
 933  -49.96432
 934  5.469202
 935  132.8921
 936  220.1693
 937  264.2563
 938  207.5893
 939  184.0829
 940  115.8392
 941  75.74248
 942  64.2216
 943  107.2709
 944  147.155
 945  139.5221
 946  105.2677
 947  13.82498
 948  37.73685
 949  170.5379
 950  310.6443
 951  320.3493
 952  249.7368
 953  222.1386
 954  165.8632
 955  188.6205
 956  248.371
 957  324.9435
 958  252.41
 959  237.9999
 960  171.5681
 961  227.464
 962  329.619
 963  367.0459
 964  310.1553
 965  205.0727
 966  186.9113
 967  209.0612
 968  254.734
 969  231.2403
 970  276.024
 971  335.1698
 972  219.0405
 973  181.4447
 974  107.6802
 975  153.5934
 976  234.0715
 977  260.6211
 978  246.0109
 979  155.1473
 980  103.7642
 981  225.4993
 982  347.959
 983  446.5725
 984  333.8592
 985  259.8998
 986  285.2922
 987  414.8864
 988  409.9458
 989  321.114
 990  300.6078
 991  264.1222
 992  178.2024
 993  89.946
 994  105.0559
 995  260.7984
 996  340.4944
 997  339.7867
 998  316.3174
 999  224.9192
1000  230.841
1001  289.2968
1002  406.7115
1003  318.5352
1004  182.4432
1005  162.3545
1006  301.8572
1007  378.8658
1008  312.2545
1009  196.2174
1010  159.9916
1011  215.6062
1012  238.4633
1013  195.577
1014  202.5612
1015  125.0599
1016  210.6365
1017  91.18372
1018  139.1584
1019  26.38451
1020  144.3777
1021  238.99
1022  381.2596
1023  381.3691
