# Input file       =  1212375269.110713_cleaned.dat
# Candidate        =  PSR_0332+5434
# Telescope        =  AR
# Epoch_topo       =  58276.121390170287
# Epoch_bary       =  N/A
# T_sample         =  0.002
# Data Folded      =  7143424
# Data Avg         =  0.0560754278818227
# Data StdDev      =  1.00003985890191 
# Profile Bins     =  512
# Profile Avg      =  782.329334067695 
# Profile StdDev   =  118.12329255894  
# Reduced chi-sqr  =  1.673
# Prob(Noise)      <  1.02e-19   (~9.0 sigma)
# P_topo (ms)      =  714.510998919395  +/- 0.000215
# P'_topo (s/s)    =  -0                +/- 1.16e-10
# P''_topo (s/s^2) =  0                 +/- 5.28e-14
# P_bary (ms)      =  N/A
# P'_bary (s/s)    =  N/A
# P''_bary (s/s^2) =  N/A
# P_orb (s)        =  N/A
# asin(i)/c (s)    =  N/A
# eccentricity     =  N/A
# w (rad)          =  N/A
# T_peri           =  N/A
######################################################
   0  1529.622
   1  1518.911
   2  1276.093
   3  977.5972
   4  730.1625
   5  718.203
   6  827.853
   7  842.8144
   8  821.6451
   9  886.6544
  10  754.7266
  11  827.9875
  12  878.5333
  13  894.595
  14  937.394
  15  872.4948
  16  813.9449
  17  763.632
  18  715.0031
  19  846.8042
  20  829.1702
  21  769.6507
  22  822.0618
  23  864.2878
  24  788.6485
  25  845.9294
  26  843.0447
  27  757.5663
  28  736.2335
  29  816.5026
  30  748.2198
  31  695.7459
  32  884.4127
  33  773.3373
  34  807.6143
  35  878.0793
  36  801.8458
  37  722.5628
  38  708.1106
  39  697.9771
  40  748.4558
  41  807.698
  42  772.2759
  43  693.5801
  44  599.481
  45  663.2338
  46  696.181
  47  700.7581
  48  765.9127
  49  743.6625
  50  701.2604
  51  825.7797
  52  616.1654
  53  632.6017
  54  784.2408
  55  737.8413
  56  775.4225
  57  745.5635
  58  706.9246
  59  737.252
  60  731.7181
  61  640.58
  62  641.7897
  63  789.0864
  64  872.3218
  65  717.9654
  66  639.9645
  67  603.053
  68  582.1056
  69  598.8283
  70  726.5588
  71  694.7766
  72  593.4599
  73  590.4254
  74  622.211
  75  660.6462
  76  756.0739
  77  694.4373
  78  581.612
  79  656.8611
  80  631.4174
  81  635.5662
  82  663.2504
  83  665.3746
  84  691.632
  85  622.9866
  86  707.9271
  87  680.2003
  88  642.6153
  89  618.3268
  90  648.4049
  91  645.1191
  92  630.5948
  93  648.8441
  94  720.0081
  95  671.0505
  96  669.1709
  97  642.3384
  98  678.8909
  99  747.5126
 100  748.0468
 101  638.8494
 102  615.1228
 103  596.9636
 104  662.0251
 105  739.0039
 106  610.7844
 107  598.5543
 108  687.8265
 109  674.784
 110  580.6956
 111  637.6013
 112  657.2855
 113  675.1812
 114  663.0821
 115  738.3991
 116  763.5662
 117  754.5885
 118  778.1973
 119  713.4719
 120  688.8784
 121  673.8508
 122  660.4595
 123  637.1094
 124  768.853
 125  816.4858
 126  732.2271
 127  780.0483
 128  680.4958
 129  698.9063
 130  713.1464
 131  763.199
 132  667.3622
 133  719.4652
 134  749.5624
 135  703.2311
 136  714.5706
 137  657.3719
 138  757.9304
 139  795.3253
 140  637.5743
 141  543.1885
 142  577.7144
 143  651.6234
 144  644.9011
 145  743.613
 146  661.0126
 147  605.8132
 148  580.2258
 149  661.0914
 150  806.0668
 151  820.0355
 152  693.656
 153  685.5513
 154  704.2274
 155  706.6837
 156  651.3528
 157  706.0272
 158  743.7167
 159  761.993
 160  615.2885
 161  578.9756
 162  525.3765
 163  649.3005
 164  780.5092
 165  782.0432
 166  785.3584
 167  729.3167
 168  677.5488
 169  750.3043
 170  692.3952
 171  739.7899
 172  914.3036
 173  884.163
 174  824.7921
 175  787.7004
 176  770.5414
 177  719.9666
 178  717.5215
 179  701.7261
 180  731.1834
 181  890.1834
 182  762.1525
 183  778.5939
 184  789.2997
 185  720.5878
 186  770.1381
 187  775.6673
 188  792.259
 189  838.9183
 190  932.2885
 191  947.508
 192  827.8345
 193  821.6472
 194  839.1324
 195  808.2512
 196  822.0335
 197  875.175
 198  777.174
 199  691.4543
 200  721.1725
 201  769.6671
 202  811.3332
 203  854.4486
 204  725.1731
 205  785.9975
 206  825.7084
 207  889.6553
 208  916.1403
 209  806.3679
 210  852.3666
 211  797.5641
 212  747.2965
 213  707.8074
 214  717.4266
 215  871.1718
 216  857.9579
 217  849.205
 218  1003.851
 219  943.1204
 220  882.4656
 221  758.0765
 222  752.3719
 223  821.028
 224  686.5463
 225  586.675
 226  763.0015
 227  739.4041
 228  822.2798
 229  784.1892
 230  812.6476
 231  807.1253
 232  847.606
 233  803.0748
 234  771.04
 235  771.5169
 236  812.0444
 237  870.6839
 238  938.447
 239  941.6752
 240  922.0926
 241  870.0976
 242  896.119
 243  806.3174
 244  872.304
 245  888.0284
 246  892.1774
 247  842.8114
 248  944.201
 249  809.8822
 250  772.5898
 251  721.6897
 252  793.7374
 253  810.1878
 254  843.2537
 255  782.9026
 256  803.2288
 257  686.1737
 258  634.8976
 259  644.7031
 260  806.0362
 261  820.6287
 262  764.583
 263  797.2345
 264  870.4446
 265  739.2728
 266  699.6965
 267  748.002
 268  724.7963
 269  880.995
 270  858.7206
 271  746.1342
 272  795.2681
 273  835.3926
 274  810.591
 275  799.1081
 276  767.8312
 277  794.5186
 278  860.3965
 279  855.0104
 280  766.9169
 281  848.5056
 282  899.6635
 283  810.7053
 284  737.0921
 285  712.2687
 286  886.4522
 287  816.7512
 288  730.3773
 289  867.2766
 290  989.7249
 291  931.361
 292  782.9575
 293  633.53
 294  719.5738
 295  739.5699
 296  858.7144
 297  867.319
 298  818.7836
 299  886.2845
 300  816.7419
 301  759.1503
 302  773.4782
 303  695.7949
 304  731.9393
 305  844.815
 306  864.9899
 307  697.3007
 308  795.7994
 309  855.3113
 310  876.0981
 311  829.4707
 312  846.2925
 313  845.9181
 314  766.8245
 315  826.9993
 316  765.0347
 317  671.4236
 318  781.3862
 319  760.142
 320  719.2788
 321  823.7582
 322  845.8361
 323  909.0023
 324  819.3141
 325  694.9123
 326  804.9162
 327  778.6204
 328  823.8146
 329  763.8561
 330  731.807
 331  797.3652
 332  810.8492
 333  663.1175
 334  794.5503
 335  778.7439
 336  730.0885
 337  741.7053
 338  838.5278
 339  750.0405
 340  689.294
 341  770.3472
 342  816.1058
 343  763.5942
 344  811.8501
 345  758.1701
 346  848.5466
 347  832.6702
 348  768.9594
 349  755.894
 350  732.3135
 351  741.2197
 352  832.0245
 353  872.7557
 354  734.8199
 355  711.0536
 356  757.3267
 357  882.9608
 358  781.6298
 359  704.3744
 360  796.4237
 361  769.5495
 362  703.1269
 363  878.686
 364  896.126
 365  751.7906
 366  639.0593
 367  731.0134
 368  642.7576
 369  754.7449
 370  838.5529
 371  866.9924
 372  841.0322
 373  752.6595
 374  764.3457
 375  632.7656
 376  731.8323
 377  825.3845
 378  892.081
 379  935.5415
 380  880.599
 381  656.823
 382  726.0894
 383  762.5983
 384  824.0143
 385  862.9447
 386  693.3371
 387  771.5001
 388  757.1745
 389  716.9348
 390  811.9669
 391  801.6077
 392  769.5954
 393  878.5936
 394  770.3088
 395  795.1606
 396  817.2572
 397  796.4625
 398  804.2012
 399  814.4559
 400  801.5089
 401  793.4233
 402  744.7892
 403  690.4637
 404  819.0031
 405  837.6303
 406  681.9857
 407  709.4997
 408  769.7529
 409  779.7375
 410  946.1591
 411  918.4429
 412  913.1367
 413  912.3713
 414  874.3431
 415  803.9809
 416  756.8766
 417  792.8414
 418  815.5167
 419  837.9012
 420  808.2536
 421  947.8801
 422  921.2161
 423  885.7474
 424  990.065
 425  928.8463
 426  859.1763
 427  759.2244
 428  728.7394
 429  841.6224
 430  843.5323
 431  858.2484
 432  791.2172
 433  867.72
 434  834.3649
 435  806.0666
 436  903.8121
 437  864.1241
 438  879.8012
 439  877.7671
 440  800.8239
 441  825.5429
 442  808.6495
 443  807.1938
 444  788.2479
 445  786.7322
 446  959.9192
 447  850.7734
 448  777.5774
 449  910.7638
 450  927.313
 451  850.6122
 452  808.249
 453  781.6307
 454  821.6646
 455  919.0642
 456  884.3022
 457  998.2232
 458  979.6804
 459  901.9187
 460  949.2337
 461  910.4597
 462  927.9053
 463  803.9592
 464  779.9368
 465  746.2477
 466  677.5571
 467  746.3771
 468  697.0197
 469  764.2289
 470  851.3899
 471  719.2877
 472  718.1005
 473  810.5513
 474  769.6513
 475  782.0114
 476  644.0168
 477  830.6295
 478  858.98
 479  738.1221
 480  703.5161
 481  666.9081
 482  672.4214
 483  851.2914
 484  760.9566
 485  775.6226
 486  838.938
 487  755.6733
 488  736.3927
 489  714.2076
 490  715.4036
 491  743.4678
 492  758.5264
 493  764.0338
 494  873.4129
 495  889.5381
 496  758.0162
 497  767.7834
 498  816.2701
 499  786.179
 500  712.7532
 501  817.6283
 502  914.8978
 503  866.4444
 504  865.3241
 505  837.8291
 506  948.466
 507  1002.959
 508  1008.308
 509  1171.52
 510  1335.383
 511  1470.332
