# Input file       =  1212562175.108889_cleaned.dat
# Candidate        =  PSR_0332+5434
# Telescope        =  AR
# Epoch_topo       =  58278.284654038071
# Epoch_bary       =  N/A
# T_sample         =  0.002
# Data Folded      =  7340032
# Data Avg         =  0.10428213733186 
# Data StdDev      =  2.93257713286233 
# Profile Bins     =  512
# Profile Avg      =  1495.06928174766 
# Profile StdDev   =  351.126364526677 
# Reduced chi-sqr  =  1.027
# Prob(Noise)      <  0.326   (~0.5 sigma)
# P_topo (ms)      =  714.508932554217  +/- 0.000509
# P'_topo (s/s)    =  -0                +/- 2.68e-10
# P''_topo (s/s^2) =  0                 +/- 1.19e-13
# P_bary (ms)      =  N/A
# P'_bary (s/s)    =  N/A
# P''_bary (s/s^2) =  N/A
# P_orb (s)        =  N/A
# asin(i)/c (s)    =  N/A
# eccentricity     =  N/A
# w (rad)          =  N/A
# T_peri           =  N/A
######################################################
   0  1328.184
   1  1598.66
   2  1841.438
   3  1586.776
   4  1465.418
   5  1702.579
   6  1590.887
   7  1320.078
   8  1598.451
   9  1748.193
  10  1582.149
  11  1339.653
  12  1526.665
  13  1592.591
  14  1300.313
  15  1229.649
  16  1523.616
  17  1246.376
  18  1434.496
  19  1632.485
  20  1644.851
  21  1569.714
  22  1823.968
  23  1859.434
  24  1754.914
  25  1480.634
  26  1561.412
  27  1439.154
  28  1603.562
  29  1602.645
  30  1692.969
  31  1632.244
  32  1760.675
  33  1837.619
  34  1703.74
  35  1714.276
  36  1484.29
  37  1643.869
  38  1659.032
  39  1846.564
  40  1706.073
  41  1454.096
  42  1645.529
  43  1818.839
  44  1559.582
  45  1305.723
  46  1246.459
  47  1376.622
  48  1315.359
  49  1359.105
  50  1451.155
  51  1426.861
  52  1638.29
  53  1404.105
  54  1455.201
  55  1713.324
  56  1880.959
  57  1881.842
  58  1438.866
  59  1601.651
  60  1314.258
  61  1234.891
  62  1507.67
  63  1474.039
  64  1691.865
  65  1901.329
  66  1621.411
  67  1586.726
  68  1558.493
  69  1723.045
  70  1186.269
  71  1232.74
  72  1600.077
  73  1878.157
  74  1756.499
  75  1429.842
  76  1306.435
  77  1200.431
  78  1168.815
  79  1311.856
  80  1468.619
  81  1381.656
  82  1450.156
  83  1498.844
  84  1658.988
  85  1645.402
  86  1674.309
  87  1677.973
  88  1334.763
  89  1494.541
  90  1278.245
  91  1357.231
  92  1378.503
  93  1543.239
  94  1447.598
  95  1311.146
  96  1188.841
  97  1158.829
  98  1219.643
  99  1226.746
 100  1376.667
 101  1291.107
 102  1242.917
 103  1291.994
 104  1853.724
 105  1505.373
 106  1416.18
 107  1137.507
 108  1333.768
 109  1205.689
 110  1325.686
 111  1384.659
 112  1713.266
 113  1285.111
 114  1296.048
 115  1305.212
 116  1603.521
 117  1404.769
 118  1275.917
 119  1247.351
 120  1416.276
 121  1433.133
 122  1517.477
 123  1592.611
 124  1422.983
 125  1480.198
 126  1425.298
 127  1594.984
 128  1485.802
 129  1364.543
 130  1264.141
 131  1088.451
 132  1213.987
 133  1462.98
 134  1035.494
 135  1113.732
 136  1125.591
 137  1416.644
 138  1284.803
 139  1256.732
 140  1280.698
 141  1326.754
 142  1151.855
 143  1095.059
 144  1299.948
 145  1487.85
 146  1222.157
 147  988.5386
 148  1098.171
 149  1100.616
 150  1295.821
 151  1342.832
 152  1654.871
 153  1576.856
 154  1432.787
 155  1523.556
 156  1378.479
 157  1657.447
 158  1423.576
 159  1582.08
 160  1110.202
 161  1431.644
 162  1394.809
 163  1387.338
 164  1520.685
 165  1529.705
 166  1546.81
 167  1799.804
 168  1647.497
 169  1526.916
 170  1422.186
 171  1242.563
 172  1328.978
 173  1269.504
 174  1177.19
 175  1315.703
 176  1354.22
 177  1405.716
 178  1364.463
 179  1367.306
 180  1929.847
 181  1924.213
 182  1530.018
 183  1344.995
 184  1389.993
 185  1502.652
 186  1540.535
 187  1371.788
 188  1719.127
 189  1746.906
 190  1545.566
 191  1617.019
 192  1472.159
 193  1307.711
 194  1610.719
 195  1480.951
 196  1606.531
 197  1499.679
 198  1340.169
 199  1303.986
 200  1289.796
 201  1338.89
 202  1318.349
 203  1472.293
 204  1334.912
 205  1505.58
 206  1622.544
 207  1357.126
 208  1391.428
 209  1093.484
 210  1159.351
 211  1467.517
 212  1411.344
 213  1503.423
 214  1315.911
 215  1730.409
 216  1440.812
 217  1121.151
 218  1383.228
 219  1655.315
 220  1595.707
 221  1108.313
 222  1091.381
 223  1313.751
 224  1326.755
 225  1159.768
 226  1322.909
 227  1340.156
 228  1805.097
 229  1764.3
 230  1750.406
 231  1444.64
 232  1454.117
 233  1465.042
 234  1362.197
 235  1412.518
 236  1710.234
 237  1612.503
 238  1296.81
 239  1304.193
 240  1331.061
 241  1488.88
 242  1286.12
 243  1201.015
 244  1232.037
 245  1121.121
 246  1272.469
 247  1534.13
 248  1340.575
 249  1125.246
 250  1293.425
 251  1346.132
 252  1496.687
 253  1449.128
 254  1464.597
 255  1383.712
 256  1128.498
 257  1261.295
 258  1159.611
 259  864.001
 260  936.7255
 261  1235.57
 262  1566.922
 263  1881.387
 264  1428.503
 265  1054.709
 266  1313.745
 267  1355.658
 268  1500.108
 269  1492.309
 270  1531.253
 271  1555.497
 272  1582.768
 273  1342.294
 274  1195.703
 275  1370.225
 276  1792.072
 277  1471.09
 278  1402.457
 279  1673.259
 280  1552.437
 281  1708.487
 282  1930.927
 283  2036.307
 284  1668.175
 285  1451.794
 286  1568.153
 287  1424.349
 288  1476.857
 289  1684.906
 290  1441.397
 291  1465.715
 292  1495.537
 293  2070.102
 294  2140.45
 295  2267.109
 296  2693.229
 297  2872.179
 298  3394.432
 299  2894.517
 300  2682.09
 301  2448.578
 302  1963.828
 303  1952.498
 304  2090.32
 305  1908.946
 306  1652.829
 307  1653.348
 308  1576.679
 309  1478.659
 310  1551.724
 311  1674.297
 312  1529.979
 313  1551.628
 314  1802.675
 315  1673.277
 316  1519.193
 317  1134.694
 318  1454.923
 319  1809.71
 320  1715.871
 321  1766.778
 322  1685.137
 323  1510.522
 324  1581.362
 325  1398.626
 326  1664.869
 327  1893.724
 328  1588.667
 329  1724.467
 330  1886.914
 331  1670.461
 332  1657.626
 333  1559.361
 334  1453.933
 335  1325.241
 336  1643.539
 337  1708.924
 338  1799.052
 339  1688.928
 340  1487.748
 341  1454.441
 342  1445.538
 343  1487.713
 344  1562.635
 345  1570.172
 346  1561.862
 347  1331.772
 348  1766.418
 349  1701.041
 350  1526.894
 351  1186.744
 352  1595.402
 353  1794.577
 354  1851.395
 355  1550.278
 356  1483.623
 357  1544.279
 358  1573.261
 359  1227.443
 360  1223.284
 361  1930.45
 362  2037.529
 363  1640.338
 364  1433.421
 365  1545.853
 366  1565.549
 367  1484.493
 368  1445.42
 369  1296.08
 370  1666.356
 371  1722.234
 372  1746.875
 373  1667.492
 374  1387.017
 375  1621.147
 376  1695.83
 377  1573.156
 378  1580.741
 379  1326.334
 380  1288.016
 381  1727.37
 382  1780.676
 383  1622.589
 384  1099.79
 385  1140.694
 386  1106.615
 387  1262.138
 388  1555.844
 389  1821.474
 390  1620.564
 391  1538.1
 392  1465.794
 393  1357.87
 394  1383.792
 395  1439.781
 396  1562.166
 397  1281.173
 398  1441.609
 399  1737.361
 400  1661.121
 401  1365.747
 402  1402.037
 403  1753.309
 404  1553.478
 405  1179.294
 406  928.6099
 407  944.2596
 408  1231.682
 409  1503.75
 410  1665.242
 411  1373.443
 412  1308.93
 413  1442.554
 414  1432.662
 415  1628.96
 416  1502.249
 417  1447.169
 418  1430.302
 419  1363.377
 420  1341.597
 421  1558.038
 422  1730.832
 423  1709.036
 424  1824.011
 425  1717.462
 426  1467.679
 427  1374.307
 428  1379.102
 429  1510.185
 430  1263.952
 431  1308.543
 432  1272.357
 433  1422.882
 434  1556.022
 435  1538.406
 436  1627.123
 437  1615.216
 438  1568.131
 439  1578.022
 440  1397.911
 441  1255.639
 442  1534.647
 443  1753.118
 444  1708.891
 445  1467.405
 446  1220.847
 447  1448.014
 448  2008.255
 449  1916.574
 450  1526.74
 451  1515.737
 452  1419.891
 453  1274.491
 454  1419.672
 455  1363.266
 456  1869.438
 457  1542.092
 458  1480.659
 459  1658.732
 460  1630.816
 461  1803.171
 462  1605.697
 463  1385.011
 464  1546.427
 465  1484.586
 466  1349.428
 467  1598.613
 468  1495.497
 469  1440.062
 470  1547.404
 471  1554.93
 472  1447.79
 473  1443.314
 474  1396.915
 475  1312.101
 476  1454.845
 477  1425.39
 478  1599.782
 479  1275.155
 480  978.7734
 481  1343.3
 482  1389.117
 483  1587.971
 484  1605.471
 485  1461.18
 486  1177.776
 487  1419.153
 488  1320.93
 489  1130.084
 490  1192.724
 491  1131.887
 492  1336.145
 493  1424.651
 494  1176.268
 495  1410.141
 496  1165.776
 497  1245.576
 498  1404.622
 499  1471.942
 500  1536.69
 501  1276.734
 502  1661.269
 503  1784.945
 504  1489.508
 505  1520.371
 506  1479.781
 507  1376.989
 508  1503.677
 509  1436.392
 510  1260.016
 511  1298.673
