# Input file       =  1212547564.111335_cleaned.dat
# Candidate        =  PSR_0332+5434
# Telescope        =  AR
# Epoch_topo       =  58278.115545270084
# Epoch_bary       =  N/A
# T_sample         =  0.002
# Data Folded      =  7143424
# Data Avg         =  0.0500286425279887
# Data StdDev      =  1.00002966623821 
# Profile Bins     =  512
# Profile Avg      =  698.008213617589 
# Profile StdDev   =  118.122088615932 
# Reduced chi-sqr  =  1.358
# Prob(Noise)      <  1.15e-07   (~5.2 sigma)
# P_topo (ms)      =  714.509083393488  +/- 0.000141
# P'_topo (s/s)    =  -0                +/- 7.65e-11
# P''_topo (s/s^2) =  0                 +/- 3.47e-14
# P_bary (ms)      =  N/A
# P'_bary (s/s)    =  N/A
# P''_bary (s/s^2) =  N/A
# P_orb (s)        =  N/A
# asin(i)/c (s)    =  N/A
# eccentricity     =  N/A
# w (rad)          =  N/A
# T_peri           =  N/A
######################################################
   0  1215.799
   1  1080.192
   2  986.8237
   3  981.3049
   4  846.6876
   5  636.9896
   6  714.1973
   7  650.8185
   8  633.9356
   9  669.3614
  10  731.7225
  11  705.9569
  12  701.6417
  13  793.694
  14  826.2235
  15  800.3367
  16  807.6251
  17  725.3212
  18  712.3632
  19  727.0519
  20  686.4595
  21  704.7035
  22  667.6825
  23  651.0888
  24  632.3329
  25  621.8289
  26  602.9067
  27  595.077
  28  641.9212
  29  611.703
  30  634.4897
  31  767.074
  32  775.9555
  33  712.7988
  34  793.5784
  35  751.1193
  36  565.6179
  37  688.657
  38  709.9326
  39  717.7495
  40  674.0618
  41  638.6965
  42  587.8723
  43  462.9855
  44  639.9723
  45  612.5264
  46  685.2585
  47  707.5302
  48  660.531
  49  672.1509
  50  690.0026
  51  610.7916
  52  584.848
  53  685.3226
  54  752.1966
  55  599.0484
  56  500.8583
  57  440.2658
  58  501.8155
  59  627.8132
  60  696.1158
  61  676.5576
  62  750.3409
  63  784.9492
  64  804.57
  65  647.0454
  66  546.2672
  67  557.1221
  68  708.7949
  69  584.2056
  70  809.892
  71  811.7751
  72  842.4195
  73  797.3384
  74  821.5583
  75  873.4079
  76  635.4901
  77  590.8633
  78  692.1317
  79  742.7756
  80  729.1273
  81  718.401
  82  753.8865
  83  706.4905
  84  762.9835
  85  752.8602
  86  671.1932
  87  660.7936
  88  701.8125
  89  781.3105
  90  788.8983
  91  780.7051
  92  796.5875
  93  693.9546
  94  648.4008
  95  711.761
  96  643.9762
  97  637.5098
  98  764.5342
  99  766.8221
 100  591.5406
 101  604.5443
 102  622.2243
 103  534.6935
 104  738.4263
 105  709.496
 106  772.1898
 107  813.2763
 108  792.048
 109  789.1716
 110  764.1605
 111  784.8247
 112  732.1209
 113  876.3328
 114  875.4771
 115  718.8027
 116  879.3518
 117  620.5592
 118  689.2565
 119  748.5303
 120  667.9928
 121  720.257
 122  770.2379
 123  891.4955
 124  859.6183
 125  752.1987
 126  670.2042
 127  663.0834
 128  730.0408
 129  673.8133
 130  732.5602
 131  811.1682
 132  730.2273
 133  667.2572
 134  690.9896
 135  676.4434
 136  680.0643
 137  702.1354
 138  671.9058
 139  634.009
 140  660.965
 141  657.4902
 142  672.2582
 143  776.6578
 144  750.7069
 145  585.0315
 146  774.9249
 147  808.3177
 148  762.3566
 149  755.9433
 150  656.8829
 151  759.9944
 152  664.4225
 153  767.2905
 154  792.8016
 155  845.8407
 156  774.7896
 157  713.8561
 158  718.9987
 159  722.0806
 160  632.204
 161  612.7475
 162  592.5024
 163  649.679
 164  662.4375
 165  821.7501
 166  649.3988
 167  557.4904
 168  613.5414
 169  661.7902
 170  695.113
 171  698.5845
 172  760.4612
 173  677.9077
 174  591.2545
 175  683.5794
 176  623.4827
 177  538.358
 178  661.9649
 179  528.1466
 180  586.7004
 181  737.2787
 182  716.9782
 183  827.0076
 184  818.448
 185  803.7604
 186  698.9173
 187  789.6408
 188  894.1985
 189  751.3728
 190  791.8893
 191  725.7336
 192  725.6187
 193  614.5174
 194  727.553
 195  714.908
 196  684.0549
 197  773.9568
 198  789.8549
 199  750.1522
 200  747.248
 201  683.0677
 202  714.2302
 203  805.9172
 204  759.4673
 205  745.4376
 206  687.2495
 207  558.0925
 208  654.5103
 209  573.9697
 210  538.8933
 211  488.874
 212  561.4663
 213  744.0142
 214  645.7121
 215  729.5712
 216  747.8417
 217  853.9506
 218  879.5839
 219  761.0889
 220  714.2982
 221  765.0355
 222  715.0374
 223  622.8126
 224  712.584
 225  613.2255
 226  567.5812
 227  736.2804
 228  885.2708
 229  930.1328
 230  719.2166
 231  726.5175
 232  654.0534
 233  537.5857
 234  701.0528
 235  715.61
 236  685.6262
 237  583.5686
 238  527.3333
 239  629.7802
 240  622.0798
 241  648.2
 242  583.2769
 243  611.3106
 244  670.6192
 245  813.5284
 246  705.66
 247  668.5426
 248  642.4829
 249  719.9334
 250  656.6465
 251  638.5023
 252  724.8158
 253  697.1003
 254  603.7416
 255  671.029
 256  670.696
 257  709.5047
 258  595.5225
 259  538.3693
 260  469.5177
 261  655.0296
 262  731.1516
 263  772.0424
 264  792.3952
 265  715.5772
 266  828.387
 267  788.3644
 268  590.4859
 269  698.4981
 270  850.4335
 271  804.0059
 272  685.2307
 273  600.1942
 274  566.1318
 275  566.3244
 276  747.1572
 277  607.5381
 278  641.3606
 279  812.9853
 280  690.755
 281  593.4434
 282  651.9606
 283  712.405
 284  718.7018
 285  679.1926
 286  701.7554
 287  660.4942
 288  585.3054
 289  660.6235
 290  616.9882
 291  752.2744
 292  675.7689
 293  706.4807
 294  721.83
 295  649.9961
 296  639.71
 297  529.0244
 298  623.4082
 299  508.9991
 300  567.6871
 301  677.8375
 302  673.8031
 303  650.5715
 304  587.9207
 305  699.0084
 306  719.6967
 307  597.601
 308  656.9349
 309  668.5842
 310  732.3358
 311  636.8328
 312  700.6962
 313  631.0042
 314  630.8158
 315  696.8299
 316  718.1094
 317  706.147
 318  715.9744
 319  714.045
 320  599.4423
 321  625.6154
 322  669.9387
 323  577.3763
 324  683.4601
 325  669.9329
 326  577.3467
 327  687.2907
 328  814.0717
 329  772.5287
 330  841.3878
 331  789.8849
 332  637.1777
 333  551.735
 334  584.5852
 335  735.8458
 336  751.4637
 337  679.5384
 338  742.5312
 339  717.5032
 340  661.9387
 341  645.9911
 342  604.3934
 343  695.4224
 344  792.0895
 345  737.0622
 346  719.7656
 347  737.041
 348  696.9053
 349  806.0425
 350  692.8658
 351  637.0895
 352  614.2963
 353  674.2596
 354  660.8207
 355  503.0826
 356  518.5046
 357  613.4355
 358  582.0577
 359  584.3333
 360  693.489
 361  692.7523
 362  693.8662
 363  516.6727
 364  389.8721
 365  573.3141
 366  629.2729
 367  696.4084
 368  617.2156
 369  633.2952
 370  643.0637
 371  481.9621
 372  612.6169
 373  577.9609
 374  661.7138
 375  681.7617
 376  608.2924
 377  741.6877
 378  595.7977
 379  515.1074
 380  611.7366
 381  680.3276
 382  676.2692
 383  636.5995
 384  626.0192
 385  677.6833
 386  724.0703
 387  553.9385
 388  526.9571
 389  614.8514
 390  638.5457
 391  616.1497
 392  543.7976
 393  712.0159
 394  740.3351
 395  577.2329
 396  485.134
 397  679.8754
 398  697.5951
 399  626.3337
 400  721.9954
 401  766.0625
 402  779.8804
 403  615.1763
 404  687.4747
 405  588.6027
 406  609.3193
 407  626.5305
 408  642.9062
 409  751.6822
 410  697.3527
 411  752.5242
 412  690.6638
 413  738.2935
 414  702.1942
 415  619.5634
 416  609.7839
 417  545.2358
 418  719.2245
 419  717.7333
 420  646.2553
 421  555.2475
 422  597.4011
 423  657.2233
 424  681.8684
 425  603.8284
 426  756.9778
 427  777.8968
 428  745.3214
 429  679.6415
 430  670.5008
 431  790.8792
 432  697.7717
 433  607.491
 434  768.1273
 435  820.0706
 436  859.4745
 437  827.0552
 438  727.9539
 439  757.5206
 440  613.4613
 441  634.3782
 442  672.2547
 443  645.8236
 444  842.8005
 445  821.1052
 446  708.8995
 447  687.8591
 448  701.27
 449  741.6298
 450  718.7856
 451  779.3146
 452  848.8311
 453  807.0599
 454  597.9874
 455  660.5914
 456  652.5926
 457  706.8434
 458  727.9512
 459  674.3651
 460  691.1439
 461  720.8446
 462  749.9677
 463  619.2211
 464  650.0694
 465  805.0104
 466  725.4883
 467  756.4373
 468  657.4582
 469  746.4653
 470  636.5665
 471  642.0749
 472  767.4789
 473  615.0241
 474  712.4941
 475  718.2335
 476  695.3202
 477  770.0637
 478  772.5227
 479  776.9101
 480  732.2363
 481  638.8043
 482  752.3854
 483  781.3781
 484  780.6501
 485  727.8403
 486  795.3401
 487  834.6275
 488  764.6372
 489  788.9308
 490  780.2919
 491  693.7205
 492  641.3459
 493  889.514
 494  791.532
 495  847.8024
 496  865.8936
 497  718.4149
 498  746.7119
 499  669.1059
 500  654.3099
 501  766.838
 502  849.1317
 503  880.1069
 504  829.0746
 505  781.3287
 506  721.8175
 507  682.1224
 508  959.6104
 509  1075.653
 510  1184.271
 511  1314.94
